"","trial","electrodes","pre_13","pre_12","pre_11","pre_10","pre_9","pre_8","pre_7","pre_6","pre_5","pre_4","pre_3","pre_2","pre_1","post_1","post_2","post_3","post_4","post_5","post_6","post_7","post_8","post_9","post_10","post_11","post_12","post_13","post_14","post_15","post_16","post_17","post_18","post_19","post_20","post_21","post_22","post_23","post_24","post_25","post_26","post_27","post_28","post_29","X","SID","newround_time","choice_time","buttonpress_time","reveal_time","self_payoff","other_payoff","self_foregone","other_foregone","RT","side_chosen","self_var_payoff","other_var_payoff","ineq_var_abs","ineq_choice_abs","ineq_foregone_abs","ineq_disadvent","ineq_advent","ineq_choice","chose_equality","self_diff","other_diff","L_self","R_self","L_other","R_other"
"1",1,"LIN1-LIN2",0.05850270683,0.20651905083,0.15104801683,0.11623196083,0.08345775323,0.21970260723,0.185012185096667,0.12886791203,0.0459360386966667,0.19502464283,0.248373585496667,0.205991249696667,0.173627596363333,0.159304870363333,0.142816465496667,-0.0120604498366667,-0.04987761677,-0.0566904281033333,0.0751082638966667,0.0172401281633333,0.00746533809666668,-0.106700729903333,-0.04649292057,0.0174582301633333,0.0270824814966667,-0.03351610317,-0.138966548503333,-0.103635097836667,-0.14060725317,-0.0269164698366667,-0.06105646517,0.0244829254966667,-0.0384495638366667,-0.0713673258366667,0.00741491149666668,-0.0872017125033333,0.05117643283,-0.15268025517,-0.0633828425033333,-0.211818107836667,-0.08033735197,-0.10029500597,2397,"DG_s12",-0.703,0,0.75,0.75,10,18,10,10,0.75,"Right",10,18,8,8,0,8,0,-8,"Disadvent",0,8,10,10,10,18
"2",1,"LOF3-LOF4",-0.1519548549,-0.0357240589,0.138732034433333,0.2088404151,0.306862152433333,0.317721815766667,0.204766569766667,0.1081861251,0.00632169643333333,0.0489081551,0.1394496711,0.3585798631,0.5105578631,0.3629595171,0.3081312071,0.253381243766667,0.2311374651,0.0661093724333333,0.0392174031,0.0552726471,0.194929196433333,0.138392894433333,0.220580955766667,0.249463562433333,0.2374356731,0.144593926433333,-0.0578270249,-0.0834440195666667,-0.00751928223333333,0.0347175444333333,0.0733555004333333,0.0085084691,-0.0472211989,0.0263873924333333,0.0846691677666667,0.1465948731,0.0920679577666667,0.1656499891,0.170420203766667,0.121477687766667,-0.0530946902333333,-0.0911031222333333,2397,"DG_s12",-0.703,0,0.75,0.75,10,18,10,10,0.75,"Right",10,18,8,8,0,8,0,-8,"Disadvent",0,8,10,10,10,18
"3",1,"RIN1-RIN2",0.0747109961666667,-0.0107496245,0.0176003788333333,0.1072879855,0.2389792855,0.261165308833333,0.242881036166667,0.234916576833333,0.147821876166667,0.192618182166667,0.187179932833333,0.165999212833333,0.129642498166667,0.1055599775,0.1990018335,0.290528879033333,0.375281815033333,0.3326347457,0.279475688166667,0.3066253015,0.248533802166667,0.1873273313,0.0873878833666667,0.0634244947,-0.00931988843333333,-0.0178935018333333,0.00951455350000001,0.0981216361666667,0.100732034166667,0.0819034395,0.0572351501666667,0.190580708833333,0.410258156833333,0.4304651035,0.2755549215,0.0266338968333333,-0.0621392925,-0.0666516458333333,0.0570611521666667,0.179196180166667,0.241388541766667,0.181426528633333,2397,"DG_s12",-0.703,0,0.75,0.75,10,18,10,10,0.75,"Right",10,18,8,8,0,8,0,-8,"Disadvent",0,8,10,10,10,18
"4",1,"RIN2-RIN3",-0.0584200739333333,0.0299079200666667,0.1355393474,0.262535101,0.347987858333333,0.384454111,0.231165020733333,0.0760039207333333,0.0925964260666667,0.2212893794,0.269393954733333,0.1762359294,0.228084236066667,0.1941187054,0.149635694733333,0.0559746014,0.126875710066667,0.154454145,0.200460898333333,0.284357123666667,0.300651626733333,0.2370583274,0.1485292174,0.0391878640666667,0.114834075866667,0.0402861138666667,0.0347414225333333,-0.0240501067333333,0.0137839339333333,0.0453465746,0.0240904287333333,0.133768468066667,0.400627521866667,0.3805665212,0.264702915866667,0.109679402066667,0.289555512066667,0.306227310733333,0.155785954733333,0.257348868066667,0.3449520414,0.510519468066667,2397,"DG_s12",-0.703,0,0.75,0.75,10,18,10,10,0.75,"Right",10,18,8,8,0,8,0,-8,"Disadvent",0,8,10,10,10,18
"5",1,"RIN3-RIN4",-0.00271332693333334,-0.0407658036,-0.200677161733333,-0.226424531733333,-0.172092005733333,-0.147549820933333,-0.151108566933333,-0.263133118933333,-0.145063012266667,0.0605561448,0.0852401994666667,-0.0213162072,-0.110486464933333,0.0882021870666667,0.222755367066667,0.193487951733333,0.143488925066667,-0.0802959416,-0.127597716933333,-0.1715174876,-0.00240761760000002,-0.0444278642666667,-0.0223431082666667,-0.0845899462666667,0.0255058537333333,-0.0449582891333334,0.0474421447333333,0.169737764733333,0.1666476756,0.0443690690666667,-0.1146628956,-0.0544117156,0.0320493021333333,-0.0460768532,-0.0824184532,-0.0399149702666667,0.2238031164,0.1213121548,-0.0730353718666667,-0.2238799052,-0.212466376933333,-0.151341396933333,2397,"DG_s12",-0.703,0,0.75,0.75,10,18,10,10,0.75,"Right",10,18,8,8,0,8,0,-8,"Disadvent",0,8,10,10,10,18
"6",1,"RAM5-RAM6",-0.331124732616667,-0.281695249083333,-0.24487493207,-0.223651676736667,-0.0735831936033333,0.00919115866333334,-0.00103972466999999,-0.0990500620033333,-0.192556383336667,-0.255784322936667,-0.196791418936667,-0.166152130936667,-0.103620152003333,-0.10615097067,-0.06044420267,0.0634732839966667,0.16839612533,0.116355966663333,-0.00584313153666666,-0.09714616087,-0.0829476895366667,-0.0889599913366667,-0.17615648427,-0.22032476627,-0.206240772936667,-0.182418700003333,-0.12428287867,-0.0781927320033333,-0.0404810480033333,-0.0629876760033333,-0.133741089336667,-0.192445600936667,-0.20849863587,-0.183343852536667,-0.20027235027,-0.152915466003333,-0.25946280267,-0.122027044003333,-0.198054252003333,-0.0226854713366667,-0.02831642467,-0.03692699507,2397,"DG_s12",-0.703,0,0.75,0.75,10,18,10,10,0.75,"Right",10,18,8,8,0,8,0,-8,"Disadvent",0,8,10,10,10,18
"7",1,"RAM6-RAM7",-0.1202697125,-0.0148658671666667,-0.00949756583333333,-0.00459177183333333,0.0366210835,0.0545419395,-0.0288239371666667,-0.154039660633333,-0.127463585966667,-0.0835130846333333,0.0298296291,-0.0366241135666667,0.0414280131,-0.00103150783333333,-0.00657072383333333,0.0156141881666667,0.1004788655,0.1964169295,0.119208436166667,0.0894318361666667,0.0279235215,-0.0295259985,-0.0354181851666667,-0.0369300285,0.0400060861666667,0.0486881435,0.1913540235,0.252222358833333,0.207663820166667,0.0584686261666667,-0.0101161505,-0.0947422274333333,-0.0980347467666667,-0.1395637901,-0.177685395166667,-0.148347139833333,-0.165427289833333,-0.186066079833333,-0.2182632889,-0.1206363749,-0.0418466929,-0.0487974758333333,2397,"DG_s12",-0.703,0,0.75,0.75,10,18,10,10,0.75,"Right",10,18,8,8,0,8,0,-8,"Disadvent",0,8,10,10,10,18
"8",1,"RAM7-RAM8",-0.0310726923333333,0.028893701,-0.00452836566666667,0.120091771666667,0.058478085,-0.0426507283333333,-0.158074599,-0.111657005666667,-0.144676285666667,-0.0820751223333333,-0.220724468333333,-0.0406160816666667,-0.0224704836666667,0.092017451,-0.091014159,-0.172086153666667,-0.110262836333333,-0.00434488633333333,0.0534006683333333,0.0504248956666667,-0.0451438836666667,-0.018817305,-0.227939385,-0.179733625666667,-0.111937312826667,0.0559584011733333,0.0467025805066667,-0.0246723743333333,0.0606036183333333,0.161567565666667,0.141634715666667,0.0416945956666667,-0.133350271,-0.134230225666667,-0.183199672333333,-0.173071591,-0.181798313666667,-0.221343100333333,-0.123864161666667,-0.141361716733333,-0.0324860947333333,-0.0461366247333333,2397,"DG_s12",-0.703,0,0.75,0.75,10,18,10,10,0.75,"Right",10,18,8,8,0,8,0,-8,"Disadvent",0,8,10,10,10,18
"9",1,"LOF4-LOF5",-0.108425708533333,-0.207526749866667,-0.214496326533333,-0.246660224,-0.354104311333333,-0.158830068,-0.0765624826666667,0.096923188,-0.056680242,-0.0676130146666667,-0.151556846666667,-0.060544352,-0.148395828666667,-0.129340398666667,-0.157851708,-0.112942918,-0.032409974,-0.056805084,0.00229290933333332,-0.0525801706666667,-0.00749047466666666,-0.0206509166666667,-0.152566354,-0.123454847266667,-0.0856376612666667,-0.0280033479333333,-0.0915453786666667,-0.101662368666667,0.0145040993333333,-0.03283509,-0.204412510666667,-0.313436091333333,-0.198194634666667,-0.077470422,-0.140878446666667,-0.170277448666667,-0.157647341333333,-0.0625730393333333,-0.0137845133333333,-0.0673845865333333,-0.00590119120000002,-0.1158019552,2397,"DG_s12",-0.703,0,0.75,0.75,10,18,10,10,0.75,"Right",10,18,8,8,0,8,0,-8,"Disadvent",0,8,10,10,10,18
"10",1,"LOF5-LOF6",0.0214074998333333,0.0645642031666667,0.0397203911666667,-0.0506867688333333,-0.0572989015,-0.0671027621666667,-0.0447266208333333,-0.0602598365666667,-0.0297691744333333,0.0752064462333333,0.0987705979666667,0.114005055833333,0.111822133833333,0.136793193833333,0.185595711166667,0.151720119833333,0.173487933833333,0.115686886233333,0.1182240509,0.0761070189,-0.0393605481666667,-0.0694148675,-0.0726953988333333,0.0612397451666667,0.0180724411666667,-0.0830153028333333,-0.1332391135,-0.0450351681666667,0.00587881116666666,0.0104504837,0.0106612337,0.0745829537,0.0610453441666667,0.0360052075,0.108580588166667,0.181363165166667,0.183060887166667,0.0776669565,0.128868229833333,0.2002969125,0.154052619166667,0.114654365833333,2397,"DG_s12",-0.703,0,0.75,0.75,10,18,10,10,0.75,"Right",10,18,8,8,0,8,0,-8,"Disadvent",0,8,10,10,10,18
"11",2,"RIN1-RIN2",-0.00993508623333333,-0.0952955907666667,-0.0797152747666667,-0.0299257107666667,-0.0293064841,-0.0375467107666667,-0.0355878894333333,0.0421797965666667,0.1129760679,0.1010792899,0.145051016566667,0.0244065235666667,0.106989549566667,0.145502137566667,0.135027461233333,0.141290021233333,0.0511010605666667,0.0993493392333333,0.0883470725666667,0.1388956259,0.188022173233333,0.1035280639,0.0586772305666667,0.156925496366667,0.164898977033333,0.112586770366667,-0.100371076766667,-0.189401934766667,-0.118711540766667,-0.0530522523666667,0.0755549276333333,0.0540944557,0.0218608446333333,0.0358519146333333,0.0242165259,0.0537947051,-0.0778822182333333,-0.0405159262333333,-0.0762959681,-0.006442697546,-0.0184059562126667,0.0931553171206667,2398,"DG_s12",1.75,2.453,3.375,3.375,12,12,10,10,0.922,"Left",12,12,0,0,0,0,0,0,"Equal",2,2,12,10,12,10
"12",2,"RAM5-RAM6",0.0479862521666667,0.139707844833333,0.0528629995,-0.0169708607666667,0.0432176792333333,0.173127657233333,0.208265862833333,0.0537948755,-0.151463530246667,-0.125106586913333,-0.182347380246667,-0.208910067166667,-0.268395191166667,-0.124628761833333,-0.1521958285,-0.189782808566667,-0.275383926546667,-0.150878671213333,-0.08796062848,0.0107896161666667,-0.0998737125,-0.1549133885,-0.280615795166667,-0.119552485833333,-0.0475932338333333,-0.0981894691666667,-0.2196315785,-0.356119889833333,-0.300975263166667,-0.2617428965,-0.0597859498333333,0.113806356833333,0.322148950166667,0.349301636833333,0.259149528833333,0.0436258908333333,-0.0600988031666667,-0.114973413833333,-0.0199111965,-0.0111372091666667,0.0846545361666667,0.0028175035,2398,"DG_s12",1.75,2.453,3.375,3.375,12,12,10,10,0.922,"Left",12,12,0,0,0,0,0,0,"Equal",2,2,12,10,12,10
"13",2,"LOF3-LOF4",-0.206764359833333,-0.0637181765,0.000392386166666703,-0.0158941351666667,0.0142806715,0.0633884608333333,0.00213838283333334,-0.0828762031666666,-0.2728255765,-0.3000146105,-0.3022941345,-0.0827701878333333,0.0298561521666667,0.0232947488333334,-0.143590159433333,-0.201924672766667,-0.246425462766667,-0.232878311166667,-0.219950117833333,-0.158570547166667,0.159476334833333,0.2094219915,0.1669040175,-0.1219896205,-0.2995897105,-0.350422495233333,-0.343466343233333,-0.225607363233333,-0.2131297825,-0.1263652005,-0.0664872525,-0.0312245751666667,-0.122138693166667,-0.179150091166667,-0.220740671166667,-0.1462948745,0.155268522166667,0.119268676833333,-0.0295699765,-0.448140103166667,-0.4207267253,-0.2198517053,2398,"DG_s12",1.75,2.453,3.375,3.375,12,12,10,10,0.922,"Left",12,12,0,0,0,0,0,0,"Equal",2,2,12,10,12,10
"14",2,"RIN3-RIN4",-0.17707902075,-0.220528880083333,-0.335165113416667,-0.172155484083333,-0.20699429475,-0.13324603475,-0.20864291475,-0.08291331675,0.0183390965833333,0.00797329525000001,0.0428556719166667,0.14413252525,-0.00755580675,-0.07991783875,-0.300533758083333,-0.15522782075,-0.0791883234166667,-0.0268980280833333,0.01644850125,-0.0622427900833333,0.0544761739166667,0.0884076739166667,0.08987387725,0.04358683725,-0.0486709234166667,-0.150863778083333,-0.185723892083333,-0.29609496475,-0.21982396475,-0.262094800083333,-0.123062817416667,-0.0720157440833333,-0.00251472275,-0.0710009434166667,0.00189056991666667,-0.00527346208333332,-0.0201914440833333,-0.10072499075,-0.0776080774166667,0.00311322591666668,0.08010943925,-0.0192715688833333,2398,"DG_s12",1.75,2.453,3.375,3.375,12,12,10,10,0.922,"Left",12,12,0,0,0,0,0,0,"Equal",2,2,12,10,12,10
"15",2,"LIN1-LIN2",0.0368178262333333,0.0112830784333333,0.1495579431,0.322173719033333,0.390543554833333,0.284744114833333,0.199947088166667,0.1404302755,0.0942763295,0.0120522321666667,-0.0446020258333333,-0.0544566425,-0.168593945833333,-0.0206380618333333,0.0570305908333333,0.0701180824,-0.0265346322666667,0.0627447844,0.2512218535,0.240384682166667,0.0402201021666667,-0.123204831166667,-0.0691505845,0.0318072281666667,0.131430150166667,0.165229098833333,0.106390392833333,-0.000525581233333336,-0.0793975572333333,-0.0412137485666667,-0.0190617498333333,-0.0971207451666667,-0.0858919625,-0.126031723833333,-0.0116249431666667,-0.0872454971666667,-0.0539810735,-0.0206347388333333,-0.0314105541666667,0.0242244301666667,-0.0429644865,0.0187410388333333,2398,"DG_s12",1.75,2.453,3.375,3.375,12,12,10,10,0.922,"Left",12,12,0,0,0,0,0,0,"Equal",2,2,12,10,12,10
"16",2,"RAM6-RAM7",-0.0593309869,-0.0565753969,-0.105227389766667,-0.1417462431,-0.0753828811,0.0194919122333333,0.0175906589,-0.0863509724333333,-0.1180566671,-0.0439943537666667,-0.0357421782333333,-0.0533758409,-0.1115561781,-0.0508291863,-0.0690988956333333,0.0880171815666667,0.0346770415666667,0.1445358329,0.1190703529,0.244013486233333,0.2352993469,0.2625703949,0.0942824062333333,0.103836567566667,0.0419838195666667,0.0937018715666667,-0.0523721751,-0.1557323851,-0.180898426966667,-0.1303332503,-0.00353602496666667,0.0142107002333333,0.0966314102333333,0.0053330797,0.0272561917,-0.0739836729666667,-0.0890737611,-0.150904301766667,-0.0384680437666667,-0.0065483211,0.0593898609,0.0573390875666667,2398,"DG_s12",1.75,2.453,3.375,3.375,12,12,10,10,0.922,"Left",12,12,0,0,0,0,0,0,"Equal",2,2,12,10,12,10
"17",2,"RIN2-RIN3",-0.0417689945666667,-0.1061634925,-0.0592095019,-0.0146419545666667,0.0136719701,-0.0680274857666667,-0.170674338433333,-0.1921393069,-0.106343297633333,-0.152275388966667,-0.0954949671666667,-0.141604101433333,0.0831095685666667,0.0900529339,0.0321227881666667,0.0251526348333333,0.0491583635,-0.0135005085,-0.153749361833333,-0.1824789185,-0.0956932658333333,-0.0999937051666667,-0.0973019498333333,0.00500821949999999,-0.06878027728,-0.140885848346667,-0.282754596346667,-0.340593920233333,-0.306333647166667,-0.2527025865,-0.126455127566667,-0.0864422302333333,-0.0418654855666667,-0.00377209743333334,0.0474427919,0.114260601233333,0.1059956829,0.0775690495666667,-0.156878608166667,-0.232727603566667,-0.286454003566667,-0.171803471166667,2398,"DG_s12",1.75,2.453,3.375,3.375,12,12,10,10,0.922,"Left",12,12,0,0,0,0,0,0,"Equal",2,2,12,10,12,10
"18",2,"LOF4-LOF5",0.1955732079,0.1379275449,0.0395074689,-0.0365446924333333,-0.124686939766667,-0.1792458791,-0.176097719766667,-0.2488221339,-0.150558026566667,-0.00715213923333333,0.0514699015666667,0.0686336169,-0.0443396731,-0.0699726077666667,-0.133130654433333,-0.197458549766667,-0.220611268433333,-0.0534060151,0.0187297182333333,0.124802716566667,0.192534720566667,0.1577346966,0.1032039636,-0.0736128764,-0.0852100317666667,-0.156460389766667,-0.225466769766667,-0.1381754611,-0.0437723551,0.0279737715666667,-0.0426113757666667,-0.0916791937666667,-0.1444079671,-0.100242499766667,-0.154712009766667,-0.155919083766667,-0.134401330433333,-0.0022742491,-0.0524918664333333,-0.1341671971,-0.1765009911,-0.0895265931,2398,"DG_s12",1.75,2.453,3.375,3.375,12,12,10,10,0.922,"Left",12,12,0,0,0,0,0,0,"Equal",2,2,12,10,12,10
"19",2,"RAM7-RAM8",-0.0173782729666667,0.0380000203666667,0.00197279536666667,0.0598099280333333,0.0585637413666667,0.0551694458333333,0.0219170491666667,0.0017452465,0.0593386365,0.0260195885,0.0317191965,-0.1004706515,0.0300377818333333,0.0193376231666667,0.1108882045,0.450669477833333,0.406881321166667,0.2739708767,-0.2199641233,-0.2847763533,-0.1203958955,-0.0404307828333333,0.0153239118333333,-0.0170006649,-0.0063327709,0.0363410264333333,0.0444533940333333,0.0386598740333333,-0.00174102076666666,-0.0142022323,0.000230742366666668,0.0753389365,0.0933944118333333,0.0765550638333334,-0.102216120833333,-0.129674138833333,-0.121828478833333,0.1034184125,0.160907853166667,0.100028943833333,0.0187580991666667,0.164808961833333,2398,"DG_s12",1.75,2.453,3.375,3.375,12,12,10,10,0.922,"Left",12,12,0,0,0,0,0,0,"Equal",2,2,12,10,12,10
"20",2,"LOF5-LOF6",0.204326010616667,0.242671446616667,0.240949646616667,0.143900553083333,0.117749584416667,0.13832362575,0.175057365083333,0.199375267216667,0.31076296055,0.247573653216667,0.314486266416667,0.25642040475,0.25650144675,0.123838719416667,-0.0307116929166667,0.113970380416667,0.157368386416667,0.343959816416667,0.196989448416667,0.19291380975,0.190243521083333,0.298544645083333,0.34319301975,0.235958450416667,0.19469224975,0.14309800175,0.12364936975,0.155097473083333,0.214245682416667,0.210869586416667,0.0883715664166667,-0.01655407625,-0.00133748825,0.0145789344166667,0.135056143816667,0.261016452483333,0.345313381816667,0.384290732416667,0.197511372416667,0.11362664175,-0.0829257849166667,-0.04325574143,2398,"DG_s12",1.75,2.453,3.375,3.375,12,12,10,10,0.922,"Left",12,12,0,0,0,0,0,0,"Equal",2,2,12,10,12,10
"21",3,"LOF3-LOF4",-0.0534071397333333,-0.0225436278,-0.0547922824666667,-0.0402834053333333,-0.0670764966666667,0.041308238,0.0843353646666667,0.11735133,0.139929268666667,0.187873755333333,0.19283323,0.213637176666667,0.214996076666667,0.172601076,0.086321902,0.0583201626666667,0.213406032666667,0.139571666666667,0.0478356233333333,-0.049492456,0.0748833,0.213008582666667,0.145543298666667,0.172392113333333,-0.0132000286666667,0.067210984,-0.0922147286666667,0.05268034,0.050080746,0.379488646666667,0.246932114,0.167679187866667,-0.0704094588,-0.102465479466667,0.0423638666666667,0.0826265466666667,0.0803339804,0.0441060070666667,-0.0747512044666667,0.0728037577333333,0.0553957677333333,0.0855407859333333,2399,"DG_s12",4.375,5.078,5.969,5.984,10,10,8,8,0.891,"Left",8,8,0,0,0,0,0,0,"10-10",2,2,10,8,10,8
"22",3,"RIN3-RIN4",0.0626196966666667,-0.0642711546666667,0.0282750173333333,-0.00932006333333334,0.0195785546666667,0.0632830213333333,0.135438178,0.10087424,-0.0508967028,-0.00605168213333333,0.0751838958666667,0.0422297253333333,-0.009419652,-0.120294045333333,-0.114696822666667,-0.208659512,-0.204633114666667,-0.119841876666667,-0.0139043566666667,0.0548598326666667,0.016132784,0.0278666573333333,-0.00240010733333335,-0.0660368036666667,-0.087806713,-0.0294043816666667,0.0333501995333333,0.0132078122,-0.0353396198,-0.135284103333333,-0.204744859733333,-0.232633146466667,-0.0846647998,0.0245724032666667,0.041339302,0.0539415686666667,-0.0542605766666667,-0.01100317,-0.150983016666667,-0.0353431946666667,0.062655446,0.186444294666667,2399,"DG_s12",4.375,5.078,5.969,5.984,10,10,8,8,0.891,"Left",8,8,0,0,0,0,0,0,"10-10",2,2,10,8,10,8
"23",3,"LIN1-LIN2",0.121738956833333,0.2060451215,0.0656608675,0.156450412833333,0.280567548166667,0.456125654166667,0.486597272166667,0.518562070166667,0.4482518155,0.385563682166667,0.230492222166667,0.2191413975,0.1882907607,0.246486736033333,0.317605655366667,0.331312706833333,0.1792454935,0.0542375468333333,0.0205970388333333,-0.00627239449999999,-0.0806095878333333,-0.2128385945,-0.0984539278333333,-0.0273065366333333,0.1662940647,0.162447451366667,0.2325414895,0.148537556166667,0.2220677895,0.279219226833333,0.339806008166667,0.2533463517,0.116881363033333,0.0214510403666667,-0.0133492625,-0.0382857725,0.0941392075,0.209048014833333,0.323134452166667,0.300977266166667,0.148441178166667,0.0411551168333333,2399,"DG_s12",4.375,5.078,5.969,5.984,10,10,8,8,0.891,"Left",8,8,0,0,0,0,0,0,"10-10",2,2,10,8,10,8
"24",3,"RIN2-RIN3",-0.0169588963333333,0.08137835548,0.195221324813333,0.252890952146667,0.172509273666667,0.161459283666667,0.0579693023333333,-0.0701287456666667,-0.167396651,-0.165887125666667,-0.126914570066667,-0.0371654780666667,-0.0360825387333333,0.0257601406666667,-0.0915598333333333,-0.049642674,0.012008134,0.0403242353333333,-0.0190273521333333,-0.0928619131333333,-0.107121214466667,0.031685371,0.044904835,0.0234003176666667,-0.150637754333333,-0.167768894333333,-0.146125624333333,-0.064994369,0.0204714463333333,0.0841695676666667,0.0839829956666667,-0.009610497,-0.0642004216666667,-0.0392572430333333,-0.0448565570333333,-0.0324173877,-0.0705781303333333,-0.087433323,-0.116702057,-0.1434119084,-0.202161809066667,-0.0736000797333333,2399,"DG_s12",4.375,5.078,5.969,5.984,10,10,8,8,0.891,"Left",8,8,0,0,0,0,0,0,"10-10",2,2,10,8,10,8
"25",3,"RAM6-RAM7",0.0893712013,0.156181940633333,0.121185253966667,0.114922325166667,0.0580742818333333,0.0380124831666667,0.1299701305,0.1640364945,0.215960171166667,-0.00434428216666666,-0.1395451535,-0.249970742166667,-0.153666708833333,-0.0587972241666667,-0.0120427955,-0.0880964488333333,-0.0651937248333333,-0.113809760166667,-0.0580660955,-0.00801958883333333,-0.0583102355,-0.0891440181666667,-0.174833634833333,-0.124420010166667,-0.0943231521666667,-0.0922939807,-0.0270486867,0.0503084799666667,-0.0324035445,-0.0639002578333333,-0.196026551166667,-0.0531439255,-0.130260178166667,0.000889488500000007,-0.0486814715,-0.0553253668333333,-0.129536534833333,-0.1642869715,-0.0897239723666667,-0.120394704366667,-0.0697831543666667,-0.0897519821666667,2399,"DG_s12",4.375,5.078,5.969,5.984,10,10,8,8,0.891,"Left",8,8,0,0,0,0,0,0,"10-10",2,2,10,8,10,8
"26",3,"RAM7-RAM8",0.187519046,0.355240547333333,0.275626254666667,0.107363427466667,-0.0249643232,-0.0792698145333333,0.0213613326666667,0.150973735333333,0.209710382,0.225469948666667,0.221593216533333,0.2668542272,0.167808590533333,-0.0233398106666667,0.00203396933333333,0.006849094,0.0646557786666667,0.0649884084666667,0.0658750471333333,0.102056269133333,0.096598524,0.0545903846666667,0.0554989778666667,-0.0606249534666667,-0.0762604608,-0.058685764,0.056370704,0.119429400666667,0.126128810666667,0.179955424666667,0.267938514666667,0.266813788,0.353800926,0.257149309333333,0.192948577733333,-0.0251102154666667,-0.0631186434666667,0.1829186148,0.2734904282,0.3973223262,0.2652769262,0.218081346,2399,"DG_s12",4.375,5.078,5.969,5.984,10,10,8,8,0.891,"Left",8,8,0,0,0,0,0,0,"10-10",2,2,10,8,10,8
"27",3,"LOF4-LOF5",0.104826749461667,0.263943116795,0.224870998795,0.103772490128333,-0.00330345587166667,0.0544025234616667,0.217431961595,0.186045791861667,0.243488161195,0.249772572395,0.157231161461667,0.0422954201283333,-0.0534401725383333,0.108549487461667,0.059288685195,0.116926926528333,0.126326144528333,0.271873904795,0.205064892795,0.071965493395,-0.0790831679383333,-0.059875072605,-0.0842506198716667,-0.00138713987166667,0.064477958795,0.0754841154616667,0.0393431754616667,-0.00468595787166667,0.0992084821283333,0.218381815461667,0.308679784795,0.296851074128333,0.160077392928333,0.0855429649283333,0.158052260928333,0.126878292128333,-0.020404209205,-0.216435315871667,-0.108943679205,0.0854962634616667,0.172657951461667,0.145950233395,2399,"DG_s12",4.375,5.078,5.969,5.984,10,10,8,8,0.891,"Left",8,8,0,0,0,0,0,0,"10-10",2,2,10,8,10,8
"28",3,"LOF5-LOF6",-0.193553756666667,-0.217575449333333,-0.145382173333333,-0.260969516,-0.18065938,-0.172283536666667,-0.107161272666667,-0.164667844666667,-0.288704378,-0.340830357,-0.212281501,-0.0444894309333334,0.0437691900666666,-0.0312613659333333,-0.0463449457333333,-0.0929133557333333,-0.103748971066667,-0.0660478993333334,0.0309311606666667,0.0151661466666667,0.0100776266666667,-0.142944937333333,-0.191459174666667,-0.350280483333333,-0.360536392,-0.444090590666667,-0.363127190666667,-0.238808654666667,-0.0798339226666667,-0.113514602666667,-0.147977026,-0.272793012666667,-0.207023786,-0.130973026,-0.0422558666666667,-0.118556058,-0.324649358,-0.335700351333333,-0.36757647,-0.277171628,-0.263970654,-0.201017630533333,2399,"DG_s12",4.375,5.078,5.969,5.984,10,10,8,8,0.891,"Left",8,8,0,0,0,0,0,0,"10-10",2,2,10,8,10,8
"29",3,"RIN1-RIN2",-0.159425086033333,0.0217750506333333,0.164212096633333,0.2551455793,0.182629563966667,0.1421888773,0.124188670033333,0.0810504707,0.0939691107,0.0682965666333333,0.1040331173,-0.0493971560333333,-0.0980212480333333,-0.123756868033333,-0.0820116013666667,-0.0219655747,-0.0623880440333333,-0.0700411507,-0.0147962200333333,0.00404659996666667,0.0964386066333333,0.0280638155,0.111077970833333,0.0403932601666667,-0.0285594211666667,-0.0889290831666667,-0.102879633833333,-0.0574715160333333,0.0854213039666667,0.1523610263,0.248661376966667,0.1090638903,0.1462175273,0.173923913966667,0.218786329966667,0.0614360186333333,0.00536759263333333,0.00604484063333334,0.141296433966667,0.1547719273,0.0379552299666667,-0.0174870560333333,2399,"DG_s12",4.375,5.078,5.969,5.984,10,10,8,8,0.891,"Left",8,8,0,0,0,0,0,0,"10-10",2,2,10,8,10,8
"30",3,"RAM5-RAM6",-0.00224901693333332,-0.0144447076,-0.0907336801333333,-0.150607890133333,-0.130623367466667,-0.180358580933333,-0.198168746933333,-0.2493737116,-0.253979898933333,-0.2641452196,-0.1849174896,-0.237640938933333,-0.185384028266667,-0.25833204534,-0.245461480006667,-0.26938352734,-0.0930656529333333,0.0031516644,0.0599902516,-0.0866768890666667,-0.161669709066667,-0.2675285796,-0.1516418796,-0.0393590822666667,-0.0529138089333333,-0.112264962266667,-0.2927194776,-0.3089949976,-0.3819689176,-0.317532896266667,-0.284868702933333,-0.2631385896,-0.1721626036,-0.2467785636,-0.305059716266667,-0.399408958933333,-0.3106087856,-0.1687046836,-0.1412941236,-0.129878074266667,-0.260572495153333,-0.247310474486667,2399,"DG_s12",4.375,5.078,5.969,5.984,10,10,8,8,0.891,"Left",8,8,0,0,0,0,0,0,"10-10",2,2,10,8,10,8
"31",4,"LOF3-LOF4",-0.0224719993333333,-0.088816396,-0.214380206,-0.178413239333333,-0.170303944666667,-0.157411374666667,-0.226897970593333,-0.10306681326,-0.03896069126,-0.0773350553333333,-0.112690782,0.0129599313333333,0.101636035333333,0.090180682,-0.0807972086666667,0.0213862833333333,-0.0810097566666667,-0.002263344,-0.0575582313333333,-0.140259164666667,-0.247882768666667,-0.305393798466667,-0.181894250466667,-0.1656710758,-0.082468308,-0.05762756,0.0106708408666667,-0.142831617133333,-0.2855255478,-0.311682988666667,-0.226461113933333,-0.133141651933333,-0.101527475266667,-0.0785250353333333,-0.0410448253333333,-0.177126451333333,-0.1390351498,-0.1461408918,-0.0183897604666667,-0.06842941222,-0.110081028886667,-0.215183028886667,2400,"DG_s12",6.984,7.687,8.406,8.406,28,4,10,10,0.719,"Left",28,4,24,24,0,0,-24,24,"Advent",18,-6,28,10,4,10
"32",4,"RIN2-RIN3",0.0749517145,0.0192825171666667,0.0717798325,0.0816049305,0.1627942345,0.2000423365,0.0466950831666667,-0.0147809551666667,-0.0904835358333333,0.0447851015,0.223431847166667,0.2895333845,0.3458970805,0.302166759833333,0.224696287833333,0.1886317345,0.152063801166667,0.1537141013,0.152939027966667,0.0381701439666667,0.0906267191666667,0.230959695166667,0.190901059166667,0.181222113633333,0.1944313503,0.3374505903,0.2673098845,-0.0293301681666667,-0.0713979415,0.0352105018333333,0.162669123166667,0.212011809833333,0.228188377166667,0.396981097166667,0.365835257166667,0.2786160685,0.0075219385,-0.0680573481666667,-0.0521113056333333,0.0950170697,0.0729063270333333,0.1491921065,2400,"DG_s12",6.984,7.687,8.406,8.406,28,4,10,10,0.719,"Left",28,4,24,24,0,0,-24,24,"Advent",18,-6,28,10,4,10
"33",4,"RIN1-RIN2",0.149663128933333,0.134787635666667,0.0326635216666667,0.0144573183333333,-0.018747449,0.0623705135333333,0.0823405268666667,0.154311111533333,0.133252749,0.208359215,0.285822821,0.457949908333333,0.286336181666667,0.217363188333333,0.166033707666667,0.246479823866667,0.230243525866667,0.165878711866667,0.126788063666667,0.197176081666667,0.237711789,0.332009717666667,0.142810004333333,0.130289272333333,0.153216029666667,0.340023003666667,0.317989058333333,0.162812445666667,0.239144411666667,0.287519495666667,0.376575777,0.228663381,0.220140011666667,0.327662409666667,0.289499604333333,0.268093380333333,0.164813504333333,0.223767139,0.2178145054,0.2147646814,0.295196148066667,0.246917503666667,2400,"DG_s12",6.984,7.687,8.406,8.406,28,4,10,10,0.719,"Left",28,4,24,24,0,0,-24,24,"Advent",18,-6,28,10,4,10
"34",4,"LIN1-LIN2",0.160948762233333,0.243356750833333,0.325027830833333,0.363325264766667,0.2594444381,0.2057742981,0.2045898835,0.267139578833333,0.2458949255,0.169801204166667,0.253366928833333,0.2126416535,0.198427705233333,0.184757398566667,0.190669090566667,0.3086971415,0.164832252166667,0.123502226166667,-0.0522045405,0.0897141021666667,0.151942536166667,0.261644824833333,0.244960700833333,0.194046224833333,0.292025116166667,0.236640016166667,0.2076563021,0.0635620494333333,0.0906548999666667,0.198962245366667,0.176604437366667,0.144940517966667,0.1242338913,0.0732946706333333,0.0293642741666667,-0.0706251631666667,0.0226898395,0.0251072776333333,0.00640773896666666,-0.0332537351666667,0.0362141167,0.00535443403333333,2400,"DG_s12",6.984,7.687,8.406,8.406,28,4,10,10,0.719,"Left",28,4,24,24,0,0,-24,24,"Advent",18,-6,28,10,4,10
"35",4,"RAM7-RAM8",0.146400202643333,0.183555702643333,0.29001891875,0.206387852083333,0.168898845416667,0.01858073875,0.154375645416667,0.237572777416667,0.400385029416667,0.266545156083333,0.225706146083333,0.0894192894166667,-0.00554103725,-0.0699580825833333,-0.11610158925,0.10176201075,0.333357047416667,0.488625008083333,0.367602228083333,0.174052254083333,0.0556979816713333,0.0599910750046667,0.015147844338,0.09458110075,0.0884829194166667,0.0737391256833333,0.00410741768333333,-0.0309741549833333,0.01317073675,0.00762705075,-0.0377106499166667,-0.0298601099166667,-0.0749149165833333,-0.00276679458333333,0.11355123875,0.292535169416667,0.292284571416667,0.139768858083333,-0.00772962725,0.00777096675,-0.0187507805833333,-0.0332999893166667,2400,"DG_s12",6.984,7.687,8.406,8.406,28,4,10,10,0.719,"Left",28,4,24,24,0,0,-24,24,"Advent",18,-6,28,10,4,10
"36",4,"RAM5-RAM6",0.0410561111833333,0.0531527411833333,0.0184124265166667,0.0483399765166667,0.0794897831833333,0.104967994843333,0.02199823951,-0.0690899891566667,-0.0695000628166667,0.0189153993833333,-0.0252347292833333,-0.000664815683333334,-0.01491851655,0.04286271745,0.0565945471833333,0.02275267185,0.0828406685166667,0.0570285751833333,0.0236909511833333,0.0636743011833333,0.12157357985,0.176277263183333,-0.00983862015,0.0158614091833333,-0.01187729615,0.00961752385,-0.12607098415,-0.09046996015,-0.0968571614833333,-0.0818113768166667,-0.0552965874833333,0.02075566585,0.0780842191833333,0.0295256591833333,0.0284090511833333,0.0828564381833333,0.178232751516667,0.25056152285,0.233960624516667,0.37553633785,0.276812164516667,0.302732731183333,2400,"DG_s12",6.984,7.687,8.406,8.406,28,4,10,10,0.719,"Left",28,4,24,24,0,0,-24,24,"Advent",18,-6,28,10,4,10
"37",4,"RAM6-RAM7",-0.108262434666667,-0.0540702266666667,0.0585748312666667,0.0835952179333333,-0.0193812320666667,-0.071406582,0.0378539293333333,0.121133044,0.148851584666667,0.132716652666667,0.159988154666667,0.14552523,0.0765270446666667,0.050324878,0.136885161333333,0.17753977,0.187376266666667,0.0796320126666667,0.0459833613333333,0.00915416133333333,-0.0122785853333333,0.063328976,0.045482832,0.0649199473333333,0.007172454,-0.0131732513333333,-0.0106296866666667,-0.0126936773333333,0.0720509486666667,0.0933751953333333,0.0883993246666667,0.0811300733333333,-0.0160490566666667,-0.0551530893333333,-0.102632926933333,-0.0110109569333333,0.1055007244,0.148279005333333,0.0219083453333333,0.082834984,0.0330007796666667,0.0552628996666667,2400,"DG_s12",6.984,7.687,8.406,8.406,28,4,10,10,0.719,"Left",28,4,24,24,0,0,-24,24,"Advent",18,-6,28,10,4,10
"38",4,"LOF5-LOF6",0.0563744698333333,0.143237623166667,0.0801171231666667,0.206933823166667,0.2048673221,0.353323487433333,0.425956884766667,0.3956873045,0.2718158525,-0.0160229448333333,-0.1388025015,-0.146734050833333,-0.0299271575,0.0157059025,-0.0196837215,-0.107010188166667,-0.123601290166667,-0.102183912486667,-0.0755164731533333,-0.000387999819999998,-0.0748666841666667,-0.0704477321666667,-0.0594701321666667,-0.0384533181666667,0.0700667305,0.119574337166667,0.1946262585,0.150056845166667,0.1059348545,0.1113885865,0.138041577166667,-0.0182774321666667,-0.0910627268333333,-0.0737983315,0.0675415965,0.170051023833333,0.190168367166667,0.146337347833333,0.106421685833333,0.1009947765,0.1010969765,0.1299897985,2400,"DG_s12",6.984,7.687,8.406,8.406,28,4,10,10,0.719,"Left",28,4,24,24,0,0,-24,24,"Advent",18,-6,28,10,4,10
"39",4,"LOF4-LOF5",0.0806840710666667,0.100782793733333,0.0233827770666667,0.0108454876666667,0.0303958156666667,0.0353409303333333,-0.0164653796666667,0.004598785,-0.030317811,0.020226235,0.0226547723333333,0.0746464336666667,0.0380362816666667,-0.004675897,0.0634627096666667,0.0725491215333333,0.00671856486666667,-0.0828333411333333,-0.076540257,-0.0344073963333333,-0.0860290903333333,-0.0329777503333333,-0.038587071,-0.0349250681333333,-0.132837036133333,-0.162762064133333,-0.0545666623333333,0.134965865666667,0.181789885,0.108920630333333,-0.0176947923333333,-0.0499039816666667,0.075553655,0.122646120333333,0.076804457,-0.044726125,-0.0118066543333333,0.0717854276666667,0.0515085196666667,-0.000264853666666667,-0.0474779363333333,-0.009969191,2400,"DG_s12",6.984,7.687,8.406,8.406,28,4,10,10,0.719,"Left",28,4,24,24,0,0,-24,24,"Advent",18,-6,28,10,4,10
"40",4,"RIN3-RIN4",0.0948106173333333,0.125887281333333,0.261363453333333,0.297773328666667,0.399615782666667,0.356668772666667,0.3302113358,0.1459023698,0.1271661518,0.093283122,0.153269638133333,0.1448533688,0.176824137466667,0.10686928,0.0514873293333333,-0.00914986599999999,0.0216867716,-0.0222202924,0.0308674142666667,0.0132639173333333,0.0891109693333333,0.169614173066667,0.1784755164,0.260581359733333,0.1458260918,0.0425882484666667,-0.0542827894,-0.1125546452,0.000829294800000005,0.0169446684,0.116674105733333,0.112667865733333,0.12676591,0.169236339333333,0.321717039333333,0.40221303,0.428037870666667,0.121260284,0.0622873426666667,-0.140724271333333,0.00752982786666667,-0.0143132971333333,2400,"DG_s12",6.984,7.687,8.406,8.406,28,4,10,10,0.719,"Left",28,4,24,24,0,0,-24,24,"Advent",18,-6,28,10,4,10
"41",5,"LOF5-LOF6",-0.0171751958333333,0.0371977521666667,0.167216894166667,0.117299494166667,-0.0378845391666667,-0.108876893833333,-0.0810503438333333,0.0916362828333333,0.206083508833333,0.158703298833333,0.0405740521666667,-0.1420185605,-0.166247249833333,-0.132841771833333,-0.00459569916666666,0.0570484641666667,0.0190660541666667,-0.00339353583333334,-0.131110803833333,-0.0230739445,0.0357190041666667,0.167101542833333,0.0935897441666667,-0.0524732711666667,-0.157679611833333,-0.1654083545,-0.170548950233333,-0.0646106395666667,0.0668513811,0.0212754201666667,0.0919061855,0.0553191188333333,0.0880923088333333,-0.0648811831666667,-0.0910998698333333,0.0464543622333333,0.220706321566667,0.144472746233333,0.1357257575,-0.0551005765,0.0481681055,0.0341960541666667,2401,"DG_s12",9.406,10.109,10.765,10.765,22,6,10,10,0.656,"Right",22,6,16,16,0,0,-16,16,"Advent",12,-4,10,22,10,6
"42",5,"LOF3-LOF4",-0.0703950175,0.0070740925,-0.00393210350000001,-0.0886785428333333,-0.124801966166667,-0.1537108395,-0.0606022848333333,-0.0601063255,-0.0738615748333333,-0.0714481415,-0.0830912390333333,-0.0213893023666667,-0.140696569033333,-0.1764813975,-0.137106568166667,-0.0623228388333333,-0.0177131352133333,-0.121960359213333,-0.0733838125466667,-0.0984311341666667,-0.0646468215,-0.117246148833333,-0.0955085088333333,-0.110179112833333,-0.0489677981666667,0.0111252374333333,0.00194812409999999,-0.0696577232333333,-0.1195581335,-0.08628246064,-0.0945810299733333,-0.0923344099733333,-0.172605506833333,-0.105912120166667,0.0731459858333333,0.109853401833333,0.0674303985,-0.1538002575,-0.0359070078333333,0.0266220021666667,0.0724170708333333,0.0353425455666667,2401,"DG_s12",9.406,10.109,10.765,10.765,22,6,10,10,0.656,"Right",22,6,16,16,0,0,-16,16,"Advent",12,-4,10,22,10,6
"43",5,"LOF4-LOF5",0.039624948,0.238860954666667,0.308710288,0.229059112666667,0.0831776273333333,-0.079153746,0.00744757666666666,0.0435919633333333,0.140167723333333,0.057489694,0.03183753738,-0.10809445862,-0.0642207259533333,-0.0999318366666667,-0.0604874253333333,-0.140902618,-0.0999530504666667,-0.1422884158,-0.0908750522,0.0313908008,0.0608873081333333,0.0467342512,-0.157625676666667,-0.0788405606666667,-0.01859801,0.127011054,0.091974816,0.0229305493333333,-0.0751925846666667,-0.126868093333333,-0.0830657526666667,-0.0464942553333333,0.0781569046666667,0.0188642106666667,0.118443381333333,0.111122077333333,0.251613029733333,0.114519017066667,0.0637845957333333,0.0273194650666667,0.0880164910666667,-0.0165464716,2401,"DG_s12",9.406,10.109,10.765,10.765,22,6,10,10,0.656,"Right",22,6,16,16,0,0,-16,16,"Advent",12,-4,10,22,10,6
"44",5,"LIN1-LIN2",-0.0163950073166667,-0.0502315457166667,0.0873006422833333,0.09509116495,0.161057530683333,0.125312672683333,0.200449508683333,0.268741464016667,0.42417435935,0.481783492016667,0.345330114016667,0.25063118135,0.20460406935,0.302589950016667,0.12762674535,0.0337631906833333,-0.0611787139833333,0.0135681246833333,0.104445458016667,0.136367062016667,0.129010024016667,0.189868283483333,0.21543785615,0.16508136235,0.07973293755,0.09822606955,0.20349388935,0.231292322016667,0.168379114016667,0.155452854016667,0.141338904683333,0.17002389535,0.23663621735,0.0946599126833333,0.170693198683333,0.194502136683333,0.268851390016667,0.182482562016667,0.0468101650166667,0.07154859435,-0.0270580949833333,0.0363795686833333,2401,"DG_s12",9.406,10.109,10.765,10.765,22,6,10,10,0.656,"Right",22,6,16,16,0,0,-16,16,"Advent",12,-4,10,22,10,6
"45",5,"RIN3-RIN4",-0.01658876625,-0.00390574478333333,0.05760458055,0.118703731883333,0.142897203016667,0.0141084850166667,0.00795075168333334,0.00650435835,0.0958803662166667,-0.05984678045,-0.0965978157833333,-0.000451556983333323,0.06435693235,0.12678325435,0.0851120876833334,0.166135977683333,0.147967171016667,0.13117760341,0.0332794267433333,0.06366041341,0.0991690328833334,0.16470524355,0.07222467755,0.153700981016667,0.176984987683333,0.268346633683333,0.18499495835,0.16873321835,0.137944051683333,0.0700606450166667,0.0970034450166667,-0.01555888165,0.0282771916833333,-0.100441243183333,-0.05503964785,-0.0277001325166667,0.0156511636833333,-0.01914803165,-0.167320126983333,-0.219948380983333,-0.144394092983333,-0.17210998965,2401,"DG_s12",9.406,10.109,10.765,10.765,22,6,10,10,0.656,"Right",22,6,16,16,0,0,-16,16,"Advent",12,-4,10,22,10,6
"46",5,"RIN1-RIN2",0.0328978407633333,0.0582549748966667,0.17129563623,0.168474627696667,0.149041467696667,0.0340451156966667,0.0321038644966667,0.0703459491633333,0.10691940783,0.130379082896667,0.05913089023,0.03549194623,-0.0149532911033333,-0.00230152910333333,0.02073950023,0.118779750896667,0.179974586896667,0.144108258896667,0.04453719223,0.00297980023,0.18845732623,0.331683508896667,0.398513068896667,0.229033251563333,0.13056934223,0.0913883747633333,0.269081392096667,0.303252984096667,0.285382502896667,0.216126262896667,0.143494090896667,0.0548161595633333,-0.07354668577,-0.0421552384366667,0.109867430896667,0.18696090823,0.22979985223,0.135939595563333,0.0293531688966667,0.05549366823,0.133404652896667,0.123737800896667,2401,"DG_s12",9.406,10.109,10.765,10.765,22,6,10,10,0.656,"Right",22,6,16,16,0,0,-16,16,"Advent",12,-4,10,22,10,6
"47",5,"RAM6-RAM7",-0.0696183653216667,-0.00145687532166667,0.0794083646783333,0.0732493220116667,0.050400683345,0.00548581601166667,0.004254125345,-0.0804240019883333,-0.0497926923216667,-0.0567093983216667,0.0600321390116667,0.036672107345,-0.0198785393216667,-0.071823270655,-0.022014334655,0.0354254786783333,0.140697200011667,0.0701436446783333,0.0402972080116667,-0.080316898655,-0.0957785643216667,-0.0380221263216667,-0.109749912988333,-0.135557783988333,-0.163955461988333,-0.153224155321667,-0.127616136655,-0.115956697321667,-0.0853208239883333,-0.0780857693216667,-0.175576879321667,-0.212953577988333,-0.0661844659883333,0.0677957200116667,0.132099352945,-0.031203095055,-0.0930676909216667,-0.147623998521667,-0.126851723855,-0.0338284953216667,0.0955749886783333,0.166454883811667,2401,"DG_s12",9.406,10.109,10.765,10.765,22,6,10,10,0.656,"Right",22,6,16,16,0,0,-16,16,"Advent",12,-4,10,22,10,6
"48",5,"RIN2-RIN3",-0.1006600644,-0.0483835818666667,-0.0585293358666667,0.1702879872,0.145820384,0.0738305713333333,-0.145594045333333,-0.210489514666667,-0.188771578,-0.224407743333333,-0.136792107333333,-0.155671149333333,0.005987454,0.049362894,0.1286530086,0.0744080499333333,0.0857984246,0.0643773266666667,0.0903697173333333,0.013906124,0.033435328,-0.0416842466666667,-0.00855517253333334,-0.0573053889333333,-0.0347682542666667,-0.109400194266667,0.1309431268,0.230679553466667,0.297224257333333,0.120282838666667,0.106236404666667,0.00888835733333333,-0.0726726273333333,-0.2333548,-0.129951306,-0.094347296,0.0157093106666667,0.0408901153333333,0.0352277533333333,0.0878885533333333,0.0918782613333333,0.075072656,2401,"DG_s12",9.406,10.109,10.765,10.765,22,6,10,10,0.656,"Right",22,6,16,16,0,0,-16,16,"Advent",12,-4,10,22,10,6
"49",5,"RAM5-RAM6",0.0852387055,0.108842238966667,0.2565692083,0.2124475661,0.208293087366667,0.0949990047,0.0635123122333333,0.0878242541666667,0.1471167035,0.3417107135,0.304016524166667,0.2230896775,0.1672761115,0.2893104835,0.420547140833333,0.375635562833333,0.254108160833333,0.162228254166667,0.0706431315,0.0141747495,0.0468883481666666,0.1372390715,0.184117958166667,0.136355232833333,0.129626962833333,0.1416593515,0.232691594233333,0.204206190233333,0.1612718589,0.215543734166667,0.279435598166667,0.323822704166667,0.251380732166667,0.2486560655,0.239076612833333,0.1947832275,0.271280675633333,0.274640221233333,0.264507482166667,0.101841752233333,0.0959261281666667,0.100870693233333,2401,"DG_s12",9.406,10.109,10.765,10.765,22,6,10,10,0.656,"Right",22,6,16,16,0,0,-16,16,"Advent",12,-4,10,22,10,6
"50",5,"RAM7-RAM8",0.0140668821666667,0.0529107441666667,0.0697272301666667,0.0411672168333333,-0.0565156298333333,-0.2022196825,-0.3026363305,-0.274953343166667,-0.1371466105,-0.1538788965,-0.0134890705,-0.0933405631666667,-0.0738539316333333,-0.2544026567,-0.279265845366667,-0.2680981129,-0.2631650025,-0.2664125665,-0.243360947833333,-0.2083339165,-0.0833965198333333,-0.0412870685,-0.0383773178333333,-0.0539543085,-0.0983379071666667,-0.133321559166667,-0.182145465166667,0.0368125801666667,0.132707450166667,0.220378212166667,-0.0406140078333333,-0.0645265451666667,-0.223602291833333,-0.158406017166667,-0.182638539833333,-0.154576481166667,-0.1596622665,-0.184488731833333,-0.0459761818333333,0.0109979167666667,0.0303752221,-0.0585700249666667,2401,"DG_s12",9.406,10.109,10.765,10.765,22,6,10,10,0.656,"Right",22,6,16,16,0,0,-16,16,"Advent",12,-4,10,22,10,6
"51",6,"LOF5-LOF6",0.0305993335333333,0.000113745600000003,-0.00822339973333333,-0.0391758256,-0.00596596566666666,-0.0881455816666667,-0.0220158184666667,0.0056983082,0.127102823533333,0.140936003533333,0.118254957533333,0.119848654866667,0.189743443533333,0.169041285533333,0.0182086842,-0.1169008918,-0.1503615118,0.0159262422,0.0969622962,0.132041655533333,0.143541193533333,0.0698336182,0.0271639762,-0.0633994744666667,-0.0355205301333333,0.00916255186666667,-0.0330470634666667,-0.0166792191333333,0.0321197362,0.0824487148666667,0.1209011342,0.0205969359333333,0.0432427552666667,0.0177798308666667,0.1349014558,0.0253832831333333,0.0464855308666667,-0.0866755464666667,-0.0625304838,-0.1592122478,-0.0213836964666667,-0.0417664791333333,2402,"DG_s12",11.765,12.469,13.094,13.094,30,15,10,10,0.625,"Left",30,15,15,15,0,0,-15,15,"Advent",20,5,30,10,15,10
"52",6,"RIN1-RIN2",-0.0539376200666667,-0.122166026733333,-0.105655969666667,-0.246748075,-0.0865504023333333,0.091082761,0.211767465666667,0.175240683,-0.042107329,-0.069956909,-0.0478123736666667,0.0495000516666667,-0.053158593,-0.0621867776666667,-0.191981403,-0.0276180496666667,0.00633803699999999,0.0160178843333333,-0.155830649,-0.221403320333333,-0.152336071666667,-0.104628751666667,-0.0732035716666667,-0.123293248333333,-0.123620753,-0.233589820333333,-0.305920494333333,-0.235519141,-0.178309386333333,-0.149888849,-0.129547581666667,-0.152161125,0.0229607643333333,0.0929251016666666,0.232711746333333,0.185844326333333,0.113082407,0.023484061,0.00301500099999999,-0.108329393,-0.157476653666667,-0.182336287,2402,"DG_s12",11.765,12.469,13.094,13.094,30,15,10,10,0.625,"Left",30,15,15,15,0,0,-15,15,"Advent",20,5,30,10,15,10
"53",6,"RAM5-RAM6",-0.0300565804966667,0.0863825595033333,0.0803890395033333,0.120519954836667,0.0308463568366667,0.0512866155033333,-0.0350393671633333,0.0398659708366667,-0.04430346383,-0.0442405156966667,-0.02794473303,0.00104135763666667,0.0598775315033333,0.0337752748366667,0.0645906615033333,0.0336851188366667,-0.0263770271633333,0.10537571399,0.19717585999,0.249067849323333,0.240119325236667,0.19299178057,0.161298948103333,0.10336657837,0.0792049337033333,0.0326942148366667,0.000548368169999999,0.0590794055033333,0.0270230912366667,0.187095957903333,0.275225663236667,0.593958402836667,0.998755822836667,2.07204728950333,3.55829417283667,3.30497730617,2.18816046617,0.621542919503333,0.272186792436667,0.131417212436667,-0.00978794556333333,0.07805762817,2402,"DG_s12",11.765,12.469,13.094,13.094,30,15,10,10,0.625,"Left",30,15,15,15,0,0,-15,15,"Advent",20,5,30,10,15,10
"54",6,"LIN1-LIN2",-0.0880635106666667,-0.028965866,0.08545568,0.161729656666667,0.195616565333333,0.211042595333333,0.315788613333333,0.27175366,0.193518532666667,0.170655093333333,0.194944876666667,0.158542747333333,0.0780162686666667,0.012397944,0.0578619753333333,0.206984510666667,0.258028468866667,0.185040207533333,0.0820434315333333,0.0192967013333333,-0.0215668653333333,-0.0232836148666667,0.1030566518,0.2970259318,0.288143754,0.201505184,0.0750193613333333,0.0638475747333333,0.103846424066667,0.117618020066667,0.0280843193333333,-0.055266212,-0.135015780666667,-0.100526901133333,-0.128981461133333,-0.0479331178,0.211546809333333,0.409824221333333,0.427279371333333,0.208148064666667,0.0839544613333333,0.120453648933333,2402,"DG_s12",11.765,12.469,13.094,13.094,30,15,10,10,0.625,"Left",30,15,15,15,0,0,-15,15,"Advent",20,5,30,10,15,10
"55",6,"LOF4-LOF5",0.0826917926,0.0792627939333333,-0.0395881234,-0.061756598,-0.055053458,-0.0733619306666667,-0.141443872,-0.0706770126,0.0745680707333333,0.177723898733333,0.247056751333333,0.136107445333333,0.173128564,0.131566958666667,0.1273992278,0.0198028771333333,0.0851363678,0.0769505593333333,0.0966580633333333,-0.0461250646666667,0.0664305073333333,0.120090417333333,0.220586994666667,0.121435087586667,0.06903885092,0.0149671203246667,-0.0533864545953333,0.101893526071333,0.142327096666667,0.361294812,0.209690605333333,0.14961514,0.117689913333333,0.123274212666667,0.143150123333333,0.10253901,0.175398923333333,0.144776462666667,0.00202632933333333,-0.01122536,0.0175400866666667,0.0591028933333333,2402,"DG_s12",11.765,12.469,13.094,13.094,30,15,10,10,0.625,"Left",30,15,15,15,0,0,-15,15,"Advent",20,5,30,10,15,10
"56",6,"RIN3-RIN4",-0.0477948051666667,-0.1468871585,-0.235498687833333,-0.2814722745,-0.0436460411666666,-0.0856714718333333,0.0825899948333333,-0.0542097385,0.0466922761666667,-0.0406456745,-0.0433217793,-0.125453173966667,-0.127015064633333,-0.0661989798333333,-0.0670475771666666,-0.133622801833333,-0.218329683833333,-0.152571245833333,0.0385711268333333,0.0869742795,0.125962558833333,0.0168841414266667,-0.02274378724,-0.13489786524,-0.1245967605,-0.148631227833333,-0.179607099433333,-0.234936730766667,-0.2298817121,-0.1783069831,-0.182186372433333,-0.0898256057666666,-0.177756173166667,-0.149547811833333,-0.255903209833333,-0.2646546525,-0.3260337745,-0.182903083166667,-0.0642865558333333,0.0353416808333333,-0.0594206298333333,-0.208335173166667,2402,"DG_s12",11.765,12.469,13.094,13.094,30,15,10,10,0.625,"Left",30,15,15,15,0,0,-15,15,"Advent",20,5,30,10,15,10
"57",6,"RAM6-RAM7",0.0728508533333333,-0.0190048006666667,-0.0510830446666667,-0.0930897906666667,-0.0781952013333334,-0.0697978558666667,-0.0683062918666667,-0.149540341866667,-0.133262170666667,-0.201527299333333,-0.160491604666667,-0.176276014,-0.116198376,-0.1060118786,-0.1425665426,-0.106129677933333,-0.114806714666667,0.0480872526666667,0.116347787333333,0.0969982953333333,-0.013142384,-0.0346939506666667,0.00441802866666666,-0.0320604636666667,0.0101211743333333,-0.00784395033333335,0.0147354466666667,-0.147389666666667,-0.0273760566666667,-0.0538532746666667,0.158995607333333,0.247402533333333,0.379637413333333,0.942909206666667,2.20370274733333,2.3737357054,1.69054437806667,0.272898720066667,0.205947475333333,0.194835966,0.198882877333333,-0.00523787406666668,2402,"DG_s12",11.765,12.469,13.094,13.094,30,15,10,10,0.625,"Left",30,15,15,15,0,0,-15,15,"Advent",20,5,30,10,15,10
"58",6,"RIN2-RIN3",-0.0232906319666667,-0.1389531693,-0.304623160633333,-0.366644746633333,-0.328217969966667,-0.177335118633333,-0.1402341125,-0.167654425166667,-0.3677144385,-0.183998608633333,0.0350968647,0.0765263340333333,-0.160910159966667,-0.172198959966667,-0.1522925613,-0.0960586093,-0.3056598393,-0.3521923213,-0.369981005966667,-0.295712185966667,-0.1897158933,-0.1283146333,-0.195139705966667,-0.1650885833,-0.130483409966667,-0.143822811966667,-0.160583226633333,-0.336982045966667,-0.2667646013,-0.351893581966667,-0.2731221533,-0.299939902633333,-0.162435628633333,-0.120741535966667,-0.194299216633333,-0.105518569966667,-0.103462475966667,-0.120933272633333,-0.273922278633333,-0.2486074433,-0.235702189966667,-0.3130922653,2402,"DG_s12",11.765,12.469,13.094,13.094,30,15,10,10,0.625,"Left",30,15,15,15,0,0,-15,15,"Advent",20,5,30,10,15,10
"59",6,"LOF3-LOF4",-0.0773527511666667,-0.00337283783333333,-0.0560413111666667,-0.0711885105,0.1215333095,0.236763154833333,0.160373782166667,0.0275132472666667,0.0744810906,0.1649915766,0.1933497715,0.0872294961666667,0.102154148833333,0.13997283346,0.138161298793333,0.13387014346,0.237454158833333,0.2005042755,0.1464794375,0.0531400301666667,0.0920806875,0.101575383166667,0.0190123491666667,0.0438615585,0.0708017615,0.1144719095,0.0626041828333333,0.0626930641666667,-0.0366748558333333,0.1375986975,0.0755657995,0.1808651585,0.1847919385,0.203998249833333,0.147954680166667,0.0398081515,-0.0782456218333333,-0.109334477833333,-0.0275435608333333,0.0935152325,0.262010925833333,0.240535110166667,2402,"DG_s12",11.765,12.469,13.094,13.094,30,15,10,10,0.625,"Left",30,15,15,15,0,0,-15,15,"Advent",20,5,30,10,15,10
"60",6,"RAM7-RAM8",0.0118626738666667,-0.0480245955333333,0.0203250994666667,0.0440678561333333,0.00899819686666667,-0.0900070278,-0.196274892466667,-0.133166872933333,-0.0920692756,-0.0658182702666667,-0.1274229578,-0.154307647133333,-0.131901884466667,-0.140990087133333,-0.209217337133333,-0.0719616538,-0.0502619638,0.0303751149333333,-0.0623641930666667,-0.0515966877333333,0.0847565162,0.0556259755333333,-0.0217832846,-0.166128289266667,-0.136327318813333,-0.10227052268,-0.0444964713466667,0.0227320202,0.115831636866667,0.0382459122,-0.118715114466667,-0.215357164466667,-0.281483602466667,-0.0902355644666667,0.412349892866667,0.8612791474,1.12973687606667,0.8853738094,0.6942327082,0.3557060682,0.1215122042,0.00487277753333334,2402,"DG_s12",11.765,12.469,13.094,13.094,30,15,10,10,0.625,"Left",30,15,15,15,0,0,-15,15,"Advent",20,5,30,10,15,10
"61",7,"LOF5-LOF6",-0.0109165773166667,0.166158920683333,0.259871898023333,0.159692667356667,-0.0570282659766667,-0.117060929983333,-0.0888903013166667,-0.0134116779833333,0.0206101266833333,-0.00427397665,-0.00116434225,0.0239121744166667,0.0230171804166667,0.08534530935,0.104130152683333,0.147342518683333,0.02395081535,-0.0825542293166667,-0.10174240465,-0.0271040419833333,-0.0395786553166667,-0.03521715065,0.0240178060166667,0.256961850683333,0.381032650683333,0.306653510683333,0.204341840016667,0.0842237866833333,0.275895424016667,0.277364746016667,0.194630966016667,0.144810200683333,0.161087638016667,0.28244510335,0.179587236683333,0.15299324135,0.101986374016667,0.0999692660166667,0.0638324420166667,0.108824464016667,0.15009267735,0.21183974335,2403,"DG_s12",14.094,14.797,15.453,15.453,28,4,10,10,0.656,"Left",28,4,24,24,0,0,-24,24,"Advent",18,-6,28,10,4,10
"62",7,"RAM5-RAM6",0.0384287062833333,-0.0771350603833333,-0.178418293716667,-0.05970362905,-0.0099084403833333,0.0451832122833333,-0.20955891105,-0.266638880383333,-0.26174884105,-0.231103605716667,-0.283346784383333,-0.282653427716667,-0.124756626383333,-0.09803207105,-0.15476161305,-0.14617113305,-0.0867697417166667,-0.0633673657166667,-0.170929762383333,-0.36328988305,-0.308681646383333,-0.235251673716667,-0.0190829137166666,0.0430340296166667,-0.09689803505,-0.163247976383333,-0.230638370383333,-0.0864136843833333,-0.08543679505,-0.0633270677166667,-0.18037118705,-0.129161841716667,-0.138093705516667,-0.182716950183333,-0.240613144183333,-0.349969091716667,-0.212143151716667,-0.181033484383333,-0.0689368183833333,-0.06933638505,-0.104752712383333,-0.13445124265,2403,"DG_s12",14.094,14.797,15.453,15.453,28,4,10,10,0.656,"Left",28,4,24,24,0,0,-24,24,"Advent",18,-6,28,10,4,10
"63",7,"LOF3-LOF4",-0.0408180943333333,0.041908995,-0.054940343,-0.115750755666667,-0.261086906333333,-0.325062427,-0.329651741,-0.228614793666667,-0.0897894216666666,-0.076265833,-0.153483233666667,-0.313614606333333,-0.334778155,-0.270996428333333,-0.116291389,-0.0852880423333333,-0.107415142333333,-0.142186153,-0.283557643,-0.286443558333333,-0.272263867666667,-0.193493860333333,-0.0910956787,-0.142399906033333,-0.124868883366667,-0.231667289666667,-0.250729166333333,-0.187852659,-0.199375472333333,-0.216177044133333,-0.230099358133333,-0.0491760101333333,0.0362269963333333,0.099954533,0.050697745,0.0411638824,-0.0386859762666667,-0.0715692922666667,-0.147000871,-0.193167923,-0.249291160333333,-0.186448184333333,2403,"DG_s12",14.094,14.797,15.453,15.453,28,4,10,10,0.656,"Left",28,4,24,24,0,0,-24,24,"Advent",18,-6,28,10,4,10
"64",7,"LOF4-LOF5",0.0270921433333333,-0.0370136033333333,-0.160136414666667,-0.269089417333333,-0.325579117333333,-0.2896093352,-0.2046690892,-0.167414131866667,-0.0700472973333333,-0.157460934666667,-0.127808429333333,-0.260792961333333,-0.24694649,-0.268012768,-0.240284587333333,-0.270351601333333,-0.297695766666667,-0.214815720666667,-0.238418348,-0.243682076466667,-0.270304554066667,-0.1544342674,-0.117542879313333,-0.0734602810466667,-0.0483737090466667,-0.117610392,-0.233694595333333,-0.205748110666667,-0.0961031273333333,-0.0728746,-0.180448393333333,-0.074247986,0.101821817333333,0.0412349506666667,-0.0323413826666667,-0.211950757066667,-0.2308952904,-0.339643657066667,-0.27453206,-0.207654426,-0.184534012666667,-0.236114127333333,2403,"DG_s12",14.094,14.797,15.453,15.453,28,4,10,10,0.656,"Left",28,4,24,24,0,0,-24,24,"Advent",18,-6,28,10,4,10
"65",7,"RIN3-RIN4",-0.106948477333333,-0.109575335333333,0.00301748133333334,0.066263326,0.120154996666667,0.0479105233333333,-0.063732168,-0.14731896,-0.145608855333333,-0.176730254,-0.235492855333333,-0.254937409333333,-0.189821119333333,-0.163650422133333,-0.275400839466667,-0.2239477408,-0.130122724666667,-0.01835034,-0.007805848,-0.0198466583666667,0.0239690569666667,-0.0283093023666667,0.0116388246666667,-0.0635404013333333,-0.0472443958,-0.107526396466667,-0.118997381133333,-0.169815145333333,-0.1989285254,-0.195309686066667,-0.1829346054,-0.180229266666667,-0.100638802,-0.035027548,0.0226793433333333,-0.0058584,-0.09307991,-0.0427968893333333,0.0112662753333333,0.0681811564,0.1066453344,0.140910323733333,2403,"DG_s12",14.094,14.797,15.453,15.453,28,4,10,10,0.656,"Left",28,4,24,24,0,0,-24,24,"Advent",18,-6,28,10,4,10
"66",7,"RIN1-RIN2",-0.00730640068333333,-0.01049527935,0.0677370619833333,0.0468145313166667,-0.0241403586833333,-0.0295930946833333,-0.0590370700166667,-0.0275570600166667,-0.0542806880166667,-0.0483687946833333,-0.0501672980166667,-0.0735282206833333,-0.04835600535,-0.03363797135,-0.00872881708333333,-0.0316977264166667,0.10056809225,0.153989997983333,0.131038907316667,-0.08117997735,-0.211978344016667,-0.27301345855,-0.199328982016667,-0.0434609500166667,0.104515964516667,0.19118034865,0.116930053316667,-0.0823349000166667,-0.202189920683333,-0.232793982683333,-0.14047986935,-0.19762558935,-0.17925245735,-0.0897325720166667,0.166943641316667,0.198148921316667,0.219060009983333,0.0359339597833333,-0.02591465555,-0.02349252955,0.00775738065,0.0413613839833333,2403,"DG_s12",14.094,14.797,15.453,15.453,28,4,10,10,0.656,"Left",28,4,24,24,0,0,-24,24,"Advent",18,-6,28,10,4,10
"67",7,"RAM6-RAM7",-0.123681451283333,-0.322088901616667,-0.343628321016667,-0.27685899435,-0.236422956683333,-0.25599917195,-0.33799450795,-0.30864992195,-0.171533140616667,-0.11280797195,-0.220853426616667,-0.307246658616667,-0.370619450616667,-0.345227847283333,-0.346825167883333,-0.250147681883333,-0.195132509216667,-0.11639499195,-0.124097166616667,-0.16005588795,-0.198840172616667,-0.17871624795,-0.0802281786166667,0.0139887473833334,-0.0129763026166667,-0.07920209595,-0.250734635283333,-0.257948607283333,-0.32690680995,-0.348360411283333,-0.327797210616667,-0.255399235283333,-0.116374007283333,-0.147231591416667,-0.16415652295,-0.220474673616667,-0.11638302815,0.0262988947166667,0.11642515205,0.162748075383333,0.000248896716666669,-0.08178226995,2403,"DG_s12",14.094,14.797,15.453,15.453,28,4,10,10,0.656,"Left",28,4,24,24,0,0,-24,24,"Advent",18,-6,28,10,4,10
"68",7,"RIN2-RIN3",-0.070744101,-0.096193715,-0.0778615236666667,-0.0607630816666667,-0.143714237666667,-0.0440581476666667,0.0199043236666667,0.186862237,0.187160253,0.0818948516666667,0.0961193736666666,-0.025736273,0.013965155,-0.087421147,-0.0643329803333333,-0.0886199603333333,0.00406180633333333,-0.0228579623333333,-0.0274960356666667,-0.129216447666667,-0.100798467,-0.135541780333333,-0.167781319,-0.206399156333333,-0.135601023733333,-0.0195182866666667,-0.027772678,-0.162903683933333,-0.233520110333333,-0.182209491666667,-0.121405873666667,-0.138715303,-0.122959831666667,-0.0695698663333333,0.112196363,0.0692797563333333,0.0375436842,-0.1056359598,-0.0789096298,-0.1068765334,-0.170792945733333,-0.134530751733333,2403,"DG_s12",14.094,14.797,15.453,15.453,28,4,10,10,0.656,"Left",28,4,24,24,0,0,-24,24,"Advent",18,-6,28,10,4,10
"69",7,"RAM7-RAM8",0.0620037267666667,0.0283653701,-0.0231212919,-0.0132508009666667,0.0239591470333333,0.0229107657,-0.0446086798333333,-0.0390936485,0.170841634833333,0.2547926175,0.295237052166667,0.132768430166667,0.101663538833333,0.124777026166667,0.270778196833333,0.2193142275,0.0268723401666667,0.0203999248333333,0.0408333621666667,0.194885072833333,0.0341561081666667,0.0401825088333333,-0.0711447698333333,-0.0157706558333333,0.0654107208333333,0.0864109001666667,0.0199832801666667,-0.0016522245,0.0503332461666667,0.141484856833333,0.152613094833333,0.147911128833333,0.217061478166667,0.180309243966667,0.190954282633333,0.1864477933,0.172596579566667,0.205519571566667,0.0949837315666667,0.221670068833333,0.226526088833333,0.2367131435,2403,"DG_s12",14.094,14.797,15.453,15.453,28,4,10,10,0.656,"Left",28,4,24,24,0,0,-24,24,"Advent",18,-6,28,10,4,10
"70",7,"LIN1-LIN2",0.00996204116666667,-0.0299215988333333,-0.0343005095,-0.0293189161666667,0.0913189638333333,0.266528673166667,0.432216449033333,0.434238629033333,0.4160212237,0.3011704145,0.172971227833333,0.0619660745,0.10442106624,0.0455826795733333,-0.02700773376,-0.112692986166667,-0.105936500833333,-0.0163301095,0.1502759505,0.144410917633333,0.168548512966667,0.0582728636333333,0.0875069821666667,0.00362368816666667,0.0859111295,0.0277927258333333,0.0496509198333333,-0.1200195455,0.00552780763333333,0.0176704276333333,0.0459497103,-0.0454019568333333,0.0216683031666667,0.128948279166667,0.158780205833333,0.0423484638333333,-0.0244966795,0.0297553678333333,0.0672442498333333,0.144395193166667,0.151204059166667,0.0891757391666667,2403,"DG_s12",14.094,14.797,15.453,15.453,28,4,10,10,0.656,"Left",28,4,24,24,0,0,-24,24,"Advent",18,-6,28,10,4,10
"71",8,"LOF5-LOF6",-0.295789434833333,-0.0901098564333333,0.0297328075666667,0.177074347566667,0.191507469166667,0.1121028385,0.00867458183333333,-0.132038720166667,0.0188041725,0.0068298825,0.0859650785,0.0515080151666667,0.0532475425,-0.0169755981666667,-0.101112356166667,-0.0414872035,0.1111786765,0.00402125116666666,-0.0664454661666667,-0.0913220661666667,-0.0310055488333333,0.0565818618333333,-0.0395182543666667,-0.0532769830333333,-0.112869983766667,-0.0726780195666667,-0.0425613662333333,-0.0796776988333333,-0.100522530833333,-0.155470384033333,-0.138428625366667,-0.0564042453666667,0.00175374316666665,-0.0404781468333333,-0.178349874166667,-0.238200964833333,-0.241569020166667,-0.300908228833333,-0.240703188833333,-0.168076352166667,-0.0523464795,-0.0350467461666667,2404,"DG_s12",16.453,17.156,18.64,18.656,10,10,4,4,1.484,"Left",4,4,0,0,0,0,0,0,"10-10",6,6,10,4,10,4
"72",8,"RAM5-RAM6",-0.018814438,-0.00496018200000001,-0.017616062,0.0563414506666667,0.0926526713333333,0.154062426,0.0596348748533333,0.0746283148533333,0.198616520186667,0.182677561333333,0.2885403048,0.308906758133333,0.2951767328,0.152702522,0.0428025238,0.1483893198,0.134445887133333,0.102246474,0.01796428,0.0608275386666667,0.0104353233333333,0.016372698,-0.0420743274666667,0.00274863626666666,0.0437155682666667,0.118420321733333,0.116637728666667,0.141969818666667,0.162649509333333,0.434071645333333,0.457809048666667,0.459103742666667,0.139458889333333,0.00942240766666666,-0.0396978636666667,-0.012911797,0.177616087333333,0.0945110806666667,0.0623330406666667,-0.0238892,0.04767973,0.223853083333333,2404,"DG_s12",16.453,17.156,18.64,18.656,10,10,4,4,1.484,"Left",4,4,0,0,0,0,0,0,"10-10",6,6,10,4,10,4
"73",8,"LOF3-LOF4",-0.0318105107,-0.171171283366667,-0.1405933005,-0.242356643833333,-0.230658701833333,-0.214002917833333,-0.241971887833333,-0.166855737166667,-0.1404761485,-0.0614690018333333,-0.1819121185,-0.1055958405,-0.1850390965,-0.1615613865,-0.3450853045,-0.2386428265,-0.263338728033333,-0.204181372033333,-0.259173934033333,-0.1394975305,-0.2184773305,-0.173331167166667,-0.255980409166667,-0.146993547166667,-0.190710419166667,-0.0703915325,-0.107814985833333,-0.0334178905,0.00204511616666667,0.0976379895,-0.00703590383333333,-0.124368811833333,-0.1082611885,-0.115247663166667,-0.168774545166667,-0.282118337166667,-0.375830055833333,-0.290184135833333,-0.279008466166667,-0.0899906698333333,-0.2136470805,-0.1836644315,2404,"DG_s12",16.453,17.156,18.64,18.656,10,10,4,4,1.484,"Left",4,4,0,0,0,0,0,0,"10-10",6,6,10,4,10,4
"74",8,"LOF4-LOF5",-0.2592410754,-0.175956106733333,-0.118142632666667,-0.118649639333333,-0.0220552546666667,-0.103890445333333,-0.0485912856666667,-0.128666101,-0.00340337966666668,0.0533642716,0.0139381438,-0.1429934842,-0.2219951138,-0.134517468666667,-0.131776374,0.112578378,0.056702606,0.144965803333333,-0.0683549653333334,-0.0914581146666667,-0.0137341386666667,0.0370542946666667,0.132728892666667,-0.0176603126666667,-0.071585224,-0.124778188,-0.151208756,-0.099132076,-0.0377608786666667,0.0531190751333333,0.0522438884666667,-0.0632273968666667,-0.0995273373333333,-0.15410755,-0.130688467333333,-0.101360314,-0.046596286,0.0360280513333333,-0.0236276535333333,0.0901724844666667,0.0688756784666667,0.02687859,2404,"DG_s12",16.453,17.156,18.64,18.656,10,10,4,4,1.484,"Left",4,4,0,0,0,0,0,0,"10-10",6,6,10,4,10,4
"75",8,"RIN2-RIN3",0.0238122929683333,0.131453605701667,0.201102623701667,0.266831211035,0.200548128968333,0.135219572301667,0.0820133329683333,0.00716567296833333,-0.0253454056983333,-0.033420106365,0.0930314003016667,0.0744445583016667,0.0898962053683333,0.130455685368333,0.163884534835,0.210065694435,0.0627397577683333,0.0573814123016667,0.049174002235,0.144431778901667,0.224909916901667,0.158660496301667,0.086025745635,0.069771351635,0.0757707689683333,0.0681350009683333,0.107654530301667,0.192354409635,0.234609946301667,0.141165116301667,0.200973203635,0.197591810301667,0.249240866968333,0.202450012968333,0.334489581635,0.284569544968333,0.169189536301667,0.0246322685683333,0.0171426905683333,0.0521883379016667,0.025318594035,0.037371178035,2404,"DG_s12",16.453,17.156,18.64,18.656,10,10,4,4,1.484,"Left",4,4,0,0,0,0,0,0,"10-10",6,6,10,4,10,4
"76",8,"LIN1-LIN2",0.0872891327,0.221960533366667,0.3872575307,0.3834998055,0.374164812166667,0.2392021055,0.29689388476,0.19936227556,0.250777654626667,0.121108905033333,0.209350067566667,0.215131843166667,0.1213791775,0.0501208088333333,-0.0196664891666667,0.108256416833333,0.0741690908333333,0.0826990575,0.0553285280333333,0.0658593493666667,0.0138589260333333,0.0110406685666667,0.0439513225666667,-0.0115968841,0.0387296755,-0.0084894385,0.0861666815,0.0556720341666667,0.0875150313,0.0757761653,0.0197309406333333,0.0346465475,0.0617179081666667,0.0625227635,-0.0289700805,-0.0309442745,0.0748577781666667,0.0482643581666667,0.0244753908333333,-0.0657785551666667,-0.0365382231666667,-0.0190731874333333,2404,"DG_s12",16.453,17.156,18.64,18.656,10,10,4,4,1.484,"Left",4,4,0,0,0,0,0,0,"10-10",6,6,10,4,10,4
"77",8,"RIN1-RIN2",0.10982482655,0.13825202655,0.27941860255,0.183504563883333,0.333041229216667,0.190246835216667,0.226066027883333,0.0950060878833333,0.10317884855,0.147316147883333,0.17087145255,0.0904537792833333,0.00279481261666667,0.129636981283333,0.24347789455,0.277050987883333,-0.0103934187833333,-0.100531818783333,-0.0694912321166667,0.159770121216667,0.151975439216667,0.0659555192166667,-0.0266217567833333,0.03688927855,0.0657719332166667,0.0449886572166667,-0.07842636945,-0.0720884867833333,-0.02782059145,0.07799502855,0.154125204263333,0.186780103596667,0.24095608493,0.22462037555,0.277063666883333,0.29340304555,0.315864927216667,0.289226113216667,0.196993568816667,0.122544503483333,-0.0326111031833333,-0.09831166545,2404,"DG_s12",16.453,17.156,18.64,18.656,10,10,4,4,1.484,"Left",4,4,0,0,0,0,0,0,"10-10",6,6,10,4,10,4
"78",8,"RAM7-RAM8",-0.0947003028666667,-0.0634100735333333,-0.0781066513333333,-0.0357198366666667,-0.0920113966666667,-0.0571624,-0.146068229333333,-0.289498909333333,-0.3871173682,-0.313677999533333,-0.266520594866667,-0.266260769533333,-0.305792754866667,-0.2096139382,-0.134616916866667,-0.144081670866667,-0.264145778866667,-0.308744899533333,-0.206886526866667,-0.0419064602,-0.0117841802,-0.1626501342,-0.2793190542,-0.287982271533333,-0.2308352842,-0.156178577533333,-0.262447411666667,-0.264409171666667,-0.290180131666667,-0.262875099533333,-0.0220663595333333,0.0511853004666667,0.1441944938,-0.108391447533333,-0.2517343942,-0.3593430742,-0.308357854133333,-0.198449309466667,-0.121106121933333,-0.137974996,-0.247431094,-0.320131487933333,2404,"DG_s12",16.453,17.156,18.64,18.656,10,10,4,4,1.484,"Left",4,4,0,0,0,0,0,0,"10-10",6,6,10,4,10,4
"79",8,"RAM6-RAM7",-0.171296285466667,-0.1488945408,-0.0393487874666667,-0.052114507,-0.043450147,-0.0308528916666667,0.0107933718,-0.0636392268666667,-0.0931383395333333,-0.0697883743333333,0.00806260966666666,-0.0500654096666667,0.0376585276666667,-0.0532420623333333,-0.113949256333333,-0.167975651666667,-0.125328909666667,-0.110391063,-0.161365527666667,-0.0825455356666667,0.0945956143333333,0.102972083666667,0.038871779,0.0204100756666667,-0.00482751233333333,-0.014500915,-0.011623275,0.049922121,0.126919485666667,0.0369473162,-0.0100784136,0.0246488082,0.0299662643333333,-0.0218050373333333,-0.0291299838,-0.0365816571333333,-0.0353734376666667,-0.044653571,-0.0213736643333333,-0.0266783773866667,-0.143770604053333,-0.06675861072,2404,"DG_s12",16.453,17.156,18.64,18.656,10,10,4,4,1.484,"Left",4,4,0,0,0,0,0,0,"10-10",6,6,10,4,10,4
"80",8,"RIN3-RIN4",0.07883029955,0.16708755545,0.18901927545,0.115752674116667,0.0251885987833333,-0.06544557455,-0.0677441198833333,0.00280529145,-0.0128160092166667,-0.01894622255,-0.00837448388333333,0.0358736261166667,0.0154834947833333,0.0350781169833333,0.119715154316667,0.266273932316667,0.23161854465,0.186636251316667,0.0699010353166667,0.107647272783333,0.153507272783333,0.21765201545,0.06139744345,-0.0815030710833333,-0.04738352575,-0.07335118575,-0.10247534455,-0.177844467216667,-0.0307665958833333,0.08713269345,0.0121145547833333,0.00843440945,-0.00693706388333333,0.0418444987833333,0.02424793345,-0.01944353455,0.0262860587833333,0.0531612605166667,0.03781997185,-0.0280995548166667,-0.15028025055,-0.231846043216667,2404,"DG_s12",16.453,17.156,18.64,18.656,10,10,4,4,1.484,"Left",4,4,0,0,0,0,0,0,"10-10",6,6,10,4,10,4
"81",9,"RAM5-RAM6",-0.00236582296666665,0.00925074236666668,0.0490460763666667,0.0043417197,0.0181297750333334,-0.0411145696333333,-0.1385923383,-0.175234073633333,-0.0783534556333333,-0.0467972003,-0.0695636329666666,-0.191742449633333,-0.2482225563,-0.2001675843,-0.184792720966667,-0.107359058966667,0.0402393623666667,0.0370999903666667,-0.00826064429999999,-0.194159437633333,-0.164367598966667,-0.138607827633333,0.0326265923666667,-0.0454631676333333,-0.103945714966667,-0.1432375383,0.0427759852333333,0.1197995499,0.0791058392333333,-0.0330639289666667,-0.0822323743,-0.159916574966667,-0.142849023633333,-0.0746278943,-0.0330942976333333,-0.121319958966667,-0.171373948966667,-0.195648490966667,-0.137777794966667,-0.101831446633333,-0.0577936473,-0.0543032255666667,2405,"DG_s12",19.656,20.359,21.859,21.859,13,7,10,10,1.5,"Left",13,7,6,6,0,0,-6,6,"Advent",3,-3,13,10,7,10
"82",9,"LOF3-LOF4",-0.0319708161666667,-0.0009782983,-0.158783315566667,-0.0275594282333333,0.00411313190000001,0.0800978785,0.0317788978333333,0.0227683671666667,0.00120545650000001,-0.164233016166667,-0.2162017415,-0.217340598833333,-0.116679644166667,-0.0384190661666667,0.0334395825,0.0427677058333333,0.1379412105,0.185439695433333,0.188460610766667,0.1036194261,-0.0385833028333333,-0.0324605967666667,-0.0347527301,0.0236277032333333,0.0461751411666667,0.00669910116666667,-0.0680576415,-0.115360578166667,-0.133506484833333,-0.163850822833333,-0.112582016833333,-0.114273816833333,-0.0812311241666667,-0.0895200308333333,0.000586235833333337,0.1556721725,0.3133775125,0.202722265166667,0.0474961798333333,-0.170694248833333,-0.1794928015,-0.193775202833333,2405,"DG_s12",19.656,20.359,21.859,21.859,13,7,10,10,1.5,"Left",13,7,6,6,0,0,-6,6,"Advent",3,-3,13,10,7,10
"83",9,"RAM6-RAM7",-0.1118631108,-0.136122918133333,-0.204040330133333,-0.100446468,-0.137469002,-0.04447017,-0.161193239,-0.175593105,-0.104277118333333,-0.0572773026666667,-0.102148715333333,-0.173484851333333,-0.272662338,-0.240693553933333,-0.335267991266667,-0.3048805446,-0.234809592666667,-0.206361572,-0.145094678666667,-0.159428681333333,-0.104791573733333,-0.0761539204,-0.0814726937333334,-0.139358816666667,-0.212998899833333,-0.1697142905,-0.0791724458333334,-0.0299830435333333,-0.0942584362,-0.169419900866667,-0.167463966,-0.188836113333333,-0.209659642,-0.227399471333333,-0.117161,-0.118328365333333,-0.102953731333333,-0.192624278666667,-0.107742479333333,-0.0638040126666667,-0.0205960478666667,-0.133172891866667,2405,"DG_s12",19.656,20.359,21.859,21.859,13,7,10,10,1.5,"Left",13,7,6,6,0,0,-6,6,"Advent",3,-3,13,10,7,10
"84",9,"RAM7-RAM8",0.0142878308333333,-0.00977214716666666,-0.0866777745,-0.1549515205,-0.184873001833333,-0.230724201833333,-0.0947071925,-0.00676506116666666,0.112312652166667,-0.0154434960333333,-0.0198088413666667,-0.101925321366667,0.00896615216666667,-0.0965641545,-0.0350333345,-0.0904701138333333,0.0026047775,-0.0671973276333333,-0.114974926966667,-0.1664702003,-0.00491835516666667,0.117125188166667,0.0656869901666667,0.108857776833333,0.103838198166667,0.113136305413333,-0.0487811666533333,-0.0654291106533333,0.0721451587666667,0.1557090395,0.0854225655,0.0084703635,0.139157368166667,0.217983576633333,0.2285256293,0.0489139193,-0.0797285745,-0.139593335166667,-0.0436189065,0.0724122713,0.162652944633333,-0.0171446807,2405,"DG_s12",19.656,20.359,21.859,21.859,13,7,10,10,1.5,"Left",13,7,6,6,0,0,-6,6,"Advent",3,-3,13,10,7,10
"85",9,"LIN1-LIN2",0.133696621133333,0.1689489547,0.192894740033333,0.176261802033333,0.234355622033333,0.2369846119,0.193363014566667,0.197809282566667,0.169316309366667,0.164098335366667,-0.0421218125666667,-0.0733817925666667,-0.0263851612333333,0.0757631853666667,0.1266627487,0.0118024087,-0.0152924720333333,-0.0768776480333333,-0.1004217347,-0.2045695833,-0.2165021053,-0.146192382633333,-0.0931683846333333,-0.0980227789666667,-0.0145482070333333,0.0390503337,0.1060153927,0.0817165274333333,0.0832852620333333,0.0219844347,0.0498270667,0.0636972853666667,0.1226012227,0.0839367480333333,0.105403019366667,0.0464355318333333,-0.0732850348333333,-0.0308096541666667,0.00969022336666666,0.152071668033333,0.0855590400333333,0.0717147847,2405,"DG_s12",19.656,20.359,21.859,21.859,13,7,10,10,1.5,"Left",13,7,6,6,0,0,-6,6,"Advent",3,-3,13,10,7,10
"86",9,"LOF4-LOF5",0.094555720985,0.026018113785,0.065034253785,0.000516267785000003,0.0853398831183333,-0.016847300215,0.076927151785,-0.037586216015,-0.105463712681667,-0.204352606815,-0.231722339015,-0.0765219783483333,-0.0377390368816667,0.150529016451667,0.132916601851667,0.0777682685183333,-0.012119644815,-0.0284872288816667,0.0485843091183333,-0.0498183215483333,-0.0392744195483333,-0.0193408575483333,0.0754812387183333,0.0236571320516667,-0.00132153394833334,-0.148563552881667,-0.176312930215,-0.198439184881667,-0.0507480375483333,-0.0752747828816667,-0.0157104788816667,-0.00767803754833333,0.026993923785,0.018035673785,-0.059506702215,0.0467817151183333,0.102416588451667,0.136585184318333,0.119872982318333,0.071945044985,0.076652320785,0.0219449884516667,2405,"DG_s12",19.656,20.359,21.859,21.859,13,7,10,10,1.5,"Left",13,7,6,6,0,0,-6,6,"Advent",3,-3,13,10,7,10
"87",9,"LOF5-LOF6",-0.14010921595,-0.01950074895,0.0223644253166667,0.118036727316667,0.19259192565,0.237547638983333,0.216914594316667,0.12114431765,-2.39968333333451e-06,0.00941625964999999,0.0541085023166667,0.0603051169833333,0.08535295365,0.00450456698333333,-0.0271774050166667,-0.0901476370166667,-0.02635846235,0.00287045351666666,0.0566580441833333,0.03365306285,-0.0567919896833333,-0.121336685016667,-0.17832252435,0.03756213365,0.116970734316667,0.01811990765,-0.0943635630166667,-0.0871786476833333,0.10510304565,0.0636554683166667,-0.0489148990166667,-0.153617999683333,-0.0469886850166667,0.0564551523166667,0.10304980585,-0.11565599415,-0.112565625483333,-0.222502203016667,-0.191372531016667,-0.20936348635,-0.13512672235,-0.01644634835,2405,"DG_s12",19.656,20.359,21.859,21.859,13,7,10,10,1.5,"Left",13,7,6,6,0,0,-6,6,"Advent",3,-3,13,10,7,10
"88",9,"RIN3-RIN4",0.306349604383333,0.44480908505,0.40330567705,0.333594997716667,0.157078839716667,0.138811125203333,0.150508307336667,0.119890561336667,0.168964938516667,0.13290906505,0.300341658383333,0.38938745705,0.40064974005,0.291131750716667,0.27380554405,0.389088732383333,0.47254113905,0.461801605716667,0.450606145716667,0.34896390045,0.325871853783333,0.278403753783333,0.36790609905,0.331304512383333,0.227836640383333,0.25472011905,0.242288292383333,0.347148289716667,0.257240742383333,0.237091935716667,0.17879040905,0.14270335105,0.197185461583333,0.302213145583333,0.365242881583333,0.377091937716667,0.31427203505,0.32739583905,0.317237905716667,0.408191250383333,0.386922178383333,0.403838428383333,2405,"DG_s12",19.656,20.359,21.859,21.859,13,7,10,10,1.5,"Left",13,7,6,6,0,0,-6,6,"Advent",3,-3,13,10,7,10
"89",9,"RIN1-RIN2",-0.0205032645833333,0.0452041354166667,0.161121816083333,0.255602556083333,0.237450085416667,0.153610685416667,-0.0408577905833333,-0.0514907445833333,0.0909838800833333,0.25915534275,0.32861816075,0.25580267475,0.246002708216667,0.20084908555,0.180624958883333,0.111812098083333,0.136043900083333,-0.02717760725,-0.03636757325,-0.11324417925,0.0910287612166667,0.11657747455,0.225997307883333,0.188789214083333,0.164107956083333,0.15075322275,0.14078755675,0.0964414752166667,0.01800218559,-0.00321059107666667,-0.06422127821,-0.04167528725,-0.00509178551666667,0.00175372981666666,-0.04105928905,0.00164844521666666,0.106494173216667,0.20922201075,0.154682097416667,0.10472718075,0.11652502075,0.12079788075,2405,"DG_s12",19.656,20.359,21.859,21.859,13,7,10,10,1.5,"Left",13,7,6,6,0,0,-6,6,"Advent",3,-3,13,10,7,10
"90",9,"RIN2-RIN3",-0.0117330860333333,-0.0692878153666667,0.2229982513,0.1787200835,0.2321542497,0.0035891617,-0.0898235429666667,-0.132793352633333,-0.104936364633333,0.0351871835,0.161939051233333,0.1978100771,0.245385499633333,0.128234393366667,0.113665984833333,-0.00903296383333333,-0.0108258118333333,-0.0696445798333333,-0.0635265996333333,-0.0691505969666667,0.1064195137,0.100050378566667,0.272340645233333,0.3061527119,0.2755588355,0.247469518833333,0.114868800166667,0.2331332935,0.148023540166667,0.171773318833333,0.105639783033333,0.0686515337,-0.00248445296666667,-0.1477652305,-0.216556657833333,-0.0916116085,-0.00867690983333333,-0.00525690316666667,-0.0893602191666667,-0.0999565011666667,-0.0658990458333333,-0.146189795833333,2405,"DG_s12",19.656,20.359,21.859,21.859,13,7,10,10,1.5,"Left",13,7,6,6,0,0,-6,6,"Advent",3,-3,13,10,7,10
"91",10,"RAM7-RAM8",-0.0601966695,0.0654826325,0.0640962125,0.0369751937666667,-0.0738789629,-0.1937506989,-0.2232410135,-0.206260676166667,-0.0961539275,-0.0303465275,-0.0226987143666667,-0.000952733033333333,-0.0693773529,-0.00667986203333334,-0.0669736293666667,-0.0801492495,-0.219644982833333,-0.201338312166667,-0.0364412308333333,0.109354703833333,0.175216947166667,0.11753024898,0.0666697476466667,0.0535191643133333,-0.0810563521666667,-0.115421930833333,-0.0860942041666667,0.0366733805,0.0641374458333333,0.0182093445,-0.0621805668333333,-0.1674500935,-0.225169618166667,-0.1228762955,-0.0236133479,0.0676317497666667,0.0131433204333333,-0.0301726425,-0.1347025095,-0.1842403115,-0.136843796166667,-0.0440623061666667,2406,"DG_s12",22.859,23.562,24.25,24.25,10,26,10,10,0.688,"Right",10,26,16,16,0,16,0,-16,"Disadvent",0,16,10,10,10,26
"92",10,"RAM5-RAM6",-0.00675469400333333,0.131228246863333,0.0585160621966667,0.08899241353,-0.01613953087,0.0180124344633333,-0.0450763555366667,-0.0473840473366667,-0.128407246003333,-0.18843212067,-0.16777730467,0.00196282133,0.103626071996667,0.0850094279966667,0.0427643919966667,0.0553196019966667,0.176975987996667,0.257416584663333,0.243454677996667,0.112740762663333,0.00444031399666667,0.128133191996667,0.300430184663333,0.339930695996667,0.15895448333,0.0142381606633333,0.0910815779966667,0.189646291996667,0.200966425263333,0.119838206596667,-0.00867848007,-0.0720672113366667,-0.0158417793366667,0.0636392884633333,0.131614735796667,0.0589687097966667,0.02865684533,-0.0740061860033333,-0.0425338140033333,-0.02712555267,0.05209978133,-0.01298214467,2406,"DG_s12",22.859,23.562,24.25,24.25,10,26,10,10,0.688,"Right",10,26,16,16,0,16,0,-16,"Disadvent",0,16,10,10,10,26
"93",10,"LOF5-LOF6",-0.0488989895166667,0.0207219352833333,0.08610691995,0.0652490754833333,0.0649050862166667,0.0454236748833333,-0.03109456125,-0.140796189316667,-0.15048430065,-0.0115908373833333,0.0874222352833333,0.10370817995,0.0986621106166667,0.05516260595,0.00316263728333334,-0.11923196805,-0.10496263005,-0.0454492707166667,-0.0440163747166667,0.07662462995,0.0626995326166667,0.0444680832833333,-0.0919716715833333,-0.0496011515833333,-0.0494980549166667,-0.0750081067166667,-0.229570906716667,-0.266742664716667,-0.19123385805,0.0366474486166667,0.164543611283333,0.0967748666166667,-0.10491397405,-0.15098656205,-0.11082548405,-0.02679114205,-0.0848472927166667,-0.14692367205,-0.171996101383333,-0.0551032187166667,0.01204514055,0.07962608855,2406,"DG_s12",22.859,23.562,24.25,24.25,10,26,10,10,0.688,"Right",10,26,16,16,0,16,0,-16,"Disadvent",0,16,10,10,10,26
"94",10,"LIN1-LIN2",-0.100040996333333,-0.116453921266667,-0.1284738086,-0.0572574419333333,0.224960003,0.188339162333333,0.113988955666667,-0.060293081,0.0313530023333333,0.0865071936666666,0.166341183666667,0.0529032956666667,-0.00402802098666667,-0.08922114232,-0.00718907378666667,0.0939071742,-0.0123320778,-0.146087289,-0.203497538333333,0.0768596616666667,0.166616014333333,0.0756525956666667,-0.157719151,-0.105548303666667,0.0259629016666667,0.0430775176666667,0.123941644333333,0.177193728333333,0.315394485666667,0.291578825666667,0.184792918333333,0.0493029843333333,-0.0867976436666667,-0.122990685666667,-0.0634960936666667,-0.163276732333333,-0.183168627,-0.272473898333333,-0.115234751666667,0.058795675,0.122366368333333,0.0378648163333333,2406,"DG_s12",22.859,23.562,24.25,24.25,10,26,10,10,0.688,"Right",10,26,16,16,0,16,0,-16,"Disadvent",0,16,10,10,10,26
"95",10,"RAM6-RAM7",0.0868807337,0.103742274366667,0.0690068203666667,0.143899547033333,0.2055770697,0.282269870366667,0.225007517033333,0.1075598337,0.136497863033333,0.0709423350333333,0.127882899033333,0.0857469637,0.173243265033333,0.1429833297,0.2764736697,0.305163783033333,0.3161549317,0.174834225033333,0.0382280477,0.128940798366667,0.115939384366667,0.241745495033333,0.220907761033333,0.326528953233333,0.298650346566667,0.267931912566667,0.207608381033333,0.0276143143666667,-0.0064526963,0.00974452369999999,0.0996106023,0.1925161063,0.162889095633333,0.162920642366667,0.0703978023666667,0.0647016803666667,0.0570682549666667,0.0443086169666667,-0.0491928423666667,0.0753307150333333,0.0912579530333333,0.1147168877,2406,"DG_s12",22.859,23.562,24.25,24.25,10,26,10,10,0.688,"Right",10,26,16,16,0,16,0,-16,"Disadvent",0,16,10,10,10,26
"96",10,"RIN1-RIN2",-0.2260051415,-0.217415562833333,-0.2014010015,-0.1775187015,-0.140504580833333,-0.225424800833333,-0.3678821675,-0.3989681135,-0.266291392833333,-0.0692704948333333,0.00690849850000003,-0.0949843801666667,-0.0953358821666667,-0.00242228216666668,0.000483499833333345,-0.146770526166667,-0.331848728833333,-0.313841198233333,-0.216026512766667,-0.255866436766667,-0.276893435566667,-0.375389924366667,-0.428151684366667,-0.400407730833333,-0.2956811935,-0.334190086833333,-0.4189584341,-0.4260901781,-0.283433113433333,-0.245960640166667,-0.316525446833333,-0.2999990915,-0.310794029233333,-0.268143174566667,-0.351980497233333,-0.310029372166667,-0.372263822833333,-0.428513086833333,-0.477318370833333,-0.463376482766667,-0.3522315881,-0.2871502681,2406,"DG_s12",22.859,23.562,24.25,24.25,10,26,10,10,0.688,"Right",10,26,16,16,0,16,0,-16,"Disadvent",0,16,10,10,10,26
"97",10,"LOF4-LOF5",-0.15332115625,-0.24961292825,-0.286621262316667,-0.251373835583333,-0.173023508916667,-0.194553670183333,-0.23724109625,-0.295107662916667,-0.371097703583333,-0.340387359583333,-0.345381102383333,-0.129501781716667,-0.08483056705,0.0801193224166667,-0.09012442625,-0.128943828916667,-0.127443068916667,-0.04128001825,0.0381781080833334,-0.01725933325,-0.02523474925,-0.0308246163833333,-0.0610132323833333,-0.134647911716667,-0.264078219583333,-0.297327688916667,-0.31965959625,-0.23260097625,-0.32405285225,-0.170632105583333,-0.0552038609166667,0.0683487830833333,-0.01432588125,-0.116629512583333,-0.234921647916667,-0.229762810916667,-0.227060067916667,-0.142555332583333,-0.0767588985833333,-0.250323941583333,-0.22768538025,-0.272311666916667,2406,"DG_s12",22.859,23.562,24.25,24.25,10,26,10,10,0.688,"Right",10,26,16,16,0,16,0,-16,"Disadvent",0,16,10,10,10,26
"98",10,"RIN3-RIN4",-0.111672373333333,-0.0582647706666667,-0.00861219733333334,-0.0209481973333333,0.0239723006666667,0.122422366666667,0.133897324666667,0.01725142,-0.107296495333333,-0.123144784,-0.0764649986666667,-0.0710399226666667,-0.132508344133333,-0.1395317388,-0.191941665466667,-0.213079266,-0.139765305333333,0.0396035413333333,0.171873983333333,0.304602222666667,0.290524369333333,0.224296281333333,0.121997730666667,0.220562604,0.231001631333333,0.292607315333333,0.196755709333333,0.222649017333333,0.132493564,0.15622197,0.170387815333333,0.178911162666667,0.243128562666667,0.201713407333333,0.138740241333333,0.004231164,0.00795069666666667,0.046649456,0.121650813333333,0.156167907333333,0.105801305333333,0.065211246,2406,"DG_s12",22.859,23.562,24.25,24.25,10,26,10,10,0.688,"Right",10,26,16,16,0,16,0,-16,"Disadvent",0,16,10,10,10,26
"99",10,"RIN2-RIN3",0.096571773,0.073215701,-0.0445035556666667,0.169969293666667,0.219844318333333,0.186191233,-0.063485657,-0.0301808156666667,0.118442053666667,0.310020758333333,0.259537758333333,0.113495913666667,-0.00495978033333333,0.136271159666667,0.1793862524,0.0882576317333333,-0.0772913182666667,-0.097350531,0.002925469,0.031179139,0.0484153796666667,0.0317026688,0.0095337108,0.0225262574666667,-0.00647181166666667,-0.0709793563333333,-0.117533384266667,-0.1580952976,-0.104369260266667,-0.121848808333333,-0.0590801016533333,-0.0340522629866667,0.000969569680000001,-0.0854909736666667,-0.116624873666667,-0.117683777733333,-0.02585038,-0.0458221067333333,-0.0938194733333333,-0.0515560984,0.0252586203333333,0.165093548333333,2406,"DG_s12",22.859,23.562,24.25,24.25,10,26,10,10,0.688,"Right",10,26,16,16,0,16,0,-16,"Disadvent",0,16,10,10,10,26
"100",10,"LOF3-LOF4",0.129113902833333,0.0832782361666667,-0.0116049571666667,-0.0118782271666667,-0.181180187166667,-0.0897054471666667,-0.1269433205,-0.0338994845,-0.0984999405,-0.0281373238333333,0.0108951681666667,0.228451542166667,0.1884531255,0.0675843695,-0.148274713985333,-0.169985022652,-0.184095627985333,-0.167158835833333,-0.195317231833333,0.00815508149999999,0.124972474833333,0.152741612833333,-0.0702338158333333,-0.2000923365,-0.208692069166667,-0.115930985166667,0.0258753755,0.0437134215,0.0936710595,0.0925931328333333,0.171856243306667,0.0517577439733333,-0.04433318336,-0.0842506671666667,0.0983327675,0.351210048166667,0.2707949615,0.0955785543666667,-0.1824803743,-0.185304685766667,-0.199603001966667,-0.104868396633333,2406,"DG_s12",22.859,23.562,24.25,24.25,10,26,10,10,0.688,"Right",10,26,16,16,0,16,0,-16,"Disadvent",0,16,10,10,10,26
"101",11,"RAM7-RAM8",0.146797178833333,0.0273606081,-0.236973865233333,-0.274364622566667,-0.325588693833333,-0.2166312045,-0.0050395285,-0.0180122571666667,0.0059374735,-0.2045411605,-0.165222951166667,-0.109656281833333,0.0664928855,0.0732247342333333,0.0505052615666667,-0.0813045651,-0.1557210425,-0.1668357125,-0.218351685833333,-0.0358442425,-0.0543353828333333,-0.0100936295,0.0202546274333333,-0.0213499375666667,-0.0292671909,-0.206207685166667,-0.1834158265,-0.0769587665,-0.01471461924,0.0812946320933333,0.00200900609333333,0.0780152428333333,-0.0381666618333333,0.0111790161666667,-0.1319845905,-0.1998431305,-0.246609649166667,-0.1720197825,-0.0676883977,-0.0270638703666667,-0.0711658010333333,0.0551129541666667,2407,"DG_s12",25.25,25.953,26.859,26.859,13,22,10,10,0.906,"Right",13,22,9,9,0,9,0,-9,"Disadvent",3,12,10,13,10,22
"102",11,"LOF4-LOF5",0.150069367666667,0.210336124333333,0.1766402796,0.1556615736,0.203510598266667,0.141663563,0.025964229,0.0364462623333333,0.213956287,0.196811430333333,0.201221033,0.081400587,0.192701555,0.140944231,0.131734488333333,0.110846949666667,0.0677255963333333,0.00771961833333333,-0.0894180876666667,-0.172554146333333,-0.183525164333333,0.0412576936,0.106907266933333,0.0468225002666667,-0.16154074426,-0.0749542549266667,0.0233893324066667,0.199364352333333,0.0999212043333333,0.0521708890666667,-0.0761260471333333,0.0327158515333333,0.1100345368,0.0775767463333333,-0.008294741,0.064649695,0.138510889666667,0.0661154956666667,-0.049216607,0.009144585,0.0707214180666667,0.0192407247333333,2407,"DG_s12",25.25,25.953,26.859,26.859,13,22,10,10,0.906,"Right",13,22,9,9,0,9,0,-9,"Disadvent",3,12,10,13,10,22
"103",11,"RIN1-RIN2",-0.178259609033333,-0.1140677049,0.0598540231,0.251231009766667,0.1982935463,0.3285082863,0.282097812966667,0.242704059766667,0.0242462324333333,-0.0407634509,-0.0341728555666667,-0.0729911615666667,-0.1060212329,-0.0241576475666667,0.120779080433333,0.1957485671,0.135022053766667,-0.0989080142333333,-0.220669906233333,-0.206877955566667,-0.0319126822333333,0.0303794731,0.00116139043333333,0.0797265858333333,0.0675254638333333,0.118341317166667,-0.0676915535666667,0.0687804597666667,0.0144645904333333,0.1228586071,0.0073515853,0.0988769866333333,0.0105568333,0.00122702443333333,-0.0299223132333333,-0.0205277952333333,-0.0218744759,-0.0669915335666667,-0.0807340289,-0.0499946669,-0.0938550995666667,0.0693898637666667,2407,"DG_s12",25.25,25.953,26.859,26.859,13,22,10,10,0.906,"Right",13,22,9,9,0,9,0,-9,"Disadvent",3,12,10,13,10,22
"104",11,"LOF3-LOF4",0.0476118624,0.0592109390666667,0.1758608724,0.0597664117333333,0.0386645597333333,0.0691748357333333,0.2542613284,0.2760699564,0.2479432464,0.220487293066667,0.270496629066667,0.2396787264,0.0849811764,-0.0154785209333333,-0.0597908322666667,0.0652936172,0.1606223792,0.148466207866667,0.0347372417333333,-0.140190018266667,-0.112396769733333,0.0975547329333333,0.201112250933333,0.221856379066667,0.0180003897333333,0.0889034717333333,0.0473328237333333,0.2126642444,0.187583407066667,0.245633832533333,0.1767786412,0.151291954533333,0.0871278710666667,0.0697695770666667,0.0484485684,0.0934174610666667,0.0402669844,0.2266788704,0.309020031066667,0.353326093733333,0.1849214424,0.111345425066667,2407,"DG_s12",25.25,25.953,26.859,26.859,13,22,10,10,0.906,"Right",13,22,9,9,0,9,0,-9,"Disadvent",3,12,10,13,10,22
"105",11,"RAM5-RAM6",0.226943474283333,0.160297439616667,0.172791393616667,-0.01746467305,-0.00713669838333333,0.0663038922833333,0.161517724216667,0.0848158046166667,0.0208206206166667,0.0167815486833333,0.22647099495,0.300313668283333,0.329806241616667,0.104677158283333,-0.0177716417166667,0.09045645895,0.146611442283333,0.207977165616667,0.103368239616667,-0.0226706537166667,-0.11214171705,-0.0499464267166667,0.05512442395,0.17381912595,0.123680127616667,0.216072803616667,0.0867405376166667,0.0101821402166667,-0.07593444045,-0.0993827771166667,-0.0721408777166667,-0.197319543716667,-0.15238000505,-0.08587082305,-0.0149968013833333,0.0868635212833333,0.0229550792833333,0.03509362295,-0.0309694543833333,-0.05757398905,0.0246369536166667,0.0964584902833333,2407,"DG_s12",25.25,25.953,26.859,26.859,13,22,10,10,0.906,"Right",13,22,9,9,0,9,0,-9,"Disadvent",3,12,10,13,10,22
"106",11,"RAM6-RAM7",-0.0687203798333333,0.0254153981666667,0.0649292781666667,-0.0785881025,-0.1285107445,-0.198312527166667,-0.100396889833333,-0.0699623195666667,0.0740975791,0.1657419131,0.1047969335,0.0432125221666667,0.0297888121666667,0.0174282121666667,0.0937146141666667,0.0559454305,0.0997990575666667,0.0077172029,-0.0131018201,-0.0494660445,0.0335281648333333,0.000958674833333334,0.0724912008333333,-0.0120092451666667,0.0353667448333333,-0.0259422745,0.00160570816666667,0.0793431255,0.108776310166667,0.0903776781666667,-0.0838962791666667,-0.0864072591666667,-0.0746670425,-0.00207324383333333,0.0920259755,0.0986859955,0.0677931515,0.0826596781666667,0.125509408833333,0.2079325335,0.268722806833333,0.2417374815,2407,"DG_s12",25.25,25.953,26.859,26.859,13,22,10,10,0.906,"Right",13,22,9,9,0,9,0,-9,"Disadvent",3,12,10,13,10,22
"107",11,"RIN3-RIN4",-0.124728506283333,-0.0897230382833333,-0.0343191916166667,0.0238652903833333,0.127710176316667,0.231451954316667,0.215234379716667,0.0876826917833333,-0.0133241488833333,-0.103746069616667,-0.122737204283333,-0.10657415295,-0.0793571362833333,0.15196955305,0.192348766383333,0.209413785716667,-0.00577812961666667,-0.0500208202833333,-0.05980917695,-0.0227570002833333,-0.0138583262833333,0.05979396305,0.143852121716667,0.158294392383333,0.14553113305,0.114384623716667,0.11721623905,0.14762329905,0.0263551303833333,0.06614138305,0.06587998905,0.0525441137166667,-0.0832309342833333,-0.07938047295,0.02716729505,0.110381730383333,-0.05320709695,-0.0824664262833333,-0.03507034695,-0.00196106355,-0.0740936762166667,-0.187064542216667,2407,"DG_s12",25.25,25.953,26.859,26.859,13,22,10,10,0.906,"Right",13,22,9,9,0,9,0,-9,"Disadvent",3,12,10,13,10,22
"108",11,"LOF5-LOF6",-0.05500086745,-0.143752564783333,-0.12727504545,-0.09069493145,-0.151189960783333,0.01114459055,0.0314057838833333,0.03321357055,-0.00630529345,-0.07610433345,0.0110403648166667,0.0424392504833333,0.0790184058166667,0.0502967702166667,0.00669328121666667,0.104788599216667,0.14006641455,0.0478635512166667,-0.0780924967833333,-0.08178154345,0.0247077692166667,0.0422819068166667,0.04784092615,0.02349640015,-0.0200555121166667,-0.0544425467833333,0.0115770858833333,0.06563454455,0.07016676055,-0.0521720401166667,-0.05510864945,-0.0329752741166667,0.00366623655,0.0181661878833333,0.00806168921666667,-0.0878567727833333,-0.05102863945,-0.0194419147833333,0.171795895883333,0.0710366778833333,0.05468392655,-0.0972764981166667,2407,"DG_s12",25.25,25.953,26.859,26.859,13,22,10,10,0.906,"Right",13,22,9,9,0,9,0,-9,"Disadvent",3,12,10,13,10,22
"109",11,"RIN2-RIN3",0.181193334966667,0.160897961633333,0.197902030666667,0.235433188,0.238431162333333,0.163856494633333,0.162443940633333,0.147072924366667,0.144256923033333,0.0796533190333333,0.0866597403,0.127588277233333,0.1540340279,0.1038202319,0.0188342889666667,0.109919011166667,0.146985339166667,0.1161026085,0.0567588543,0.109558102966667,0.2677102643,0.3465343503,0.3243834923,0.249451417633333,0.174691560166667,0.1126549173,0.0401262019666667,0.1732608261,0.201566417633333,0.3234639743,0.230540452966667,0.146708316966667,0.1088567343,0.0711271856333333,0.1051213783,-0.0514736950333333,-0.0458644757,0.0234977403,0.185566739633333,0.235228306766667,0.137096956766667,0.0776833721,2407,"DG_s12",25.25,25.953,26.859,26.859,13,22,10,10,0.906,"Right",13,22,9,9,0,9,0,-9,"Disadvent",3,12,10,13,10,22
"110",11,"LIN1-LIN2",-0.00749878766666667,0.152899939666667,0.216473159,0.280631425666667,0.260471622333333,0.320313287666667,0.1249599172,0.125969566533333,-0.00166044906666667,0.140488034733333,0.187570068733333,0.398872832333333,0.239941445666667,0.145990382,-0.0755216846666667,-0.0405223553333333,-0.028079273,0.00692360833333333,-0.00189371833333334,-0.0103693663333333,-0.0391725956666667,-0.123222145,-0.217737716333333,-0.125833621666667,-0.105856915,-0.0164563676666667,-0.046041193,0.00635332233333333,0.022466135,-0.030771675,-0.0415452373333333,-0.009864862,-0.0398618921333333,0.0325612237333333,-0.00526259493333333,0.0132036672,-0.0647459583333333,-0.0864051356666667,-0.132957065666667,-0.1419656412,-0.184706070533333,-0.1902539172,2407,"DG_s12",25.25,25.953,26.859,26.859,13,22,10,10,0.906,"Right",13,22,9,9,0,9,0,-9,"Disadvent",3,12,10,13,10,22
"111",12,"RAM7-RAM8",0.0285686095,-0.0394707305,-0.0611024905,0.152505342166667,0.210579713366667,0.257299064033333,0.0787037840333333,0.0901766655,0.0966951705,0.100702285833333,0.0341651451666667,-0.0308454553666667,0.000285175966666662,0.354532969966667,0.4141243795,0.4807758495,0.327774582833333,0.333205276166667,0.244749958166667,0.1738747115,0.114036952833333,0.163236400833333,0.0726098275,0.0425789528333333,-0.116457733833333,-0.1637085585,-0.0804232985,-0.0163010251666667,-0.0316462591666667,-0.0304649765,-0.0099513725,0.0627849808333333,0.109743418166667,0.226641156166667,0.16597713448,0.108026279146667,-0.0196514628533333,-0.0975315825,-0.0623462509666667,-0.0340873769666667,0.162947527433333,0.176169173233333,2408,"DG_s12",27.859,28.562,29.469,29.469,16,4,10,10,0.907,"Left",16,4,12,12,0,0,-12,12,"Advent",6,-6,16,10,4,10
"112",12,"LOF3-LOF4",0.101570995833333,0.0890406378333333,0.0248315331666667,-0.0474131201666667,0.0325542331666667,0.0582788071,-0.0680054938333333,-0.1587915725,-0.0212130684333333,0.0571454171666667,0.1439400467,0.0561142467,-0.0128285846333333,-0.0133434361666667,0.232568523833333,0.291105557166667,0.1792035065,-0.0613523411666667,-0.135522971166667,-0.122609013833333,-0.185256824166667,-0.2448683595,-0.241763322833333,-0.250863845966667,-0.103873113966667,0.1247395767,0.130556691166667,0.110999921833333,-0.109589260833333,-0.0946012508866667,-0.0463903915533333,0.0661830084466667,0.0703453945,0.1219972845,0.0552065565,0.0956239658333333,0.1160913525,0.0485591585,-0.00870393530000001,-0.150969741966667,-0.1265850193,-0.1377837015,2408,"DG_s12",27.859,28.562,29.469,29.469,16,4,10,10,0.907,"Left",16,4,12,12,0,0,-12,12,"Advent",6,-6,16,10,4,10
"113",12,"RIN1-RIN2",0.103166764966667,0.0218202596333333,-0.0914434403666667,0.00228406303333334,0.135344870366667,0.124149842366667,0.0437992907,0.0194223833666667,0.1598768167,0.259729527166667,0.1976207285,0.1354174905,0.115443269833333,0.160158779833333,0.2564910785,0.314020225166667,0.360861981166667,0.177685701833333,0.0197922018333333,-0.0952853648333333,0.0167328285,0.168245795166667,0.303593321833333,0.348657175166667,0.392507807166667,0.351852149446667,0.252922289446667,0.229432017446667,0.182646673833333,0.2354063505,0.188196669833333,0.142540281833333,0.138075566633333,0.0898346739666667,0.0794396699666667,0.183276121833333,0.2801092545,0.392059999766667,0.233511707433333,0.149370185433333,0.141470254833333,0.182042519833333,2408,"DG_s12",27.859,28.562,29.469,29.469,16,4,10,10,0.907,"Left",16,4,12,12,0,0,-12,12,"Advent",6,-6,16,10,4,10
"114",12,"LIN1-LIN2",0.290527474666667,0.282485865333333,0.190612309333333,0.189014082666667,0.182124578666667,0.116569376,-0.0852894106666667,-0.112783525333333,-0.090495692,-0.01314903,-0.00339591333333334,0.01243839,-0.023533214,-0.0429910306666667,-0.111749678,-0.0483544106666667,0.0146111206666667,0.0844429026666667,0.119456630666667,0.115464743333333,0.124368481333333,0.110161598,0.142178258666667,0.0172471786666667,-0.141383958,-0.149928858,-0.0288167993333333,-0.015719468,-0.156645641333333,-0.145213156,-0.0581825253333333,0.025092288,0.08096391,0.0192787086666667,0.0306737930666667,0.0250062937333333,0.0464233224,0.0931523313333333,-0.0116206773333333,-0.00174576733333334,-0.121366733333333,-0.0172551366666667,2408,"DG_s12",27.859,28.562,29.469,29.469,16,4,10,10,0.907,"Left",16,4,12,12,0,0,-12,12,"Advent",6,-6,16,10,4,10
"115",12,"RIN3-RIN4",0.09145323585,0.0831886425166667,0.13081622985,0.0587575585166667,0.02036084585,0.11456532055,0.0963343428833333,0.19733058955,0.03350758085,-0.0726000434833333,-0.132210845483333,0.04874933565,0.29474903565,0.27104207965,0.282832532516667,0.10673609585,0.14831123985,0.142041267183333,0.218429030516667,0.176151744516667,0.10662260385,0.02434790385,0.123122861183333,0.102585108516667,0.107165098383333,0.0999602183833333,0.0985987577166667,0.28417828785,0.293624390516667,0.268823398516667,0.146288062516667,0.0572001311833333,0.0984587025166667,0.0941136185166667,0.0950291031833333,-0.0170336430665333,-0.204207147066533,-0.1532401637332,-0.0605814668166667,0.04793129385,-0.04611590235,-0.0160813390166667,2408,"DG_s12",27.859,28.562,29.469,29.469,16,4,10,10,0.907,"Left",16,4,12,12,0,0,-12,12,"Advent",6,-6,16,10,4,10
"116",12,"RAM6-RAM7",0.0815771247,0.114258989366667,0.0918768940333333,-0.0198005373,0.0797500980333333,0.143916640033333,0.360365740033333,0.262314481366667,0.208948989633333,-0.0134865037,-0.0201457497,-0.0772254127,0.0365807113,0.226195389966667,0.277665704033333,0.2197719159,0.0147979859,0.0299706132333333,0.178486514033333,0.2204143187,0.2576980587,0.0936629280333333,0.00450789803333333,0.0117816447,-0.0123864897,0.0466835263,0.0171867043,0.103769483966667,0.157533242633333,0.1169606019,0.144435695966667,0.132573132433333,0.162106645833333,0.123551293833333,0.176946701366667,0.1095896369,0.0460270975666667,-0.0410509904333333,0.0257773825666667,0.106824871233333,0.122480876566667,0.0817020973666667,2408,"DG_s12",27.859,28.562,29.469,29.469,16,4,10,10,0.907,"Left",16,4,12,12,0,0,-12,12,"Advent",6,-6,16,10,4,10
