"","trial","electrodes","bin_1","bin_2","bin_3","bin_4","bin_5","bin_6","bin_7","bin_8","bin_9","bin_10","bin_11","bin_12","bin_13","bin_14","bin_15","bin_16","bin_17","bin_18","bin_19","bin_20","bin_21","bin_22","bin_23","bin_24","bin_25","bin_26","bin_27","bin_28","bin_29","bin_30","bin_31","bin_32","bin_33","bin_34","bin_35","bin_36","bin_37","bin_38","bin_39","bin_40","bin_41","bin_42","bin_43","X","SID","newround_time","choice_time","buttonpress_time","reveal_time","self_payoff","other_payoff","self_foregone","other_foregone","RT","side_chosen","self_var_payoff","other_var_payoff","ineq_var_abs","ineq_choice_abs","ineq_foregone_abs","ineq_disadvent","ineq_advent","ineq_choice","chose_equality","self_diff","other_diff","L_self","R_self","L_other","R_other"
"1",1,"LOF3-LOF4",0.0396820399,-0.0581588599,-0.0396820399,-0.1119630579,-0.2230361749,-0.1112711029,0.0465384871,0.2123499851,0.2566930431,0.2981134731,0.3794739421,0.1107847701,-0.0135049889,0.0740346511,0.0160802831,0.1805879591,0.5462967591,0.5809560851,0.1973431831,0.2369330281,0.4043495711,0.0860412081,-0.0457650259,0.1189389691,0.0687803221,0.1853469751,0.2461655821,0.1053370311,0.3559961841,0.2715504781,-0.0522985459,-0.0851253559,-0.0749051939,0.0199717019,0.0915084529,0.0503636401,-0.0147809519,-0.0938129809,0.0707357641,0.1886261371,0.0946314211,0.0703289111,0.2072510891,2397,"DG_s12",-0.703,0,0.75,0.75,10,18,10,10,0.75,"Right",10,18,8,8,0,8,0,-8,"Disadvent",0,8,10,10,10,18
"2",1,"RIN3-RIN4",0.0938964406,-0.1026758926,-0.0938964406,-0.1257502286,0.0952593624,0.0477788304,-0.2037002206,-0.1983046911,-0.2349042861,-0.1652537586,-0.0768669366,-0.2052507516,-0.3421006016,-0.0720510136,0.283130457,0.00728849699999998,-0.1911214136,-0.0234811536,0.1584531064,0.3225810764,0.1518875084,0.0488136284,-0.0982290336,-0.2645084536,-0.0926413236,0.0822647204,-0.0628444696,-0.1151987486,0.0199132744,0.0082949594,-0.0606310199,0.0436647997,0.319845616,0.1346369125,-0.1221971145,-0.1000547396,-0.0225404806,0.0919084046,-0.0892031574,-0.2049212736,0.0952225764,0.3761984964,0.0492186445,2397,"DG_s12",-0.703,0,0.75,0.75,10,18,10,10,0.75,"Right",10,18,8,8,0,8,0,-8,"Disadvent",0,8,10,10,10,18
"3",1,"RIN2-RIN3",-0.0947070104,0.0373958376,0.0947070104,0.0143710004,-0.0322642766,-0.0504666236,0.0369051474,0.2531927054,0.303301532,0.362583452,0.4422454734,0.1279987534,-0.1118821286,0.2274591024,0.3394654924,0.1631234644,0.1675104424,0.2823742894,0.1928967404,0.0410199564,0.0738836674,0.1529444914,0.195814724,0.182300374,0.3441809634,0.3503664834,0.1144116914,0.1218187534,0.0492402634,0.0577633306,0.1240748006,-0.0662224576,-0.0330880932,0.0897228958,0.0310265764,-0.0204072676,0.2123953374,0.5983659854,0.3618555704,0.0184702254,0.1858770774,0.3838414984,0.3214949014,2397,"DG_s12",-0.703,0,0.75,0.75,10,18,10,10,0.75,"Right",10,18,8,8,0,8,0,-8,"Disadvent",0,8,10,10,10,18
"4",1,"RAM7-RAM8",0.031728326,-0.00783689599999998,-0.031728326,-0.018350029,0.080035021,-0.010544629,-0.079345259,0.124070121,0.136642655,0.018530435,-0.121631369,-0.195360519,-0.092483819,-0.104082569,-0.149014277,-0.19850159,-0.039482772,0.144257474,-0.001773424,-0.143192642,-0.248085474,-0.032883609,0.104302951,-0.011235207,0.053378473,-0.032018485,-0.108954545,-0.219941189,-0.289192789,0.06346175236,0.14197550336,-0.04136743,-0.05941664,0.145573012,0.237460381,0.066937726,-0.02634481,-0.171124875,-0.203452534,-0.102525904,-0.227443587,-0.193819882,-0.175567094,2397,"DG_s12",-0.703,0,0.75,0.75,10,18,10,10,0.75,"Right",10,18,8,8,0,8,0,-8,"Disadvent",0,8,10,10,10,18
"5",1,"RAM6-RAM7",0.0162399185,-0.1727713315,-0.0162399185,0.0078107395,-0.1406186724,-0.0764113774,0.0098334565,0.0238755295,-0.0562637816,0.0789831124,0.1110329375,-0.1504620325,-0.2325266425,-0.0416917565,-0.0474732055,0.008111216,0.028534679,-0.0304284055,0.0586194085,-0.0403640565,-0.0069342005,0.2153920915,0.2328126085,0.0250233085,0.0584058815,0.1015709165,-0.1525009735,-0.0450906285,0.0828350815,-0.0399116165,0.0880259085,0.3089948365,0.2606458425,0.1249276385,0.0282671885,-0.0736484475,-0.1187839226,-0.1050294326,-0.1269558185,-0.2338765575,-0.1244067595,-0.1144633805,-0.2910976385,2397,"DG_s12",-0.703,0,0.75,0.75,10,18,10,10,0.75,"Right",10,18,8,8,0,8,0,-8,"Disadvent",0,8,10,10,10,18
"6",1,"LOF5-LOF6",-0.1636797105,0.0160161235,0.1636797105,0.0714338805,0.0336066275,0.0232204895,0.0748807525,0.0679918885,-0.1509991155,-0.0785252435,0.0354447385,-0.1279901455,-0.0646795041,0.0525959139,0.0719780775,0.1314014735,0.1195145225,0.0938263525,0.1607520765,0.2194488225,0.1155459855,0.1480840725,0.1723791603,0.0322615773,0.0886406035,-0.0556804965,-0.1871279335,0.0323463955,0.1345365965,-0.0512866695,-0.1840434115,-0.0887615545,0.00713965350000001,0.0263214165,-0.01131928674,0.01161972526,0.1201124475,0.0695299412,-0.0420166788,0.1844296825,0.2832084865,0.0709899615,0.0362218865,2397,"DG_s12",-0.703,0,0.75,0.75,10,18,10,10,0.75,"Right",10,18,8,8,0,8,0,-8,"Disadvent",0,8,10,10,10,18
"7",1,"RAM5-RAM6",-0.11196864133,0.13221537333,0.11196864133,-0.29234415867,-0.4201284776,-0.2203181736,-0.28560393127,-0.28710875297,-0.13022356637,-0.02729711867,0.05322499133,-0.02241189567,-0.17752074067,-0.22626162167,-0.25948201027,-0.19296753227,-0.09697977867,-0.11790858067,-0.10536027867,-0.02997380967,0.13965118833,0.23819149433,0.05580773533,-0.12717431417,-0.08562824317,-0.06285185967,-0.10831598167,-0.22006592747,-0.26435545547,-0.15087694667,-0.16944325867,-0.14324566867,0.00367957132999999,-0.04178744067,-0.11407473167,-0.13374905967,-0.23629336147,-0.23317965217,-0.12124339437,-0.22005330267,-0.18303709267,-0.21605195367,-0.17919606867,2397,"DG_s12",-0.703,0,0.75,0.75,10,18,10,10,0.75,"Right",10,18,8,8,0,8,0,-8,"Disadvent",0,8,10,10,10,18
"8",1,"LOF4-LOF5",0.06263765,0.0979945,-0.06263765,0.0984108,-0.054282739,-0.2914419946,-0.1285676356,-0.213948522,-0.341662004,-0.340809037,-0.089311515,0.064236594,0.044957623,-0.05100487,-0.177525319,-0.101081138,-0.042092732,-0.167669148,-0.202991794,-0.055741198,-0.152278328,-0.013332452,0.025146581,-0.101960395,-0.002855516,0.012167391,-0.047695977,-0.220807226,-0.1413310651,0.0502565269,-0.084378998,-0.147635298,-0.058648373,0.071744594,-0.041075945,-0.378954044,-0.345607917,-0.038492866,-0.028278135,-0.255158511,-0.189330054,-0.064299819,-0.089991401,2397,"DG_s12",-0.703,0,0.75,0.75,10,18,10,10,0.75,"Right",10,18,8,8,0,8,0,-8,"Disadvent",0,8,10,10,10,18
"9",1,"RIN1-RIN2",0.1331636545,0.0412764475,-0.1331636545,-0.0445733805,0.1266796995,0.0966162155,-0.1255032745,0.0367543945,0.2708756945,0.2137981555,0.2696884955,0.2735692935,0.1699788188,0.1321875668,0.2100798515,0.2256344455,0.0982772895,0.1281885195,0.1306015635,0.1830760695,0.4075537195,0.4090606835,0.2563421865,0.2555311865,0.3690683155,0.2171247855,0.0770965195,0.1216187318,0.0289919748,-0.0624999295,-0.00816925349999999,0.0548395385,0.1138859025,0.1336487765,0.0271918565,0.0407555225,0.2884033955,0.5576274755,0.4165231575,0.1050291475,-0.0402069255,-0.1074154795,-0.0484751085,2397,"DG_s12",-0.703,0,0.75,0.75,10,18,10,10,0.75,"Right",10,18,8,8,0,8,0,-8,"Disadvent",0,8,10,10,10,18
"10",1,"LIN1-LIN2",0.01665581917,-0.05131438917,-0.01665581917,-0.06170031717,0.00293318383000001,0.15693939883,0.23045111783,0.14860015483,0.02800468983,0.12586701183,0.29223486683,0.18191214573,-0.00374375427,0.08818036183,0.26924251183,0.29733976083,0.10747718003,0.16422919203,0.23195884283,0.06134409983,-0.09241929217,-0.06076799217,-0.00877321416999999,0.09279526083,0.05491733483,-0.10826642267,-0.09395046367,-0.03555953817,0.07328739983,0.02862019183,-0.10016610517,-0.17078610417,-0.08948778997,-0.11460416697,-0.06238677117,0.03307154783,-0.02670272417,-0.02654431417,-0.11401807217,0.04348318383,-0.04119948617,-0.04491202517,-0.06102672517,2397,"DG_s12",-0.703,0,0.75,0.75,10,18,10,10,0.75,"Right",10,18,8,8,0,8,0,-8,"Disadvent",0,8,10,10,10,18
"11",2,"RAM7-RAM8",0.1330297645,-0.0288347445,-0.1330297645,-0.1213980765,-0.2032780265,-0.1497989755,-0.0243463655,0.0538885925,0.0381675425,-0.0226605965,0.1281713712,0.0210940822,0.0175398615,0.1501772915,-0.0042338995,-0.0465584765,0.0482990775,0.0622160745,-0.0337664435,-0.0201363315,-0.0550665835,0.0188311235,0.1554628035,0.4843778145,0.6378181745,0.1079030533,-0.2996949767,-0.3091670855,-0.2423119155,0.0427641959,0.0408193159,-0.081300684,0.025655226,0.0805504145,0.1410077995,0.0517242747,-0.0793370304,-0.0056656776,0.0329962915,-0.0504836735,0.0996947815,0.1833299385,-0.1023457655,2398,"DG_s12",1.75,2.453,3.375,3.375,12,12,10,10,0.922,"Left",12,12,0,0,0,0,0,0,"Equal",2,2,12,10,12,10
"12",2,"RIN1-RIN2",-0.1130736661,0.0059422379,0.1130736661,0.1815142421,0.1910244009,0.2707529559,0.3100895749,0.0974095879,-0.0416972701,-0.1197769381,-0.0490357281,0.0430921619,-0.0705957351,-0.0712525951,-0.0160421281,-0.0047663761,0.1182155129,0.1013440849,0.0819377469,0.0868729909,0.0771904636,0.1882505916,0.1805494239,0.0804234079,0.0839656419,0.0699470909,0.0621118709,0.2219449919,0.1427094009,0.0981751599,0.0462835409,0.1605123819,0.2832576705,0.0376238495,-0.1034448991,-0.2473692081,-0.1978973381,0.0189002734,0.0954599594,0.066610661,0.070771318,-0.0798329841,-0.0027899671,2398,"DG_s12",1.75,2.453,3.375,3.375,12,12,10,10,0.922,"Left",12,12,0,0,0,0,0,0,"Equal",2,2,12,10,12,10
"13",2,"RIN2-RIN3",-0.1923540275,0.00259380749999999,0.1923540275,0.022940514,-0.186579296,-0.0868327145,-0.0918959514,-0.1669542284,0.0519889085,-0.0435941025,-0.1843751765,0.0450765426,0.0582832096,-0.1455799718,-0.2059133598,-0.1599203665,-0.1604318419,-0.1456766329,-0.1185006375,-0.1017337227,0.0886485223,0.2485301775,-0.00227905350000002,-0.0418441135,0.1244410875,-0.0655152285,-0.2844624955,-0.1084634895,-0.0639120635,-0.1449117165,-0.1013441775,0.0154623855,-0.00151117359,-0.21464900639,-0.2648420861,-0.3313587133,-0.3565221625,-0.2064812995,-0.2065888693,-0.1381309353,-0.00772654850000001,-0.0346251207,0.0542703823,2398,"DG_s12",1.75,2.453,3.375,3.375,12,12,10,10,0.922,"Left",12,12,0,0,0,0,0,0,"Equal",2,2,12,10,12,10
"14",2,"RAM5-RAM6",0.0420486285,-0.0571419085,-0.0420486285,-0.1845397435,-0.1673130145,0.1190224243,0.1548967873,-0.0320801015,0.1039520015,0.2516682175,0.0875150675,-0.1084332895,0.018565001,0.309314642,0.1656050325,-0.0356666855,-0.1027392015,-0.16797742675,-0.13172677475,-0.1971063015,-0.2926218375,-0.1245490675,-0.0881568765,-0.2485671458,-0.2750972558,-0.13694528242,-0.08070508842,0.00677114349999999,-0.0024786155,-0.3172831515,-0.3015133245,-0.0730968715,0.0381526475,-0.0803340815,-0.3355249425,-0.3782921565,-0.3412153365,-0.2777099735,-0.0094393135,0.1885287935,0.3136230635,0.3555183235,0.3118692235,2398,"DG_s12",1.75,2.453,3.375,3.375,12,12,10,10,0.922,"Left",12,12,0,0,0,0,0,0,"Equal",2,2,12,10,12,10
"15",2,"LOF4-LOF5",0.0428048761,0.0589048829,-0.0428048761,-0.1641443043,-0.1107812113,-0.1095184311,0.0357068629,0.1795055794,0.0917647304,0.1945517859,0.1105136839,-0.1105149721,-0.2007221151,-0.1436291101,-0.2244465131,-0.2831638721,-0.1164329497,0.0249388463,0.0819677119,-0.045526506,0.085406309,0.0112708279,-0.1991026681,-0.2120817581,-0.2768140921,-0.0460192671,0.0736052409,0.051118566,0.201590858,0.2319328049,0.00730024064,0.04026215664,-0.0238865901,-0.2821134851,-0.2289363341,-0.2048869391,-0.0588525471,0.1077685529,0.0458264649,-0.1048436311,-0.1662914051,-0.1441834591,-0.1752761351,2398,"DG_s12",1.75,2.453,3.375,3.375,12,12,10,10,0.922,"Left",12,12,0,0,0,0,0,0,"Equal",2,2,12,10,12,10
"16",2,"LOF5-LOF6",-0.00152144875,-0.04747561625,0.00152144875,0.01154121775,-0.01169584125,0.16916224975,0.25435625075,0.13333064775,0.12060093245,0.33920257545,0.30390991275,0.11473037975,0.13005912075,0.07400400075,0.19534857075,0.17252859605,0.24960577605,0.37515220575,0.21270692575,0.37669107375,0.34788898875,-0.00345518524999999,-0.06142043925,0.09083929475,0.24475444875,0.17766619865,0.29288197365,0.25924006375,0.12872796275,0.35249506275,0.33680763675,0.18996625675,0.19860195475,0.19170068375,0.12506579275,0.02538083375,0.27879142375,0.30165778975,-0.00899809825,-0.02956800425,-0.00281749025,0.07719502375,0.09963768275,2398,"DG_s12",1.75,2.453,3.375,3.375,12,12,10,10,0.922,"Left",12,12,0,0,0,0,0,0,"Equal",2,2,12,10,12,10
"17",2,"LIN1-LIN2",0.0259597465,-0.0714506015,-0.0259597465,0.1150843265,0.0311377775,-0.1195368145,-0.1905723235,-0.0278341175,0.00694865346,-0.00514075654,0.1213331883,0.3531502383,0.5170866815,0.2262014315,0.1284033415,0.2038767615,0.0597729412,-0.0570227498,-0.00683655950000001,-0.1102294425,-0.1226244025,-0.0188754605,0.1231660695,0.1260062346,-0.1542818254,0.0524491715,0.3359105015,0.2342446705,-0.0613510945,-0.1164405235,-0.00800787850000001,0.0574697425,0.1006114465,0.1362061455,0.1354285505,0.0026253735,-0.0151871224,-0.1379721234,0.0045419835,-0.0190452985,-0.1585738965,-0.0688327625,-0.0643598005,2398,"DG_s12",1.75,2.453,3.375,3.375,12,12,10,10,0.922,"Left",12,12,0,0,0,0,0,0,"Equal",2,2,12,10,12,10
"18",2,"RAM6-RAM7",0.0228990439,0.0748709881,-0.0228990439,-0.0441713941,0.0245594569,0.0174688539,0.0371585169,-0.0057110215,-0.0555616345,-0.0223038651,-0.0828691251,-0.2250320351,-0.1205326251,0.1649763649,0.0334594349,-0.1354272851,-0.157545963766,-0.078800531766,0.029298170699,-0.037983378301,-0.1063413463,-0.0859256793,-0.0114440551,0.0112365249,0.1230451549,0.1034494499,0.1581919299,0.2887700749,0.2539504349,0.2455192159,0.0538826149,-0.0434857121,0.0979683289,0.1553940949,-0.0447459661,-0.1704208181,-0.20586752295,-0.17057020995,-0.008412807,0.099367972,0.1238071649,0.0028823689,-0.0502501211,2398,"DG_s12",1.75,2.453,3.375,3.375,12,12,10,10,0.922,"Left",12,12,0,0,0,0,0,0,"Equal",2,2,12,10,12,10
"19",2,"RIN3-RIN4",0.06619679525,0.05272054925,-0.06619679525,-0.15002135512,-0.22329918062,-0.05907719475,-0.02626964575,-0.12037287875,-0.20943636575,-0.21784181275,-0.26787406475,-0.29946581075,-0.11958891475,-0.21707208475,-0.17300622075,0.00988653924999999,-0.00371052375,-0.06513601375,-0.01936864275,0.19724862925,0.06516704525,-0.19340078575,-0.23946052275,-0.26489729375,-0.10005453275,0.06886562425,-0.00230739874999999,-0.00505545874999999,0.02271138925,0.09209648225,0.02886422825,0.08489050825,0.05091931025,-0.23691214975,-0.19654993075,-0.20448419775,-0.32800776075,-0.26604988775,-0.05592541475,-0.05475349575,-0.04896319575,-0.04010647675,-0.04954880675,2398,"DG_s12",1.75,2.453,3.375,3.375,12,12,10,10,0.922,"Left",12,12,0,0,0,0,0,0,"Equal",2,2,12,10,12,10
"20",2,"LOF3-LOF4",-0.0952301855,-0.0137757895,0.0952301855,0.0297883215,-0.1746176105,-0.1622018165,-0.28214602,-0.374448623,-0.2173807675,-0.0697665045,0.1143376655,-0.0555156195,0.0147716805,0.2376331155,-0.0150727945,-0.1723568875,-0.2198891815,-0.4277957385,-0.3654039345,-0.0146000625,0.1315542375,0.0178221855,-0.2323667185,-0.2595163832,-0.2452387732,-0.1994226145,-0.1967831575,-0.2191500135,0.0324856995,0.3232856485,0.1804665425,0.00746405550000001,-0.2522827145,-0.4577080754,-0.3389954444,-0.3126263925,-0.1340504195,-0.1177539295,-0.1521824035,-0.00371031449999998,-0.1203655145,-0.1957652845,-0.1253594645,2398,"DG_s12",1.75,2.453,3.375,3.375,12,12,10,10,0.922,"Left",12,12,0,0,0,0,0,0,"Equal",2,2,12,10,12,10
"21",3,"LOF5-LOF6",-0.150650559,0.184365128,0.150650559,0.086789665,0.081186098,-0.295090432,-0.361478191,-0.258484694,-0.162310749,-0.177771345,-0.223202835,-0.25568924,-0.161917543,-0.054101609,-0.128014461,-0.240993281,-0.397882931,-0.367009077,-0.018058712,0.1140594358,-0.0870743952,-0.020915337,-0.0212764878,-0.1650130578,-0.142640105,0.039381645,0.124664554,-0.086393476,-0.078129166,-0.152802839,-0.327873379,-0.342481676,-0.360408323,-0.474549086,-0.342076839,-0.085077898,-0.022732048,-0.134269166,-0.230898466,-0.285431956,-0.224532756,0.041526304,-0.079003179,2399,"DG_s12",4.375,5.078,5.969,5.984,10,10,8,8,0.891,"Left",8,8,0,0,0,0,0,0,"10-10",2,2,10,8,10,8
"22",3,"RAM6-RAM7",-0.1048807445,0.1174485605,0.1048807445,-0.2411969555,-0.2076368555,-0.0344861355,0.0397105715,0.1474477515,0.1259486018,0.0852720318,0.1801056105,0.1070961465,0.0116874225,0.0697865965,0.2022618825,0.1993509425,0.1444901635,-0.1268913365,-0.3386579795,-0.1862816495,-0.0404502625,-0.0232531735,0.0125417815,-0.1398393165,-0.1111903565,0.0189829225,-0.1418167345,-0.0222395145,0.0032260615,-0.2019210295,-0.1537642825,-0.0579856325,-0.1433049415,-0.1108461507,0.0687827773,0.1029605075,-0.12046616912,-0.16203976912,-0.1344574475,-0.0662910665,-0.0825771155,-0.0706189565,0.0664050675,2399,"DG_s12",4.375,5.078,5.969,5.984,10,10,8,8,0.891,"Left",8,8,0,0,0,0,0,0,"10-10",2,2,10,8,10,8
"23",3,"LOF3-LOF4",-0.012565864,-0.008059869,0.012565864,-0.013101757,-0.179558393,-0.17864952,-0.0805831252,-0.0704173304,-0.0268001522,0.003490983,-0.089029521,-0.066545464,-0.011115796,0.096802485,0.174222128,0.072130973,0.147097979,0.269544816,0.171464588,0.198997623,0.276881578,0.022287901,-0.016297026,0.235949386,0.247001675,0.035582436,-0.08427158,-0.001310887,0.171878804,0.25204475,0.091049194,0.107342554,0.051410894,-0.074735413,-0.02761378,0.031642997,0.22613748,0.49431888,0.255551405,-0.2104342639,-0.0573967289,-0.05350881,0.00890935,2399,"DG_s12",4.375,5.078,5.969,5.984,10,10,8,8,0.891,"Left",8,8,0,0,0,0,0,0,"10-10",2,2,10,8,10,8
"24",3,"LOF4-LOF5",0.056661185205,0.030581589205,-0.056661185205,0.011903411795,0.166393027795,0.099536990795,-0.000224215205000001,0.050943946795,0.160976205795,0.337392503795,0.247885612795,-0.096007207205,-0.029829191205,0.170370775795,0.236505529295,0.237239645495,0.251442526995,0.277793043795,0.012789260795,-0.058371617205,0.043263483795,0.135622871295,0.065135399295,0.072293426795,0.271634779795,0.306541302795,0.139494849495,-0.056861044505,-0.131285163205,-0.092834707205,-0.020262652205,0.022448732795,0.137453267795,0.006037080795,-0.010898759205,0.087133160795,0.150032590795,0.269915687795,0.387320537795,0.251070926495,0.010446864495,0.102211089795,0.250063231795,2399,"DG_s12",4.375,5.078,5.969,5.984,10,10,8,8,0.891,"Left",8,8,0,0,0,0,0,0,"10-10",2,2,10,8,10,8
"25",3,"RIN1-RIN2",0.1698521373,-0.0260036041,-0.1698521373,-0.1709633259,-0.0668449087,-0.0579450987,-0.2085629267,-0.2019742147,-0.1391554547,0.1582885753,0.3177006503,0.2084952303,0.1345498533,0.0847074233,0.1492806325,0.0788584875,0.0797597243,0.1166409683,-0.0014521187,-0.1283320277,-0.1145468107,-0.0572499017,-0.0714116457,-0.0287907747,-0.0764320117,-0.1246447567,0.0654125243,0.1348694593,0.0690843993,0.0170186935,0.0827879445,0.0665630203,-0.1552154851,-0.1341847571,-0.0299371607,-0.00720735669999999,0.1724230113,0.2525743063,0.1427542363,0.0993123533,0.1539081243,0.2906852003,0.1762046073,2399,"DG_s12",4.375,5.078,5.969,5.984,10,10,8,8,0.891,"Left",8,8,0,0,0,0,0,0,"10-10",2,2,10,8,10,8
"26",3,"LIN1-LIN2",0.0175460555,-0.1140815335,-0.0175460555,0.00193134950000001,0.0333039315,0.2198512585,0.0954268885,0.1632953445,0.2347583335,0.1175236585,0.0573276945,0.2092931305,0.4767641755,0.4915696855,0.4226285555,0.4931068805,0.4649192065,0.2642905535,0.1807557265,0.2141469835,0.2042313967,0.2411956877,0.4094826355,0.3039157475,0.0014762175,-0.0287126045,0.0825410355,-0.0446874345,-0.1807576945,-0.2142186745,-0.0362146013,0.1411477694,0.2128840162,0.2083022755,0.1646842095,0.1243917005,0.2410614965,0.4190874255,0.2712022855,0.1701256529,0.0711545529,-0.0500673045,-0.0447207885,2399,"DG_s12",4.375,5.078,5.969,5.984,10,10,8,8,0.891,"Left",8,8,0,0,0,0,0,0,"10-10",2,2,10,8,10,8
"27",3,"RAM7-RAM8",0.015912003,0.009389782,-0.015912003,0.154865271,0.3502739921,0.1296459761,-0.098450665,0.037356806,0.417397696,0.397904996,0.044963206,0.0098416539,0.0180783679,-0.139935412,0.131574464,0.3273246,0.09384258,0.1946840492,0.3199365192,0.183546783,0.121291513,-0.076602174,-0.06635599,0.181329589,0.015644057,0.0234978422,0.1505298402,0.033673346,0.071453075,0.1009951361,0.0073691201,-0.124157511,-0.088518461,0.061428341,0.094967365,0.140256717,0.12315516,0.248487015,0.388351335,0.196654898,0.276774741,0.331065725,-0.0086428101,2399,"DG_s12",4.375,5.078,5.969,5.984,10,10,8,8,0.891,"Left",8,8,0,0,0,0,0,0,"10-10",2,2,10,8,10,8
"28",3,"RIN2-RIN3",0.147419471,-0.024009271,-0.147419471,-0.237379571,-0.236778595,-0.025082615,0.023252972,-0.047817771,-0.05799337546,0.18614939454,0.284330612,0.188757615,0.181465079,0.129228557,-0.017270318,-0.235361933,-0.169948193,-0.093738171,-0.1341131623,0.0117623527,0.051403368,-0.0494270795,-0.0846884995,-0.058679224,0.0821772492,0.0391219412,-0.1430314327,-0.0492147007,-0.036780361,0.017701445,0.079630902,-0.078094376,-0.17501281,-0.167791885,-0.104174271,-0.054971546,0.092158799,0.142985679,-0.00282828099999999,-0.041660594,-0.065111308,-0.06680007407,-0.02139719207,2399,"DG_s12",4.375,5.078,5.969,5.984,10,10,8,8,0.891,"Left",8,8,0,0,0,0,0,0,"10-10",2,2,10,8,10,8
"29",3,"RIN3-RIN4",0.154587562,-0.049031595,-0.154587562,-0.241441805,-0.219279341,0.027607793,0.194281436,0.068102304,-0.071166686,-0.027936048,0.104357392,-0.021170138,-0.071591788,0.176342892,0.140603708,-0.0116112047,-0.1003280577,0.077212765,0.140503632,-0.048065438,-0.079356677,-0.112984497,-0.171120759,-0.219606299,-0.205662645,-0.054496426,0.057454901,0.080811002,0.014691459,-0.011252271,-0.006393037,-0.1106255724,-0.0776225224,0.056437407,0.011418974,-0.042561445,-0.034663043,-0.187123476,-0.294136413,-0.1570990483,-0.0095409313,0.054570018,0.038814378,2399,"DG_s12",4.375,5.078,5.969,5.984,10,10,8,8,0.891,"Left",8,8,0,0,0,0,0,0,"10-10",2,2,10,8,10,8
"30",3,"RAM5-RAM6",-0.0630296574,0.00276534240000001,0.0630296574,-0.0828233896,-0.2021301666,-0.3273601496,-0.3132446036,0.0175029404,0.1371646744,-0.1096047936,-0.1379619098,-0.1152236128,-0.1979878066,-0.1797480426,-0.2150222696,-0.3017788766,-0.2626781996,-0.2212994996,-0.1894805004,-0.1936502684,-0.2169498856,-0.2632679502,-0.3565963002,-0.2242108266,0.1156222024,0.0883298044,-0.0863266766,-0.1215851196,-0.2526355196,-0.2450815896,-0.0592869096,0.0723898714,-0.1660971386,-0.2093472736,-0.2849362636,-0.4383561896,-0.2942237496,-0.2554361696,-0.3295765096,-0.2755185896,-0.1052974636,-0.3019894336,-0.4304461366,2399,"DG_s12",4.375,5.078,5.969,5.984,10,10,8,8,0.891,"Left",8,8,0,0,0,0,0,0,"10-10",2,2,10,8,10,8
"31",4,"RAM7-RAM8",0.07931486825,0.04298528775,-0.07931486825,0.02740667755,0.22050895455,0.28282321875,0.26833427375,0.13199202175,0.10186537575,0.03731476775,0.19060173875,0.26409065975,0.32985433575,0.38269587475,0.21201185875,0.11801059475,-0.04391706025,-0.12312881825,-0.10120294925,0.04616805075,0.44493875675,0.51550103275,0.26180891275,0.15195097175,0.09856206175,0.06121999419,0.04838340119,0.10744324375,0.07725930975,0.01950024345,0.02331894445,-0.03766675725,-0.01848444925,0.05595241075,-0.04943821625,-0.04725769525,-0.02572757825,-0.05396717725,0.15689570375,0.39478592175,0.29236453775,0.08200125075,-0.04377140825,2400,"DG_s12",6.984,7.687,8.406,8.406,28,4,10,10,0.719,"Left",28,4,24,24,0,0,-24,24,"Advent",18,-6,28,10,4,10
"32",4,"RIN1-RIN2",0.027549197,-0.07475884,-0.027549197,0.064154252,0.148943412,0.199217998,0.010355926,0.004154423,0.08416402,0.019172510033,0.034973495733,0.1650866177,0.142638256,0.0752992482,0.4546145372,0.503692749,0.299966658,0.141613784,0.121166685,0.25135193404,0.19496374504,0.229594797,0.171809946,0.14019738,0.26575862,0.331714134,0.156563624,0.041664335,0.199893457,0.328901493,0.305200239,0.192167434,0.206128549,0.379881958,0.329002617,0.188348373,0.177674768,0.399535012,0.365600805,0.135292653,0.20499015,0.293751702,0.251220205,2400,"DG_s12",6.984,7.687,8.406,8.406,28,4,10,10,0.719,"Left",28,4,24,24,0,0,-24,24,"Advent",18,-6,28,10,4,10
"33",4,"LOF5-LOF6",-0.0168357065,-0.0606137085,0.0168357065,0.1214650165,0.0924756775,0.1218452295,0.1858184035,0.1244533435,0.2978710185,0.3498013896,0.3313374706,0.5361190785,0.3548470775,-0.1080809735,-0.2921801635,-0.1678266125,0.0255166075,0.0450381645,-0.0794210645,-0.1046145325,-0.0960038005,-0.1165102854,-0.0951580064,0.0660028835,-0.0203883785,-0.2308712135,-0.0398104485,0.0026642115,0.0210179485,0.2333569785,0.2193035875,0.0580923875,0.0326801185,0.1760208685,0.1673381125,0.0073017465,-0.1213261195,-0.0441434435,0.1223529465,0.1796688065,0.1202120395,0.1114501155,0.0895797695,2400,"DG_s12",6.984,7.687,8.406,8.406,28,4,10,10,0.719,"Left",28,4,24,24,0,0,-24,24,"Advent",18,-6,28,10,4,10
"34",4,"RIN2-RIN3",0.1103653895,0.0267697655,-0.1103653895,-0.0064058245,0.1629822745,0.0603034725,-0.0152118645,0.1249873865,0.1491403315,0.2530841895,0.0839820605,-0.1556393735,-0.0670670435,-0.0075581575,0.3553937825,0.3357031995,0.1940094395,0.3445343625,0.2377152985,0.1310368585,0.2317839225,0.2139626376,0.0926507896,0.0121341345,0.0477864409,0.3397688899,0.2320756555,0.0215906415,0.1926160828,0.3884193978,0.2730857315,-0.0598390385,-0.2021988075,0.0338636195,0.2988711275,0.3014783995,0.1853688415,0.2517017975,0.5425849375,0.3066475845,-0.0607771334,-0.1124927854,-0.0580923973,2400,"DG_s12",6.984,7.687,8.406,8.406,28,4,10,10,0.719,"Left",28,4,24,24,0,0,-24,24,"Advent",18,-6,28,10,4,10
"35",4,"LIN1-LIN2",-0.0011772235,-0.0914209385,0.00117722349999999,0.1300140065,0.1590393785,0.2110848455,0.3542797115,0.4518436015,0.2331840439,0.0827337039,0.2418810505,0.2630333295,0.2925181985,0.1680879795,0.2028569315,0.3063268265,0.1547901307,0.1843811257,0.1941006085,0.2978305285,0.2012164015,-0.0145860785,-0.00240635450000001,0.0545797455,0.2394228045,0.2838386765,0.1593925746,0.1560906006,0.2973213495,0.3652644145,0.2097217505,-0.00798314950000001,0.0352101017,0.2836274887,0.2357815375,0.0589189475,0.07758638117,0.11518279717,0.0117797945,-0.0668560535,0.0727351795,0.0310667945,-0.0496360919,2400,"DG_s12",6.984,7.687,8.406,8.406,28,4,10,10,0.719,"Left",28,4,24,24,0,0,-24,24,"Advent",18,-6,28,10,4,10
"36",4,"RAM6-RAM7",0.022831458,-0.017416008,-0.022831458,-0.105460788,-0.115674478,-0.024799,0.0222424853,0.1144274753,0.068491426,-0.107886218,0.020638254,0.059980496,0.073497023,0.235072797,0.195292707,0.169184598,0.091645347,0.048000298,0.069874303,0.203605473,0.255507634,0.1043765168,0.0090666748,-0.098861722,-0.0022962,0.095802035,0.029082415,0.048542317,0.019026243,-0.023116253,-0.04550358,0.026672277,0.106220808,0.06503173,0.055101751,0.109598022,0.065182582,-0.086679122,-0.1341976844,0.0389382486,0.07565959,0.12671528,0.102976651,2400,"DG_s12",6.984,7.687,8.406,8.406,28,4,10,10,0.719,"Left",28,4,24,24,0,0,-24,24,"Advent",18,-6,28,10,4,10
"37",4,"RIN3-RIN4",0.000217783999999999,0.030123515,-0.000217783999999999,0.027422343,0.014224975,0.199817249,0.341943355,0.3069946513,0.3528929143,0.378729596,0.27620476202,0.17111058902,0.155134388,0.026523542,0.1713672541,0.2063102401,0.058902909,0.113924015,0.071894235,-0.053607428,0.044250199,0.05941993797,0.03065112497,0.084504006,0.02212319,0.22615559,0.2240854204,0.0786862224,0.197738888,0.0293575122,-0.1263499445,-0.0262831037,0.011888633,-0.00944458400000001,0.0387053223,0.1298068923,0.191597756,0.179324706,0.320053806,0.423549456,0.429465186,0.183851534,-0.056456409,2400,"DG_s12",6.984,7.687,8.406,8.406,28,4,10,10,0.719,"Left",28,4,24,24,0,0,-24,24,"Advent",18,-6,28,10,4,10
"38",4,"LOF3-LOF4",-0.00985536400000001,0.133568586,0.00985536400000001,0.01971313,-0.033264478,-0.14730829,-0.22151795,-0.248421527,-0.101316897,-0.059938584,-0.26629061977,-0.24634157977,0.065681493,-0.053481758,-0.188318465,0.183974886,0.1431494144,-0.0839491456,-0.053365275,-0.00920302000000001,0.047693361,-0.08259746,-0.08686711,-0.097662437,-0.309280467,-0.3209326902,-0.2074131422,-0.125473784,-0.05404179,-0.04595227054,-0.01121129694,-0.1429233484,-0.395495911,-0.248397634,-0.180519106,-0.195402719,-0.040308218,-0.087921317,-0.081674042,-0.133799174,-0.25939429478,-0.09104383778,0.010329655,2400,"DG_s12",6.984,7.687,8.406,8.406,28,4,10,10,0.719,"Left",28,4,24,24,0,0,-24,24,"Advent",18,-6,28,10,4,10
"39",4,"RAM5-RAM6",0.06565143015,0.01475344715,-0.06565143015,0.02753292585,0.01768096485,0.03588959485,0.05320471585,0.00110258645,0.13897734045,0.16928120596,0.01241650196,-0.14031744415,-0.08492508415,0.01345060635,0.00398658535,-0.00046516815,0.01132832465,0.02636936565,0.01796113685,0.03875764085,0.15614871785,0.06996563585,-0.06601985015,0.03508184985,0.17495176685,0.19481261185,-0.00757155915,-0.10729229115,0.08776955885,0.01386554785,-0.13697479615,-0.09914289815,-0.11715706615,-0.09962175315,-0.07816414915,0.02464813785,0.08795176585,0.02862570585,0.09134418585,0.22921655585,0.11885337275,0.13219261875,0.34691665185,2400,"DG_s12",6.984,7.687,8.406,8.406,28,4,10,10,0.719,"Left",28,4,24,24,0,0,-24,24,"Advent",18,-6,28,10,4,10
"40",4,"LOF4-LOF5",-0.034383113,0.098684688,0.034383113,0.092694873,0.1084416325,0.0657568425,0.080814711,-0.079454219,-0.038854047,0.062806695,0.028451217,0.00796786,-0.020596403,-0.0487776502,0.0923346428,0.028095591,0.02107083,0.005174567,-0.031386386,0.136131081,0.0361696825,-0.0661493745,-0.032323983,-0.006796093,-0.109076736,-0.116335062,0.022593357,-0.0053656747,-0.1234622347,-0.178535217,-0.091579222,0.174974702,0.193532588,0.093944701,0.01154916,-0.06811599,0.079031902,0.203653324,0.015679963,-0.17542296,0.052331324,0.123064555,-0.052054118,2400,"DG_s12",6.984,7.687,8.406,8.406,28,4,10,10,0.719,"Left",28,4,24,24,0,0,-24,24,"Advent",18,-6,28,10,4,10
"41",5,"LOF5-LOF6",0.0957672005,-0.0267359725,-0.0957672005,-0.0226695945,0.1254891405,0.1431689545,0.1525049525,-0.1356533245,-0.2109122015,0.0401766385,0.1286860855,0.2568991455,0.1724408855,-0.0878475845,-0.1927915345,-0.1639141815,-0.1067310185,-0.0147130725,0.1381216825,-0.0303025145,-0.0581268325,-0.0670452865,-0.1066814795,0.1889986165,0.1893052475,-0.0055723055,-0.0837988435,-0.1413012395,-0.1668972865,-0.1768749271,-0.0649732401,0.1753798855,0.0160083555,-0.000356710499999996,0.2159657595,0.0148425305,-0.1788383096,-0.0768852346,0.0980767055,0.3062702955,0.1395903925,0.0035901325,0.0237360355,2401,"DG_s12",9.406,10.109,10.765,10.765,22,6,10,10,0.656,"Right",22,6,16,16,0,0,-16,16,"Advent",12,-4,10,22,10,6
"42",5,"RAM5-RAM6",-0.0421898455,0.0367967205,0.0421898455,0.0655413515,0.196836045,0.237523048,0.2501388519,0.1582065085,0.0957908911,-0.0042156055,0.0870810825,0.2082009545,0.3752609865,0.3720585345,0.0918012045,0.2008468975,0.3771065085,0.3946192205,0.3760253295,0.2016583865,0.1125507825,0.0655455755,-0.00816644050000001,0.0752874455,0.1735565565,0.1905303015,0.1134341205,0.0901760395,0.1888088185,0.2227218681,0.2183607691,0.1355620025,0.2114350195,0.4220116765,0.2958763325,0.1612638865,0.2646737235,0.2717809325,0.1569935845,0.31580948808,0.34994849458,0.13256482,0.0955552638,2401,"DG_s12",9.406,10.109,10.765,10.765,22,6,10,10,0.656,"Right",22,6,16,16,0,0,-16,16,"Advent",12,-4,10,22,10,6
"43",5,"RAM6-RAM7",0.068296994345,0.085360013655,-0.068296994345,-0.093429278655,0.042739888345,0.071890148345,0.028855869345,0.066033749345,0.022098152345,-0.022355597655,-0.057171530655,-0.086445992655,-0.050696841455,0.088097842545,0.098012276345,-0.125385493655,-0.087471011655,0.079710566345,0.005311254345,0.130930544345,0.160606259345,-0.140211631655,-0.061537341655,-0.049318570655,-0.068693331845,-0.043177841845,-0.225407040655,-0.173800374655,-0.099595194655,-0.175503200655,-0.082751657655,-0.039700097655,-0.116122990655,-0.201112990655,-0.266453720655,-0.032086537655,0.200167272345,0.104638481345,-0.074199975655,-0.146182352655,-0.117728445655,-0.129070520655,-0.034794128655,2401,"DG_s12",9.406,10.109,10.765,10.765,22,6,10,10,0.656,"Right",22,6,16,16,0,0,-16,16,"Advent",12,-4,10,22,10,6
"44",5,"RAM7-RAM8",0.0327485115,0.0572978785,-0.0327485115,0.0533159075,0.0638925175,0.0376356315,0.0693737215,-0.0925798225,-0.2878642325,-0.3220117205,-0.2460515755,-0.0423440485,-0.1338976435,-0.1136089025,0.0387198775,-0.1770510595,-0.2830305449,-0.3099696239,-0.2694131965,-0.2217585805,-0.3035606725,-0.2275226285,-0.1638668505,-0.1249737245,0.0594053975,-0.0588972335,-0.1025730535,-0.0370488915,-0.1984199625,-0.2505804685,0.1389240625,0.2489131445,0.1140176095,-0.0096882885,-0.1729895755,-0.1937220295,-0.1791374825,-0.1311269865,-0.2068338575,-0.1238618715,-0.1773045855,-0.0967302885,0.1681754489,2401,"DG_s12",9.406,10.109,10.765,10.765,22,6,10,10,0.656,"Right",22,6,16,16,0,0,-16,16,"Advent",12,-4,10,22,10,6
"45",5,"LIN1-LIN2",-0.00390036195,0.05902580695,0.00390036195,-0.07019285665,-0.05613353885,0.15329327415,0.18128718935,0.08604246435,0.17124050735,0.16152121535,0.24417002435,0.55380458035,0.56371690935,0.22943153035,0.14402416135,0.24375450035,0.31538888635,0.11613315735,-0.05348074865,-0.01974307465,-0.00559415565,0.16405515035,0.18573305235,0.02153622535,0.21783694745,0.33701391545,0.05221974055,0.02732752955,0.19773798135,0.19101129135,0.22850111135,0.20031820135,0.12093956135,0.17485996435,0.13028901535,0.23257546635,0.14447011535,0.05278333935,0.31854687935,0.25563419135,0.09293720605,0.03399969635,0.06609791265,2401,"DG_s12",9.406,10.109,10.765,10.765,22,6,10,10,0.656,"Right",22,6,16,16,0,0,-16,16,"Advent",12,-4,10,22,10,6
"46",5,"RIN2-RIN3",0.063206744,-0.109316706,-0.063206744,-0.0733857497,-0.0894523042,-0.0116191785,0.222861736,0.228146711,-0.083971832,-0.193269057,-0.226221809,-0.186647659,-0.190303669,-0.128843379,-0.0900571435,-0.0446581585,0.160346919,0.1046741723,0.0169986263,0.111898838,0.095601587,0.065812553,0.008430192,-0.012193543,-0.008087959,-0.0198511769,-0.0254534216,-0.0801164157,-0.1221687109,0.1915225471,0.421516973,0.147531774,0.031781521,0.135692355,0.01454305,-0.156861091,-0.222592363,-0.158329446,0.003775024,-0.011045826,0.068652911,0.062404681,0.042944194,2401,"DG_s12",9.406,10.109,10.765,10.765,22,6,10,10,0.656,"Right",22,6,16,16,0,0,-16,16,"Advent",12,-4,10,22,10,6
"47",5,"RIN3-RIN4",0.07467378135,0.01929943365,-0.07467378135,0.00710299435,0.03048604695,0.01143503395,0.18519824735,0.19287215835,-0.11232298165,-0.05349358165,0.14605223835,0.02853568064,-0.08067492936,-0.14299034565,0.06696832435,0.13459655835,0.05789530835,0.09491169835,0.19710696235,0.21352928235,0.05072367845,-0.02134612255,0.08234763735,0.14622417635,0.19550858635,0.08867756935,0.11203630435,0.29088630335,0.22432215835,0.15497262835,0.12860195835,0.12590370835,0.03972784835,0.09196155835,0.01866735235,-0.07589224965,-0.04256978144,-0.13169790144,0.03280188135,0.10593622735,-0.11082826165,-0.23133295565,-0.23096136365,2401,"DG_s12",9.406,10.109,10.765,10.765,22,6,10,10,0.656,"Right",22,6,16,16,0,0,-16,16,"Advent",12,-4,10,22,10,6
"48",5,"LOF3-LOF4",0.0871937785,-0.1032688835,-0.0871937785,0.0096497695,-0.0147597655,0.0242642875,-0.1205537715,-0.1705187325,-0.0943247695,-0.0732331395,-0.0375365565,-0.0809410655,-0.0494278545,-0.0796394353,-0.0421228253,-0.1332509625,-0.3116776025,-0.0370068255,0.0195817585,-0.1299786418,-0.0793586358,-0.0617516185,-0.1178420975,-0.0714973025,-0.0483365255,-0.1410775675,-0.1312110505,-0.0724261785,0.059555491,0.03175886,-0.1321191845,-0.1214357695,-0.07937437353,-0.08839767953,-0.0869872695,-0.1514415255,-0.1630539715,0.1789118445,0.1979177035,-0.1153624665,-0.1699878315,-0.00803664600000001,0.12445926,2401,"DG_s12",9.406,10.109,10.765,10.765,22,6,10,10,0.656,"Right",22,6,16,16,0,0,-16,16,"Advent",12,-4,10,22,10,6
"49",5,"RIN1-RIN2",-0.03387516677,-0.04208086023,0.03387516677,0.04167677223,0.08367854023,0.22333221323,0.18400305123,0.07714193423,0.02771227723,-0.03046630177,0.13825291023,0.16507667923,0.05171301923,0.06691632623,0.03332456623,-0.03596386477,-0.00050496077,0.05228919923,0.14385102823,0.24009151823,0.10415977923,-0.04849764277,0.01422242723,0.24046288023,0.45575906623,0.39465506723,0.13349041123,0.04403450023,0.15156533363,0.35127414363,0.35744891123,0.21124319023,0.22737748523,0.14237511623,-0.04508537377,-0.12708393577,-0.05909610477,0.20495343223,0.27929573223,0.14755301423,0.12806073723,-0.01168739977,0.03098898823,2401,"DG_s12",9.406,10.109,10.765,10.765,22,6,10,10,0.656,"Right",22,6,16,16,0,0,-16,16,"Advent",12,-4,10,22,10,6
"50",5,"LOF4-LOF5",0.00747367,-0.018873023,-0.00747366999999999,0.165336313,0.193052503,0.40082019,0.232652765,-0.092446687,-0.051874112,0.053152569,0.051562467,0.153280828,0.083569695,-0.0602946123,-0.1246228633,-0.079659774,-0.044851553,-0.086243724,-0.138350869,-0.168650376,-0.078854116,-0.09635539301,0.06203224199,0.162176187,-0.024008943,-0.231243875,-0.08530855,0.06724584,0.107205147,0.1349523394,-0.0187425276,-0.110041215,-0.145016805,-0.09031929,-0.037320917,0.144191243,0.04464929,0.026442267,0.24950027,0.252550188,0.0847210658,-0.0085585772,0.072334282,2401,"DG_s12",9.406,10.109,10.765,10.765,22,6,10,10,0.656,"Right",22,6,16,16,0,0,-16,16,"Advent",12,-4,10,22,10,6
"51",6,"RAM7-RAM8",0.0337349932,0.0617216482,-0.0337349932,-0.028634338,0.0137191214,0.0367191062,0.0699936862,-0.0849193178,-0.2627660558,-0.1757652865,-0.0778199695,-0.00391066379999999,-0.0727705008,-0.2066840268,-0.1810097868,-0.1136807428,-0.1733537328,-0.2007152218,0.0608915622,0.0304685375,-0.0853371805,0.0158531852,-0.0615277998,0.1182063162,0.0416446552,-0.2665920576,-0.1406825821,0.00430326170000001,-0.1250744498,-0.0574429678,0.1683545802,0.0860372842,-0.1052703458,-0.2671487998,-0.2568901258,-0.1505535478,0.2368741762,0.8323051472,1.2699801472,1.1271046882,0.6789921882,0.2858590482,0.1127139312,2402,"DG_s12",11.765,12.469,13.094,13.094,30,15,10,10,0.625,"Left",30,15,15,15,0,0,-15,15,"Advent",20,5,30,10,15,10
"52",6,"LOF4-LOF5",-0.135701098,-0.005255622,0.135701098,0.0612662838,-0.0210715222,-0.101389255,-0.1340061089,-0.0102067519,-0.098978522,-0.2048800883,0.0889008217,0.327240648,0.287047108,0.1276988382,0.0679702272,0.106814053,0.1238743438,0.0466077848,-0.050413738,0.171492005,0.163539289,-0.088122061,0.013525611,0.210786498,0.203988061,0.1332912677,0.0426822247,-0.0031843119,0.0061928678,-0.0183830133,0.224084794,0.341698678,0.27383387,0.074920884,-0.004727534,0.286819462,0.170141834,0.041855554,0.274445318,0.201803358,-0.080296819,-0.014399959,0.035573138,2402,"DG_s12",11.765,12.469,13.094,13.094,30,15,10,10,0.625,"Left",30,15,15,15,0,0,-15,15,"Advent",20,5,30,10,15,10
"53",6,"LIN1-LIN2",0.079988957,-0.0486351,-0.079988957,-0.156101961,0.092019406,0.286368761,0.181958299,0.267462188,0.31749639,0.19033367,0.160275916,0.28742577,0.162147978,0.066914793,0.152423637,0.031730088,0.050290412,0.198333246,0.2469084872,0.2022700782,0.055454261,0.00988491599999999,0.00992970899999999,-0.0410512307,0.03878916287,0.26097783257,0.357432675,0.265327567,0.072730372,0.045533581,0.095598026,0.149117595,0.06392442,-0.10169184,-0.14303244,-0.1161017924,-0.1123584124,-0.075814179,0.208333145,0.493563034,0.446114734,0.1517786586,0.0490137486,2402,"DG_s12",11.765,12.469,13.094,13.094,30,15,10,10,0.625,"Left",30,15,15,15,0,0,-15,15,"Advent",20,5,30,10,15,10
"54",6,"RIN2-RIN3",-0.00363482930000003,0.1013410447,0.00363482929999998,-0.1991155537,-0.3138400213,-0.4148864243,-0.3358553203,-0.2097421153,-0.0908238032,-0.1659100212,-0.3630906743,-0.2847435053,0.0652595147,0.2360548777,-0.2553185223,-0.3762107923,0.0272690277,-0.1103018053,-0.3270346563,-0.3084556633,-0.4056283323,-0.2681223353,-0.1116953413,-0.1095782313,-0.2008911353,-0.1691137183,-0.1233353363,-0.2230951833,-0.2248251063,-0.2877840813,-0.3044220603,-0.2419727993,-0.2315908793,-0.4051337613,-0.2130706513,-0.0450921343,-0.2096295443,-0.1342711583,0.0142281577,-0.1296223863,-0.2877362353,-0.3129261983,-0.2141603053,2402,"DG_s12",11.765,12.469,13.094,13.094,30,15,10,10,0.625,"Left",30,15,15,15,0,0,-15,15,"Advent",20,5,30,10,15,10
"55",6,"LOF5-LOF6",-0.1060679972,0.0062626138,0.1060679972,-0.0036597173,-0.0096101993,-0.0332395258,-0.0855539311,-0.0262997391,-0.0429861438,-0.0707699258,0.1007524542,0.2207844542,0.1523153442,0.0728507522,0.2193662522,0.2265532052,-0.0154092988,-0.1239088188,-0.1340890824,-0.0355558034,0.1397342592,0.1953988842,0.0453539262,0.1501153982,0.0126580912,-0.1464921498,0.0337777625,-0.0016846165,-0.0291085338,-0.0727070608,0.0665572142,0.1634895172,0.1262828272,0.0675070029,-0.0767454121,-0.0328340422,0.1747171028,0.1008844242,-0.0254663258,-0.0098036188,-0.1893383688,-0.1304147907,0.0306866493,2402,"DG_s12",11.765,12.469,13.094,13.094,30,15,10,10,0.625,"Left",30,15,15,15,0,0,-15,15,"Advent",20,5,30,10,15,10
"56",6,"RAM6-RAM7",0.076376205,0.08663275,-0.076376205,-0.026674783,-0.020429331,-0.054207919,-0.057475672,-0.090085006,-0.057204084,-0.148229619,-0.228251804,-0.2014665,-0.150334387,-0.132266001,-0.043854953,-0.1159239697,-0.2102996377,-0.121721693,-0.06933441,-0.103664096,0.147527541,0.2292561117,-0.0711799683,-0.079231346,0.041518574,-0.0230897993,-0.0119623463,0.035583915,0.035232122,-0.144742987,-0.123185848,0.082189013,-0.056786716,0.296008704,0.584700809,0.468417139,2.368463524,3.282818094,1.1960106523,0.0522253983,0.184539628,0.23290135,0.122384002,2402,"DG_s12",11.765,12.469,13.094,13.094,30,15,10,10,0.625,"Left",30,15,15,15,0,0,-15,15,"Advent",20,5,30,10,15,10
"57",6,"LOF3-LOF4",0.0935810375,-0.1407631515,-0.0935810375,0.0352888615,-0.1162542325,-0.1414396485,0.1659134115,0.3889656025,0.1407686925,-0.0743673988,0.0836109572,0.1601483825,0.2532432465,0.0597319775,0.0731958085,0.215051197227,0.155209266227,0.0450191405,0.2096021705,0.3415865575,0.0143947395,0.0402568735,0.1983971915,0.1224006055,-0.0429599381,-0.0386123131,0.0937386105,0.1134684895,0.1364278575,0.0003412255,-0.0250255425,0.0997611565,0.1437208235,0.1557431555,0.1829227605,0.2608339695,0.1668198075,0.0435349085,-0.0694510805,-0.1849244615,-0.0319867525,0.222914436,0.088023226,2402,"DG_s12",11.765,12.469,13.094,13.094,30,15,10,10,0.625,"Left",30,15,15,15,0,0,-15,15,"Advent",20,5,30,10,15,10
"58",6,"RIN3-RIN4",-0.0466480715,-0.0210214085,0.0466480715,-0.1290873885,-0.3776043845,-0.2410080545,-0.1247830985,-0.0311384515,0.1233050115,-0.0184526055,-0.0854674255,0.0252184205,-0.0654024732,-0.0739870442,-0.1412856675,-0.0929770215,0.0761438525,-0.1853340205,-0.3096983705,-0.1049594685,-0.0388660185,0.1038798655,0.1273753355,0.0870489977,-0.000739088299999996,-0.2357231525,-0.1471396775,-0.0643215925,-0.1758801555,-0.2721784703,-0.2341065693,-0.2027682771,-0.1378655591,-0.1445664555,-0.2016155805,-0.2217687085,-0.1581785755,-0.1339994015,-0.4058951945,-0.2724450625,0.0114466995,0.1009541035,-0.0456594135,2402,"DG_s12",11.765,12.469,13.094,13.094,30,15,10,10,0.625,"Left",30,15,15,15,0,0,-15,15,"Advent",20,5,30,10,15,10
"59",6,"RAM5-RAM6",0.01875329583,-0.00859719383,-0.01875329583,0.06246514617,0.09978200817,0.07954666617,0.10461155517,0.03672308617,-0.04932864183,0.02702577017,0.07158582917,-0.09210926383,-0.06749018913,0.05107394687,0.02150163117,0.01532282817,0.05807518217,0.02770162317,-0.06872694883,0.03794878393,0.27478450293,0.31695782617,0.25677291517,0.19124028167,0.13005729267,0.09850651617,0.09475053617,0.00652388017,-0.02054460783,0.11008590817,0.07839031677,0.05867537177,0.32194286117,0.56344498617,0.98840329617,1.69030541617,3.71610550617,4.22331900617,1.69102672617,0.48172149617,0.30408404617,-0.02423881863,-0.02135497163,2402,"DG_s12",11.765,12.469,13.094,13.094,30,15,10,10,0.625,"Left",30,15,15,15,0,0,-15,15,"Advent",20,5,30,10,15,10
"60",6,"RIN1-RIN2",0.042412375,-0.121566611,-0.042412375,-0.037183799,-0.20658851,-0.2334018564,-0.1627459124,0.031088734,0.236176745,0.260905945,0.07619131,-0.100625242,-0.152058507,0.075020185,0.046851975,-0.189885875,-0.128596983,-0.18721586,0.095291128,0.138175929,-0.184816729,-0.24666399,-0.197198067,-0.01680214,-0.030674405,-0.1401206557,-0.2126699597,-0.23964983,-0.282428746,-0.309638181,-0.144954634,-0.131531068,-0.097371641,-0.085993686,-0.10270052,0.064516685,0.183652206,0.259291216,0.207891245,-0.015746006,0.021380461,-0.054403627,-0.2522244531,2402,"DG_s12",11.765,12.469,13.094,13.094,30,15,10,10,0.625,"Left",30,15,15,15,0,0,-15,15,"Advent",20,5,30,10,15,10
"61",7,"RAM5-RAM6",-0.00307930904999998,0.09349550995,0.00307930905000003,-0.02847414795,-0.00365627304999999,-0.26565484105,-0.07468081805,0.21114570695,-0.03792845205,-0.32697490505,-0.31917988705,-0.18550125905,-0.24572636305,-0.33016419905,-0.27584160305,-0.05458011905,-0.01820758405,-0.26555072905,-0.17501423505,0.04587330995,-0.12911393205,-0.23788404605,-0.36616283405,-0.43471478805,-0.05533815605,0.06867803895,0.03767219695,-0.10298141505,-0.28451944605,-0.18185687805,-0.04271067405,-0.06362210405,-0.14476859405,-0.17208189885,-0.14518321885,-0.06466949855,-0.26303681155,-0.30716550605,-0.29038406105,-0.23856361805,-0.08316266305,-0.11665667705,-0.05547769705,2403,"DG_s12",14.094,14.797,15.453,15.453,28,4,10,10,0.656,"Left",28,4,24,24,0,0,-24,24,"Advent",18,-6,28,10,4,10
"62",7,"LOF5-LOF6",0.14784555065,-0.02723127765,-0.14784555065,0.02013266635,0.29351858635,0.26933587335,0.06840314093,-0.12615314907,-0.13978900665,-0.02766327665,-0.00108078365,-0.00106546015,0.01704947885,-0.02467120445,0.00137894055,0.05034917735,0.11610229035,0.17399326235,0.12661809335,-0.03563182865,-0.15751378965,-0.08377850365,0.03181820535,-0.06766999765,-0.12465861565,0.13497161435,0.40669292535,0.45616361535,0.22519582935,0.09109833235,0.09000068135,0.28092746835,0.40548428335,0.02985118335,0.05852214535,0.37545171535,0.25808999735,0.09931594635,0.15218687835,0.14114984535,0.06897230935,0.03780665535,0.08713883535,2403,"DG_s12",14.094,14.797,15.453,15.453,28,4,10,10,0.656,"Left",28,4,24,24,0,0,-24,24,"Advent",18,-6,28,10,4,10
"63",7,"RIN3-RIN4",0.101035769,-0.0121963,-0.101035769,-0.14497953,-0.116646084,0.022913696,0.181075465,0.129065492,0.025743499,-0.132444868,-0.217971419,-0.09606797,-0.179585509,-0.336575858,-0.219274678,-0.112975109,-0.208884681,-0.3385511796,-0.2555420866,-0.013218884,-0.006715425,-0.009111251,0.0105628789,-0.000726068099999991,-0.031410261,0.002317289,-0.027395971,-0.1041945694,-0.0632189254,-0.159033645,-0.215544187,-0.1813663728,-0.1740951138,-0.215151306,-0.192986867,-0.045992741,0.041937838,0.010794197,-0.050828892,-0.116751528,-0.013963945,0.11735705,-0.00369341696,2403,"DG_s12",14.094,14.797,15.453,15.453,28,4,10,10,0.656,"Left",28,4,24,24,0,0,-24,24,"Advent",18,-6,28,10,4,10
"64",7,"LIN1-LIN2",-0.0883783825,-0.0463885875,0.0883783825,-0.0431686065,-0.0763711065,0.0522895625,-0.0283033195,0.0198404585,0.4662154405,0.4566804194,0.3703211694,0.4801607605,0.2662622135,0.0441225535,0.0769488705,0.1291375496,0.0295814296,-0.0744138095,-0.1491393695,-0.1241614105,0.0499206185,0.2605326695,0.1317347219,0.0505079089,0.1163138995,0.047885177,0.000206831,0.1223968255,0.0648769395,-0.0395557705,-0.0819283405,-0.0464935019,0.1478699901,-0.0239854625,-0.1437072635,0.0842776715,0.2505113585,0.0701936585,-0.0125856305,-0.0037734595,0.0614115795,0.1415521085,0.0981677935,2403,"DG_s12",14.094,14.797,15.453,15.453,28,4,10,10,0.656,"Left",28,4,24,24,0,0,-24,24,"Advent",18,-6,28,10,4,10
"65",7,"RIN2-RIN3",0.077929117,0.15076033,-0.077929117,-0.09101361,-0.089780515,-0.131656943,0.002282596,-0.129762906,-0.098223058,0.156699522,0.143839107,0.204663633,0.07225301,0.057753264,0.018773394,-0.048856206,-0.047816053,-0.148275336,-0.051942436,0.028861117,-0.017288402,-0.093746702,-0.125365697,-0.119219937,-0.096218513,-0.176426891,-0.237795611,-0.1367902042,0.0689247858,-0.0085564006,-0.2796863806,-0.272815583,-0.107756593,-0.09316838,-0.175194041,-0.124645445,-0.058538932,0.170401289,0.159483976,-0.0775332503,-0.0977707423,-0.090261599,-0.1121860059,2403,"DG_s12",14.094,14.797,15.453,15.453,28,4,10,10,0.656,"Left",28,4,24,24,0,0,-24,24,"Advent",18,-6,28,10,4,10
"66",7,"RAM6-RAM7",0.02042345295,0.11606475795,-0.02042345295,-0.34432411195,-0.29211011535,-0.32485932655,-0.30751197315,-0.14412274195,-0.32337017795,-0.42540614495,-0.21419189895,-0.12918836795,-0.09151888595,-0.25389799595,-0.40264571695,-0.35844251495,-0.33701997395,-0.30422184325,-0.24435101525,-0.14104056095,-0.11059249295,-0.10699358895,-0.19286671695,-0.27932364795,-0.11158118995,0.02148375105,-0.02836593095,-0.02962752295,-0.08712053695,-0.30967621595,-0.33949539895,-0.26357483895,-0.40925336795,-0.34914766595,-0.14941454895,-0.09694107095,-0.14397343455,-0.19573859255,-0.19713376895,-0.09562925195,0.08763060705,0.11635413805,0.18846160205,2403,"DG_s12",14.094,14.797,15.453,15.453,28,4,10,10,0.656,"Left",28,4,24,24,0,0,-24,24,"Advent",18,-6,28,10,4,10
"67",7,"LOF3-LOF4",0.073096969,-0.038792228,-0.073096969,0.086729661,0.011466212,-0.11639499,-0.118658725,-0.272106283,-0.414946718,-0.296037878,-0.190176229,-0.048957739,-0.030193933,-0.22193459,-0.381133208,-0.330136611,-0.209762241,-0.118775371,-0.033030439,-0.121264949,-0.178093176,-0.275854518,-0.406123022,-0.166510293,-0.146488788,-0.145049005,-0.06259176386,-0.21657777386,-0.25647668,-0.260603622,-0.170786503,-0.127951801,-0.2797257895,-0.2054769145,0.039869414,0.056768128,0.068207331,0.126889212,-0.0122015976,-0.1213175936,-0.036445313,-0.149524637,-0.30226897,2403,"DG_s12",14.094,14.797,15.453,15.453,28,4,10,10,0.656,"Left",28,4,24,24,0,0,-24,24,"Advent",18,-6,28,10,4,10
"68",7,"LOF4-LOF5",-0.02825581,0.057858286,0.02825581,0.01718272,-0.026932368,-0.255730788,-0.356871828,-0.263691358,-0.3052516644,-0.1850184144,-0.070426939,-0.095192291,-0.162811037,-0.2165595723,-0.2322770713,-0.299763713,-0.2200168,-0.229814726,-0.326068279,-0.327256333,-0.130647379,-0.210721369,-0.3343758748,-0.2002013928,-0.1326405614,-0.1018217662,-0.0714491338,0.000932554000000002,-0.143701728,-0.359179174,-0.171450832,0.050732696,-0.131681528,-0.244385706,-0.017280464,0.242423556,-0.04287624,-0.18775262,-0.0958743375,-0.3475927175,-0.388295994,-0.207190276,-0.165359168,2403,"DG_s12",14.094,14.797,15.453,15.453,28,4,10,10,0.656,"Left",28,4,24,24,0,0,-24,24,"Advent",18,-6,28,10,4,10
"69",7,"RIN1-RIN2",0.06687846235,0.10054768735,-0.06687846235,-0.08788030455,0.09767188045,0.05029883765,0.06052437265,0.00034745915,-0.08166141285,-0.04195954935,-0.02671158935,-0.05749146835,-0.08500431535,-0.03013908935,-0.11913162135,-0.02262509335,0.04476797765,-0.08465849145,-0.01263112645,0.15584402065,0.18963021565,0.06497117965,-0.11585710435,-0.28606828135,-0.26270610145,-0.14075952645,0.02631216165,0.15284578665,0.20352128265,0.10952220465,-0.19997593535,-0.28653966735,-0.20676878235,-0.11695838235,-0.17393314735,-0.20295858135,-0.04874863635,0.25540390765,0.26749322565,0.11007330865,0.07489032365,-0.12628909945,-0.02248583745,2403,"DG_s12",14.094,14.797,15.453,15.453,28,4,10,10,0.656,"Left",28,4,24,24,0,0,-24,24,"Advent",18,-6,28,10,4,10
"70",7,"RAM7-RAM8",-0.0805548105,0.1370462405,0.0805548105,0.0976916947,0.0273352467,-0.0709762045,-0.046030101,0.068195257,0.0015761975,-0.0899669945,0.0197600695,0.2748772045,0.3421373145,0.1964801195,0.1136528735,0.0334243795,0.1480552705,0.3525039535,0.2147165375,-0.1154987215,0.0643338595,0.1390167005,0.0722351735,0.1312981765,-0.0644771665,-0.1062408005,-0.0014281615,0.1777168915,0.0900770475,-0.0895740455,0.0311366085,0.1035086035,0.1647322035,0.2102228185,0.0788541265,0.2238728965,0.2559721243,0.0897179843,0.2266370115,0.2088568487,0.1587727967,0.0903285595,0.1726011315,2403,"DG_s12",14.094,14.797,15.453,15.453,28,4,10,10,0.656,"Left",28,4,24,24,0,0,-24,24,"Advent",18,-6,28,10,4,10
"71",8,"RAM5-RAM6",0.050866062,0.225055338,-0.050866062,-0.247145702,0.017849788,0.123904371,0.146234535,0.190097333,0.08541582,-0.006716258,-0.022135184,0.2604161798,0.3423886678,0.232401967,0.424691094,0.335662008,0.203012188,0.261837184,0.070494604,-0.070931132,0.005888902,0.054117702,0.005193648,0.082505202,0.166294456,0.08959415035,0.07582842635,0.137416618,0.212038668,0.200015111,0.2486246229,0.4338031859,0.161150564,0.003677286,0.1748028169,0.2351843149,0.070541204,-0.036064152,0.027707275,0.035754307,0.01613117,-0.036403488,-0.0105619214,2404,"DG_s12",16.453,17.156,18.64,18.656,10,10,4,4,1.484,"Left",4,4,0,0,0,0,0,0,"10-10",6,6,10,4,10,4
"72",8,"LOF3-LOF4",0.2294827895,-0.0543108035,-0.2294827895,0.0229421035,0.0791145205,-0.2053154385,-0.2982873485,-0.1855540945,-0.1483553108,-0.0837580358,-0.1497509165,-0.3240205505,-0.3296881995,-0.2048821435,-0.0816451765,-0.1259980515,-0.0117951435,-0.0139772205,-0.0270625085,-0.1026520184,-0.1100727164,-0.1074135185,-0.1922504325,-0.2370271695,-0.2745448295,-0.1934415405,-0.2828274505,-0.1316219005,-0.0345810465,-0.1466176665,-0.2095110045,-0.1339948075,-0.1290065255,-0.3024621305,-0.2964040965,-0.1969432265,-0.2683479512,-0.2294329412,-0.1643185685,-0.1728274135,-0.1924785815,-0.2454597995,-0.1731452115,2404,"DG_s12",16.453,17.156,18.64,18.656,10,10,4,4,1.484,"Left",4,4,0,0,0,0,0,0,"10-10",6,6,10,4,10,4
"73",8,"RAM6-RAM7",0.043905467,0.062708294,-0.043905467,-0.113715862,-0.112268034,-0.071635714,-0.058333638,-0.0441681107,0.0227689273,0.142654035,0.074127413,0.063668828,0.139628187,0.098513393,-0.010927237,-0.165606566,0.076519314,0.259718389,-0.064906331,-0.26081375,-0.15699802,-0.073379887,-0.012029204,-0.036144511,-0.043605589,0.058387808,-0.0493711828,-0.2401320798,-0.030562664,0.073004866,-0.06539623,-0.053210254,0.056858332,-0.068366693,-0.269206086,-0.067427747,-0.009730341,-0.27784842,-0.159533789,0.089926171,0.161861287,0.059451279,-0.02784689,2404,"DG_s12",16.453,17.156,18.64,18.656,10,10,4,4,1.484,"Left",4,4,0,0,0,0,0,0,"10-10",6,6,10,4,10,4
"74",8,"RIN1-RIN2",0.05992086845,-0.12891632045,-0.05992086845,0.11764832055,-0.01709241645,-0.20523861145,0.02730861755,0.21974550355,0.01391765865,0.03928647065,0.15562620955,0.24612896555,0.20926552055,0.12482677055,0.17562601015,0.13888535315,0.10327508045,0.05422411645,-0.02176954845,0.03429999455,0.21643962455,0.18250247355,0.27154404355,0.27165545655,0.27837063655,0.23257774455,0.10717895724,0.09989497824,0.12398924555,0.17127353255,0.12273045855,0.00132916775,0.02332755175,0.31298112455,0.34329341455,0.06533372455,-0.17098901545,-0.12057613545,0.15659888455,0.24586342855,0.05886315455,-0.11569024945,-0.02618635445,2404,"DG_s12",16.453,17.156,18.64,18.656,10,10,4,4,1.484,"Left",4,4,0,0,0,0,0,0,"10-10",6,6,10,4,10,4
"75",8,"RIN3-RIN4",0.11977829255,-0.00300456655,-0.11977829255,0.02859396245,0.04795592845,-0.06235928255,-0.03321647055,-0.04276900455,0.02577478345,0.09785829845,0.13348656045,0.06665110545,-0.02736868755,-0.05129097055,-0.21672493955,-0.25386379655,-0.05623834555,0.11619932245,-0.01010654855,0.04038109345,0.25691258345,0.26119957545,0.12031173245,0.01300153845,-0.08453810055,-0.13316406855,0.00437525345,0.05348341745,-0.03743724455,-0.04225993855,0.08052733345,0.04531350945,-0.05844219055,0.17418304205,0.30942756205,0.18865903345,0.15413420725,0.14403540925,0.00414806345,0.15465107145,0.36392939345,0.08970802345,-0.17070398455,2404,"DG_s12",16.453,17.156,18.64,18.656,10,10,4,4,1.484,"Left",4,4,0,0,0,0,0,0,"10-10",6,6,10,4,10,4
"76",8,"LOF4-LOF5",-0.053882835,-0.067066244,0.053882835,0.105273314,0.0705376986,0.1099442996,0.058918509,0.148051308,0.174726436,-0.090182162,-0.141423572,0.060415676,0.140644476,-0.1300457647,-0.1148449267,-0.0117158372,0.1625207048,0.136968711,-0.142927899,-0.1974852416,-0.2668541216,-0.1788775,-0.00652944400000001,-0.169836288,-0.029307244,-0.005969315,-0.2133183225,0.0133029105,0.165802398,0.0376836323,-0.2151751477,-0.226665491,-0.113007095,-0.107564725,-0.085897031,0.206895837,0.131453867,-0.086557335,-0.037121555,-0.139236578,0.058061742,0.151221199,0.052566233,2404,"DG_s12",16.453,17.156,18.64,18.656,10,10,4,4,1.484,"Left",4,4,0,0,0,0,0,0,"10-10",6,6,10,4,10,4
"77",8,"RIN2-RIN3",-0.016234478635,-0.070779886365,0.016234478635,0.003074951635,0.007660105635,0.026262845635,0.174740856635,0.210904484035,0.059171209035,0.117687644635,0.037000925635,0.051283722635,0.253027131635,0.137238614635,0.273583109635,0.536402915635,0.303559333635,-0.023641216365,0.034129188635,0.039630254635,-0.024762266665,0.237979817335,0.304924535635,0.203339615635,0.187259166135,0.082817809135,0.043920033635,0.002210525635,-0.015543884365,0.021505920635,0.164740991635,0.062083218735,-0.102654323265,0.259293329635,0.253058046635,0.106871333635,0.123237772635,-0.007477814365,0.116032119235,0.187584139235,0.205225535635,0.094694464635,0.018111753635,2404,"DG_s12",16.453,17.156,18.64,18.656,10,10,4,4,1.484,"Left",4,4,0,0,0,0,0,0,"10-10",6,6,10,4,10,4
"78",8,"RAM7-RAM8",-0.0140036422,-0.0736358558,0.0140036422,-0.0268038762,-0.1177087592,-0.1760014152,-0.4230227552,-0.3824199106,-0.2140073106,-0.2716389402,-0.4463028402,-0.3452039852,-0.2087542783,-0.2639405263,-0.3218219402,-0.3577939902,-0.1389399332,-0.0431838192,-0.0660188722,-0.00819776820000001,-0.1659672452,-0.0624447134,0.0536805966,-0.1313436072,-0.1223751272,-0.0301782576,-0.2608572676,-0.4848334262,-0.3101062162,-0.1857055512,-0.2660539762,-0.2995482992,-0.2893520642,-0.2083504192,-0.0662281992,-0.1946678212,-0.3634787812,-0.2281641392,-0.0623581092,0.0237632838,-0.0619584992,-0.3572568992,-0.3043334862,2404,"DG_s12",16.453,17.156,18.64,18.656,10,10,4,4,1.484,"Left",4,4,0,0,0,0,0,0,"10-10",6,6,10,4,10,4
"79",8,"LOF5-LOF6",0.0484586245,-0.0239642505,-0.0484586245,-0.00034481950000001,-0.1065475555,-0.0431919355,-0.0105917645,-0.0842244265,-0.1760965675,-0.3388741855,-0.2785065305,-0.0951210105,-0.0707258475,-0.1628234229,-0.2448562169,0.0359737985,0.1624508465,-0.1813003225,-0.3908272005,-0.3179156075,-0.1159295815,0.0309837069,0.1338236869,0.1338407545,0.1773902015,0.1318136125,-0.1277689335,-0.1779681085,0.1238584905,0.1110981325,-0.0638955145,0.0862219565,0.0170198635,-0.1758270255,-0.0696627275,0.1240467625,0.1750111245,-0.0870810645,-0.1872691895,0.036907936,-0.043691172,0.0253687015,0.0624374441,2404,"DG_s12",16.453,17.156,18.64,18.656,10,10,4,4,1.484,"Left",4,4,0,0,0,0,0,0,"10-10",6,6,10,4,10,4
"80",8,"LIN1-LIN2",0.0052527205,-0.1305528635,-0.0052527205,-0.0479033765,-0.0720956715,0.1036994703,0.2953516313,0.3039639045,0.1672405105,0.1456823605,-0.0396228885,-0.0804052915,0.0637449905,0.1555589385,0.0422526835,-0.0085522255,0.3083609805,0.2103020855,-0.0211462925,0.0748456525,0.2336083655,0.3148509045,0.3789273695,0.4317235175,0.2864077875,0.145010497,0.302628515,0.2462148565,0.1934166724,0.2470154425,0.2567787186,0.1704147625,-0.0546390245,-0.0765180185,0.0663998365,0.1788724025,0.0741265755,0.0284256695,0.0314071657,0.0177346967,-0.01433131779,0.05818889221,0.0843266305,2404,"DG_s12",16.453,17.156,18.64,18.656,10,10,4,4,1.484,"Left",4,4,0,0,0,0,0,0,"10-10",6,6,10,4,10,4
"81",9,"RAM5-RAM6",-0.0163662293,0.1111139587,0.0163662293,-0.2842286007,-0.3806821933,-0.1584173113,-0.0918799153,-0.2860498193,-0.3171087783,0.0281193927,0.1627790117,-0.0672344053,-0.0258216443,0.0939594337,0.1495181937,0.1860678937,-0.0227625353,-0.1474267053,-0.1221915663,-0.1437044323,0.1108093707,0.0415876807,-0.0634633023,0.1015330037,-0.00727389029999999,-0.1311334583,-0.1291698993,-0.2100618363,-0.0455341013,0.0675671837,-0.1922689463,-0.2576108203,-0.2023359803,-0.2102002873,-0.1646746943,-0.0747530183,0.1281437487,0.0619948437,-0.1434752373,-0.2166039573,-0.1777738763,-0.0623331013,0.0770828687,2405,"DG_s12",19.656,20.359,21.859,21.859,13,7,10,10,1.5,"Left",13,7,6,6,0,0,-6,6,"Advent",3,-3,13,10,7,10
"82",9,"RIN3-RIN4",0.01150137205,0.01632448835,-0.01150137205,0.09632546865,0.31116338195,0.22834873195,0.21435892205,0.16753477205,0.12390065905,0.45091272905,0.37343310905,0.10927430905,0.20375263105,0.28192979305,0.31664667005,0.11548601805,-0.02920209095,0.04655109405,0.12858426705,0.26123514205,0.35626004715,0.50123517715,0.41818701705,0.19742008905,0.13180490575,0.11903354435,0.18131177415,0.09983355055,0.14574064205,0.19485339505,0.29629946605,0.53985666605,0.35799211405,0.15441392405,0.33444195605,0.49379092605,0.45592329905,0.45115338905,0.46686631905,0.2812235201,0.2626315101,0.35963070605,0.34048984605,2405,"DG_s12",19.656,20.359,21.859,21.859,13,7,10,10,1.5,"Left",13,7,6,6,0,0,-6,6,"Advent",3,-3,13,10,7,10
"83",9,"RAM6-RAM7",-0.185676374,-0.092664896,0.185676374,0.186907438,0.053627551,0.096018761,-0.081547293,-0.105465843,-0.111969448,-0.34952072,-0.228685854,-0.052760208,-0.087469158,-0.265962062,-0.368601382,-0.14690885864,-0.04513108564,-0.2583291568,-0.2232441998,-0.065981122,-0.1457452866,-0.1548742406,-0.209918267,-0.099856943,-0.049777979,-0.117426019,-0.1353883319,-0.2519664199,-0.03622036,0.045665678,-0.241268362,-0.213904601,-0.214928441,-0.3422495249,-0.3025762549,-0.317166892,-0.196519107,-0.151801701,-0.180321486,-0.128935292,-0.094277382,-0.0483787557,-0.0917996057,2405,"DG_s12",19.656,20.359,21.859,21.859,13,7,10,10,1.5,"Left",13,7,6,6,0,0,-6,6,"Advent",3,-3,13,10,7,10
"84",9,"RIN2-RIN3",0.0977766325,0.0621974875,-0.0977766325,-0.1201605405,-0.1914041895,-0.0075806545,0.0375970785,-0.2614349185,-0.0964121465,-0.0165411625,-0.1045480205,-0.1683717185,-0.2564187548,-0.1912356258,-0.1426777845,-0.0601587016,0.0028800797,0.0972141158,0.1170365775,-0.1419282095,-0.0362315921,0.0531082759,0.2053621635,0.3345774665,0.0697723691,-0.0475782149,-0.1411784085,-0.1328801156,-0.0825376746,0.1008940792,0.2734121368,0.1660272064,0.2265328988,0.1648514235,-0.0315078905,0.0252545905,-0.0208152805,-0.1217611075,-0.0545007045,-0.0211634065,0.1289007155,0.1973708974,0.2241970074,2405,"DG_s12",19.656,20.359,21.859,21.859,13,7,10,10,1.5,"Left",13,7,6,6,0,0,-6,6,"Advent",3,-3,13,10,7,10
"85",9,"LOF4-LOF5",-0.001968734215,0.002422055785,0.001968734215,0.123419075315,0.064468234885,-0.143473021215,0.041545310785,0.017379604785,-0.133677225215,0.00205200578500001,0.055524405785,0.035344628785,0.210382518785,0.289973340785,0.270513982785,0.287815071785,0.206082902785,0.242714188785,0.218358395885,0.120450739885,0.062745107785,0.001182982785,0.069530974785,0.020427194785,0.033159624785,0.047661170785,0.010962295785,0.004265531785,-0.224211712215,-0.239870913215,-0.185132004215,-0.043100004215,0.048838015785,0.160971105785,0.217426862985,-0.058455177015,-0.065851184215,0.059786968785,0.031822518785,-0.091595080215,-0.070170762215,0.075797093785,0.081563869685,2405,"DG_s12",19.656,20.359,21.859,21.859,13,7,10,10,1.5,"Left",13,7,6,6,0,0,-6,6,"Advent",3,-3,13,10,7,10
"86",9,"LOF5-LOF6",0.14067580065,0.13568265765,-0.14067580065,-0.07066705665,0.07507043565,-0.14701416635,-0.12766354085,-0.01086292885,-0.16040593535,-0.13756026935,0.00664713065,0.02628343865,-0.13513439035,0.03143291365,-0.01354641835,-0.07317113735,-0.07508917935,-0.21147733035,-0.21653109635,-0.08450847395,-0.08146280695,-0.07743925445,0.15565344455,0.12562780365,0.17769415365,0.34066451965,0.16429677665,0.00306388065,0.01227453765,-0.00644827435000001,0.08806914165,0.09116248165,0.04354624865,0.00680658965,-0.07928739835,-0.10128759035,0.000375245650000008,0.05975106435,0.02756884335,0.05260005265,-0.10894638635,-0.20666181435,-0.13766106935,2405,"DG_s12",19.656,20.359,21.859,21.859,13,7,10,10,1.5,"Left",13,7,6,6,0,0,-6,6,"Advent",3,-3,13,10,7,10
"87",9,"RIN1-RIN2",0.06203024425,0.02718522125,-0.06203024425,-0.13195429505,-0.04302122305,0.08429574775,0.08924114375,0.13603132275,0.21905963675,0.12489969275,-0.11579824025,-0.08786845925,0.01268654375,0.10429697205,0.12203752505,-0.07637297375,-0.00264468075,0.00755440274999999,-0.13782199325,-0.12615301025,0.05176175975,0.11537349075,0.14870552775,0.35854443775,0.22298528675,-0.000170757250000007,-0.04891034825,-0.08246534225,0.18725279275,0.41489543075,0.28353735075,0.18495136175,0.29057371735,0.19319960335,0.08287775175,0.15861662375,0.13195920475,-0.11735032425,-0.10194313925,-0.00534918495,0.06922690705,0.24764918275,0.19780796075,2405,"DG_s12",19.656,20.359,21.859,21.859,13,7,10,10,1.5,"Left",13,7,6,6,0,0,-6,6,"Advent",3,-3,13,10,7,10
"88",9,"LIN1-LIN2",0.0150655677,-0.0408743443,-0.0150655677,0.0604504633,0.0857880067,0.1771249877,0.1691043587,0.0722274717,0.0251212707,0.0499157077,0.3213924737,0.2917474937,0.2416899287,0.2213677767,0.2461042521,0.1726586621,0.1537168867,0.2229255537,0.0733954331,0.0940557501,0.1316248827,0.2285414807,0.1833159787,0.1363225587,0.2879476987,0.2809430337,0.0850919307,0.2248942727,0.2329423707,0.0322020487,-0.07816135784,-0.11999339374,0.0503285478,0.1425782187,0.1080496687,-0.0433619713,-0.0727236928,-0.0190930298,-0.1668065383,-0.2708326773,-0.1954115223,-0.0832047263,-0.0842909283,2405,"DG_s12",19.656,20.359,21.859,21.859,13,7,10,10,1.5,"Left",13,7,6,6,0,0,-6,6,"Advent",3,-3,13,10,7,10
"89",9,"RAM7-RAM8",-0.0982969555,-0.0097643075,0.0982969555,0.0736617245,0.0127354325,-0.09485844873,-0.12526736613,-0.1446987879,-0.2094718985,-0.0570379995,-0.09750424889,-0.18268258889,-0.0672178925,-0.0611584485,0.0719356345,0.2356978725,0.0897451555,-0.0936570835,-0.0446945865,0.0386013085,-0.0086807145,-0.0238532645,-0.1124294015,-0.2221402445,-0.1713387115,-0.2286141035,-0.0937150595,0.1636320455,0.0892300185,-0.1039862121,-0.0352754321,-0.0475905165,-0.0628619885,-0.0220615185,-0.1163437965,-0.0536804795,0.0409418605,-0.0756612926,-0.2278146826,-0.1194115105,0.0792635895,0.2005364635,-0.0056112765,2405,"DG_s12",19.656,20.359,21.859,21.859,13,7,10,10,1.5,"Left",13,7,6,6,0,0,-6,6,"Advent",3,-3,13,10,7,10
"90",9,"LOF3-LOF4",0.0835089215,-0.0998010045,-0.0835089215,0.0882412025,0.0669922305,0.00221049650000001,-0.0970632985,0.0021561415,0.1852781325,0.2902186245,0.2719377145,0.00606570250000001,-0.0330180875,0.2221911945,0.3575390565,0.1508507822,0.0432173742,0.0161602425,-0.1409318415,0.0460787505,0.0498874475,-0.1441867795,-0.1445821751,0.00913684390000001,0.0940437905,0.0181410745,0.0562210155,0.0074458335,-0.0253811845,-0.2189616665,-0.3217798555,-0.1093072055,-0.0726212045,-0.0542038945,0.1118969275,0.0472060395,0.1016706815,0.3351697255,0.1252857785,-0.0136192375,-0.00672142749999999,-0.0837645323,-0.00899171529999999,2405,"DG_s12",19.656,20.359,21.859,21.859,13,7,10,10,1.5,"Left",13,7,6,6,0,0,-6,6,"Advent",3,-3,13,10,7,10
"91",10,"LOF3-LOF4",-0.1820707975,-0.1846434145,0.1820707975,0.1311404965,-0.0801183635,0.1423554995,-0.0495693045,-0.1368689345,-0.0489239805,-0.1319167405,-0.0986982605,-0.0430609705,-0.1411819635,-0.0215980835,0.2427952545,0.2415371725,0.1563159575,-0.0839974425,-0.284992083878,-0.146550011878,-0.0890045505,-0.2507480885,-0.2287892685,0.1952117295,0.2631467295,-0.0319060005,-0.1757902255,-0.2844247895,-0.1297083915,0.0094170405,0.0670113175,0.0478375195,0.0759954295,0.2385387795,0.18020369691,-0.11230818709,-0.1627287575,0.0550467365,0.1578569135,0.5305326835,0.2570209595,-0.305705993,-0.233092521,2406,"DG_s12",22.859,23.562,24.25,24.25,10,26,10,10,0.688,"Right",10,26,16,16,0,16,0,-16,"Disadvent",0,16,10,10,10,26
"92",10,"RAM6-RAM7",-0.0617833297,-0.0282135503,0.0617833297,-0.00497407530000001,0.1421128347,0.1869023287,-0.0159566893,0.1636851267,0.3560280927,0.2394627837,0.1454509047,0.0697138807,0.1139285267,0.1308690597,0.0798394507,0.1387788797,0.1617790837,0.1385195307,0.3099205507,0.4259173377,0.2247708527,0.0647544407,0.0679914017,0.1828894647,0.1249484287,0.1959648509,0.3546642539,0.3130376045,0.3065410225,0.2448974107,0.1210147597,-0.1025072823,-0.0267677583,0.1309198817,0.1106125557,0.2404291857,0.2075589407,0.0346107947,0.0501766017,0.0976405862,0.0168220132,0.0202672947,-0.055030445,2406,"DG_s12",22.859,23.562,24.25,24.25,10,26,10,10,0.688,"Right",10,26,16,16,0,16,0,-16,"Disadvent",0,16,10,10,10,26
"93",10,"RIN2-RIN3",-0.014371224,0.090086074,0.014371224,0.2095754491,0.1599040921,-0.11209986,0.022152255,0.322515113,0.315229712,-0.091646375,-0.155847665,0.046268212,0.216698689,0.432626759,0.256336443,-0.134421237,0.040364114,0.339743134,0.1106784359,-0.1210328251,-0.098234848,-0.073071865,0.076419025,0.114316863,-0.0073032391,-0.0077233411,0.044380216,-0.006157562,-0.050902179,-0.133568019,-0.1632360237,-0.0625845337,-0.088914683,-0.125295603,-0.06360021555,0.01459957045,-0.040071402,-0.189946894,-0.0992032565,-0.02420065,-0.0732047335,-0.0691292923,-0.1176915983,2406,"DG_s12",22.859,23.562,24.25,24.25,10,26,10,10,0.688,"Right",10,26,16,16,0,16,0,-16,"Disadvent",0,16,10,10,10,26
"94",10,"RIN3-RIN4",0.14701042,-0.006926065,-0.14701042,-0.1416777,0.00135704,-0.007604187,-0.067041717,0.000662805999999998,0.124933665,0.147784133,0.099147956,-0.15532424,-0.228563034,0.00710512899999999,-0.060163749,-0.1237704963,-0.1322287663,-0.17952981,-0.22990432,-0.2087372714,-0.0111229574,0.1573811381,0.2281929171,0.364270373,0.30982465,0.107847928,0.12724602,0.311590142,0.237713456,0.204385956,0.253119108,0.148535521,0.124256993,0.16417938,0.189421793,0.128136755,0.294664722,0.26431594,-0.053120192,-0.07957776,0.069218697,0.140640441,0.156285456,2406,"DG_s12",22.859,23.562,24.25,24.25,10,26,10,10,0.688,"Right",10,26,16,16,0,16,0,-16,"Disadvent",0,16,10,10,10,26
"95",10,"LIN1-LIN2",0.131588404,0.079341965,-0.131588404,-0.095051033,-0.0261545705,-0.2109719725,-0.115540349,0.116889452,0.288251735,0.193007622,-0.097142929,-0.031225644,0.103367371,0.143916719,0.160813282,-0.026623258,-0.1349455376,-0.0467237146,0.0823479143,0.1217895283,-0.114239208,-0.308165365,-0.044939975,0.269585612,0.15225235,-0.183182399,-0.180698878,0.044603204,0.149250055,-0.062428025,0.145892495,0.343310559,0.249442259,0.335467741,0.121484301,-0.101191664,-0.166120789,-0.109399126,-0.049887094,-0.197471288,-0.272477815,-0.226455635,-0.014836195,2406,"DG_s12",22.859,23.562,24.25,24.25,10,26,10,10,0.688,"Right",10,26,16,16,0,16,0,-16,"Disadvent",0,16,10,10,10,26
"96",10,"RAM5-RAM6",0.05895462787,0.02400475453,-0.05895462787,-0.01576540107,0.05952867063,0.17113632663,0.03548261533,0.00897139373,0.03289044673,-0.06795705667,-0.03293348667,-0.05492441367,-0.19509097667,-0.20466663267,-0.02697634367,0.08569817333,0.10863341933,0.01883216033,0.06237908233,0.10965776833,0.22726071133,0.32507328733,0.18240979933,0.00350062033,-0.08208365167,0.24786874633,0.50857929633,0.25136407433,-0.01135056067,0.01419092233,0.16741920433,0.23123520433,0.19547544413,0.05301217613,-0.09553100067,-0.10019945167,0.05575662133,0.13526080373,0.07669976173,0.09813162733,-0.00811721067,-0.14590037967,-0.01469583767,2406,"DG_s12",22.859,23.562,24.25,24.25,10,26,10,10,0.688,"Right",10,26,16,16,0,16,0,-16,"Disadvent",0,16,10,10,10,26
"97",10,"LOF4-LOF5",0.12559523325,-0.04486736275,-0.12559523325,-0.09046298625,-0.20672149525,-0.32487815435,-0.25569799035,-0.22691717025,-0.18915786425,-0.15443802025,-0.29799840125,-0.34889778825,-0.38196689725,-0.37005380725,-0.22720424505,-0.02385930505,0.02624320175,0.02625342775,-0.14040139725,-0.24952398425,0.03342915175,0.05399140475,-0.05259483195,0.01774953405,-0.05411848605,-0.08571516305,-0.02127662715,-0.23730348715,-0.40099037625,-0.29043288025,-0.29226478025,-0.24847335725,-0.25954567725,-0.13586450625,0.14942675175,0.03549955875,-0.11230840415,-0.19436701115,-0.28539258125,-0.23275818025,-0.12348564943,-0.08064961443,-0.12105143825,2406,"DG_s12",22.859,23.562,24.25,24.25,10,26,10,10,0.688,"Right",10,26,16,16,0,16,0,-16,"Disadvent",0,16,10,10,10,26
"98",10,"RAM7-RAM8",0.0924280705,0.1349940695,-0.0924280705,-0.0011363372,-0.0099886772,0.0637095585,0.0955767625,-0.0353165582,-0.1539940872,-0.2883269505,-0.2162487545,-0.0493327415,-0.1007250904,-0.0348560534,0.0211405322,-0.0316299878,-0.07589226703,0.01554630297,-0.0259438625,-0.2764293425,-0.2467631855,-0.0874456755,0.1304982825,0.1586087825,0.1337245245,0.08657850949,0.06558118949,0.0272482045,-0.2044854855,-0.1280519195,0.0519224705,0.0773265545,0.0774631845,-0.0644040485,-0.2141734885,-0.2673235655,-0.2060640165,0.0294140755,0.0583968304,0.01388664612,0.03791947222,-0.0542703855,-0.1898403705,2406,"DG_s12",22.859,23.562,24.25,24.25,10,26,10,10,0.688,"Right",10,26,16,16,0,16,0,-16,"Disadvent",0,16,10,10,10,26
"99",10,"RIN1-RIN2",0.1986638355,0.0233414185,-0.1986638355,-0.2445580915,-0.1929810485,-0.2434489955,-0.1307560175,-0.1052718365,-0.1726180525,-0.3659209185,-0.5129444335,-0.3725375675,-0.0553432075,0.0727805655,0.0178920785,-0.1893624455,-0.0983292215,0.1896270595,-0.1214504055,-0.3825012455,-0.3244597935,-0.2494379918,-0.1825130577,-0.3000753924,-0.36621299528,-0.42622522228,-0.4530788895,-0.3384239495,-0.2186135495,-0.4090650895,-0.5223634308,-0.2351536508,-0.1907225485,-0.3435917365,-0.3998975155,-0.2924166275,-0.2461460832,-0.2922306612,-0.3628087355,-0.3391742805,-0.3487210605,-0.5214643575,-0.5009087245,2406,"DG_s12",22.859,23.562,24.25,24.25,10,26,10,10,0.688,"Right",10,26,16,16,0,16,0,-16,"Disadvent",0,16,10,10,10,26
"100",10,"LOF5-LOF6",0.09705541195,0.06278173695,-0.09705541195,-0.17344545395,0.08234389495,0.12079415095,0.01882416095,0.10083931275,0.09509683135,0.02480254755,-0.108161150255,-0.210512125255,-0.13226115005,0.11080067595,0.12039877995,0.09235300195,0.17082946195,-0.02506315505,-0.15444060405,-0.08836248605,-0.05027664005,-0.03981446305,-0.08965638105,0.14818242095,0.15512990195,-0.12327297705,-0.11933085485,-0.01120633485,-0.00260683805,-0.18717055905,-0.32760849805,-0.29848502205,-0.07198638205,0.18997955195,0.20102640995,-0.02498375145,-0.18640674745,-0.14306982905,-0.05734555105,-0.01698132705,-0.11688078705,-0.21256156405,-0.11400107505,2406,"DG_s12",22.859,23.562,24.25,24.25,10,26,10,10,0.688,"Right",10,26,16,16,0,16,0,-16,"Disadvent",0,16,10,10,10,26
"101",11,"LOF5-LOF6",0.07652989555,0.01246265745,-0.07652989555,-0.10904244345,0.03936051255,0.07841780555,0.04336919755,-0.02928600245,-0.17884769815,-0.07560779015,-0.17723904545,-0.11940169645,-0.06358422745,-0.03942884345,0.13229854755,-0.02129313345,-0.04784018345,-0.01978887345,-0.04245394155,0.07566865965,0.11234717675,0.01987876455,-0.02327793245,0.16328348155,0.20193237055,-0.04468996245,-0.13722106845,-0.03465623245,0.04225820255,0.07723131715,0.01499809915,0.01410166855,-0.03100561645,-0.09764822145,0.03634587355,0.13809377645,0.04789905745,-0.08066284645,-0.08894219145,-0.02751461445,0.02482375655,0.03050914355,0.02477241855,2407,"DG_s12",25.25,25.953,26.859,26.859,13,22,10,10,0.906,"Right",13,22,9,9,0,9,0,-9,"Disadvent",3,12,10,13,10,22
"102",11,"RAM5-RAM6",-0.10278678605,0.11619711605,0.10278678605,-0.01673449705,0.05562523895,0.01963153795,0.12138398395,0.18607923495,0.14537114695,0.24580946495,0.12779861295,-0.09592149505,-0.03675024505,0.17242152395,0.14166375585,0.03292100595,0.02596275405,-0.03159716505,0.29128978495,0.47586925495,0.20718314495,0.08624445495,-0.08989328505,0.10577554695,0.27772369695,0.14593198795,0.12030968795,-0.06747985105,-0.23614415105,0.05203906685,0.17012260385,0.09033892495,0.15522956295,0.22673462995,0.05811876495,-0.11772076775,-0.00137380575000001,-0.09738800105,-0.14463190605,-0.15307750805,-0.22921400505,-0.01166952405,0.05196987135,2407,"DG_s12",25.25,25.953,26.859,26.859,13,22,10,10,0.906,"Right",13,22,9,9,0,9,0,-9,"Disadvent",3,12,10,13,10,22
"103",11,"RAM7-RAM8",0.0102339175,0.1150289125,-0.0102339175,-0.1495968059,0.0552388481,-0.0894158255,-0.0148173195,0.3167055475,0.0960804225,-0.1040238815,-0.2540199365,-0.3837481225,-0.2716387275,-0.2088482855,0.0819365695,0.1026303585,-0.1794367415,-0.1784600835,-0.1779751375,-0.1133819105,0.1600753735,0.1307282589,-0.0730928371,-0.0431087485,-0.1820041715,-0.2138434405,-0.1855331685,-0.0486154895,0.0599429048,-0.1057761952,0.0809947908,0.0615047714,-0.1912628119,-0.2122511365,-0.2053974545,-0.0197928405,0.0631901695,0.06480709912,0.03064128712,0.0191807075,0.000483387500000002,-0.0508638265,-0.0805316305,2407,"DG_s12",25.25,25.953,26.859,26.859,13,22,10,10,0.906,"Right",13,22,9,9,0,9,0,-9,"Disadvent",3,12,10,13,10,22
"104",11,"RAM6-RAM7",0.000580062499999999,-0.0648690775,-0.000580062499999998,0.0836860435,0.2485627435,0.159995941376,-0.108585968624,-0.2407914525,-0.0075270875,0.1424143485,0.0504737935,-0.1441059025,-0.1891958685,-0.1756804055,-0.1213022765,0.0125113342,0.0664828932,0.2655141985,0.0998400365,-0.0848550995,0.1168867757,0.0366134927,-0.0153288225,0.171698851705,0.066311496805,-0.0762614644,-0.0061061195,-0.0207802595,0.0308297335,0.0687121235,0.0170454375,0.0090298815,0.0091618975,-0.0029745135,-0.0575062935,0.1707597005,0.1465044745,-0.0374662645,-0.0890472085,-0.13112653,-0.004982231,0.0645406755,0.0741353535,2407,"DG_s12",25.25,25.953,26.859,26.859,13,22,10,10,0.906,"Right",13,22,9,9,0,9,0,-9,"Disadvent",3,12,10,13,10,22
"105",11,"LOF4-LOF5",0.08742861,-0.01437167,-0.08742861,-0.138357529,-0.17584532,-0.204320471,-0.142058446,0.08841388,0.258898855,0.194011332,0.1437568837,0.1284789637,0.185781322,0.155134798,-0.048372702,0.070007139,0.392864949,0.139523638,0.038604808,0.266264947,0.11428169,0.142387989,0.165466899,0.05214141,0.022283064,0.023033241,-0.124092936,-0.222484401,-0.183265661,0.155545924,0.206422314,-0.141058411,-0.2110638126,0.0061463274,0.073517935,0.205937448,0.189522438,-0.1057539565,-0.0810747965,0.0523920259,0.1726322419,0.059713341,-0.043193015,2407,"DG_s12",25.25,25.953,26.859,26.859,13,22,10,10,0.906,"Right",13,22,9,9,0,9,0,-9,"Disadvent",3,12,10,13,10,22
"106",11,"RIN3-RIN4",0.03908544905,-0.00747073695,-0.03908544905,0.01871297795,0.09033962305,0.05919195005,-0.06914928295,-0.17967786395,-0.11839216095,-0.02997215295,-0.05363298695,0.05575475205,0.16394806805,0.24738387905,0.23412044417,0.00705194317000001,-0.04510348195,-0.08858125095,-0.17514438195,-0.12143857995,-0.04828209595,0.23884799205,0.31166602205,0.07313194205,-0.06222014595,-0.04441438195,-0.06954613195,-0.05667848395,0.01925727205,0.07128672105,0.20304008405,0.17704762005,0.14170381205,0.12374552005,0.08766923005,0.17398150505,0.01514453005,-0.03426422595,0.20019650905,0.02193439505,-0.24564997895,-0.04882457995,0.13283619605,2407,"DG_s12",25.25,25.953,26.859,26.859,13,22,10,10,0.906,"Right",13,22,9,9,0,9,0,-9,"Disadvent",3,12,10,13,10,22
"107",11,"RIN1-RIN2",-0.0216927221,0.0601015759,0.0216927221,-0.0133177189,-0.1860622179,-0.1929855789,-0.1432562649,-0.1258936549,-0.2259408349,-0.1070410869,0.1948476731,0.3134010871,0.1723074479,0.3019161779,0.4359343821,0.0956275471,-0.0609780129,-0.0332889189,-0.0981503169,-0.0582843559,-0.0938971089,-0.0228141089,0.2517652371,0.2027353291,0.0500311991,-0.1381368829,-0.3150938829,-0.1879218589,0.0788273011,0.0587771281,-0.0740350799,0.177450972,0.118211023,-0.0343542349,-0.0333771469,0.0324515881,0.1024075531,0.0788107431,0.0687400441,0.0114404878,0.0318005008,-0.0274301639,0.0128108397,2407,"DG_s12",25.25,25.953,26.859,26.859,13,22,10,10,0.906,"Right",13,22,9,9,0,9,0,-9,"Disadvent",3,12,10,13,10,22
"108",11,"LOF3-LOF4",0.1102117356,-0.0626694384,-0.1102117356,0.0470447348,0.0603575748,-0.1440971596,-0.0079429376,0.0334923274,0.0068252614,0.1637200684,0.1900418174,0.0177189224,-0.0368847196,0.1445929594,0.2928269884,0.2678791244,0.2404016744,0.2413740524,0.2905065384,0.2202748254,-0.0341372406,-0.0697947076,-0.0237763416,0.1047190384,0.2323228382,0.1296583222,-0.0536571536,-0.1807803976,-0.122316736,0.224566225,0.2912638694,0.1217435684,0.0077588324,0.0598670824,0.1088623184,0.1384926944,0.2835102474,0.2233856985,0.1370170915,0.1553917874,0.1048032254,0.0377173704,0.0894599034,2407,"DG_s12",25.25,25.953,26.859,26.859,13,22,10,10,0.906,"Right",13,22,9,9,0,9,0,-9,"Disadvent",3,12,10,13,10,22
"109",11,"LIN1-LIN2",0.008803771,-0.024930034,-0.008803771,-0.015548595,-0.1480998335,-0.0165248235,-0.058844735,-0.117030083,0.056050747,0.244665495,0.268227667,0.292618147,0.235982002,0.241493199,0.159165386,0.040815819,0.037103059,0.115965664,0.303657026,0.422745188,0.222185332,-0.038371008,-0.0436457813,-0.0760853733,0.018365599,0.046638235,-0.011507922,-0.031379182,-0.035980461,-0.171951362,-0.297450635,-0.038926854,-0.012448994,-0.142398852,0.009341203,0.042546906,-0.000567650000000003,-0.048407242,-0.061485333,0.021339373,-0.0041123437,-0.0297779967,0.050625184,2407,"DG_s12",25.25,25.953,26.859,26.859,13,22,10,10,0.906,"Right",13,22,9,9,0,9,0,-9,"Disadvent",3,12,10,13,10,22
"110",11,"RIN2-RIN3",-0.0936230287,0.0094824263,0.0936230287,0.1140369587,0.1170505033,0.0124178515,0.1119968085,0.2596440653,0.2005609083,0.0983426533,0.2727331178,0.2602616678,0.1737368307,0.2036330687,0.1112949013,0.1269360966,0.1807968506,0.0409464563,-0.00297533670000001,0.2266971566,0.1956615526,0.0250592113,0.0277756223,0.1382289519,0.1864143129,0.0513663803,0.0421369453,0.1590000273,0.3366459503,0.3734025903,0.2793890153,0.2355733023,0.149046493,0.0896764273,0.0150322856,0.2120386943,0.2918754723,0.2228064923,0.2831077203,0.0706704103,0.0607662793,0.1720175713,0.0450942273,2407,"DG_s12",25.25,25.953,26.859,26.859,13,22,10,10,0.906,"Right",13,22,9,9,0,9,0,-9,"Disadvent",3,12,10,13,10,22
"111",12,"RAM6-RAM7",-0.0404308257,-0.0040292553,0.0404308257,-0.0169880023,-0.0043542933,0.0877799187,0.0222591397,0.0327317537,0.1360529577,0.1268745707,0.0497529127,-0.0660807223,0.1149836607,0.2588992397,0.3389836897,0.2880435967,0.0898767788,-0.0171128572,-0.0722044543,-0.015778475,0.027715822,0.3379559127,0.3456625247,0.0716719687,-0.0320415663,0.0598345797,0.2272603157,0.2210366297,0.2048292147,0.1381491597,-0.0755750863,0.0055969747,0.04461033391,-0.02984823279,0.103179097,0.1389916576,0.1473153856,0.1020666547,0.1158834544,0.1897032956,0.1687824529,0.0879095487,0.1856724307,2408,"DG_s12",27.859,28.562,29.469,29.469,16,4,10,10,0.907,"Left",16,4,12,12,0,0,-12,12,"Advent",6,-6,16,10,4,10
"112",12,"LIN1-LIN2",-0.008604677,0.000311031999999999,0.008604677,-0.065586088,0.0457057484,0.1763842234,0.178143596,0.201881849,0.378918055,0.305300652,0.087662054,0.194390334,0.226038368,-0.002221261,-0.146084677,-0.090944279,-0.027560108,-0.009056153,0.023461988,-0.03881784,-0.039503828,-0.014679961,-0.144734145,-0.103687187,0.153730193,0.092192023,0.043324683,0.181149774,0.067553565,0.058147397,0.256351366,0.015390672,-0.320047758,-0.108965458,0.078007672,-0.090613321,-0.213660891,-0.089869901,-0.016126779,-0.023996956,0.150225073,0.036130597,-0.0609597702,2408,"DG_s12",27.859,28.562,29.469,29.469,16,4,10,10,0.907,"Left",16,4,12,12,0,0,-12,12,"Advent",6,-6,16,10,4,10
"113",12,"RIN2-RIN3",0.0434914045,-0.1962365245,-0.0434914045,0.0522666655,0.1312759635,0.2528720485,0.1717929405,0.131939425,0.0086252953,-0.1848085842,-0.0799930585,-0.0194544925,0.1068904015,0.0790978975,-0.0892514575,0.0135649255,0.0893268705,0.0172976336,-0.0925407375,-0.0138479076,0.0529776755,0.2004101175,0.2033423775,0.1472774395,0.2461934535,0.0895905905,-0.0208803855,0.0411875955,0.1311884655,0.1637611475,0.1972126375,0.1330161535,0.0937964303,0.2122833353,0.1050909556,-0.1248439474,-0.1727251845,0.0238645625,0.0325172505,-0.0124546565,0.0934735135,0.1081300335,-0.0275591345,2408,"DG_s12",27.859,28.562,29.469,29.469,16,4,10,10,0.907,"Left",16,4,12,12,0,0,-12,12,"Advent",6,-6,16,10,4,10
"114",12,"RAM5-RAM6",0.0386273011,0.0045630331,-0.0386273011,0.0772157329,0.0547881819,0.1474726219,0.1678219019,-0.0220055601,0.0988755379,0.25604138565,0.27749516865,0.1725587089,-0.0247540221,0.1076939829,0.2646010529,0.0192267463,-0.1238583027,0.0427839118,0.1334280118,-0.0141312511,-0.1527835011,0.0649505999,0.2213408499,-0.0075201971,-0.1596935771,-0.1205524951,-0.1459291051,-0.2160526771,-0.2007376671,-0.0114968381,0.0828081219,0.0875140069,0.2068532899,0.0347544269,-0.1053107105,0.010638167472,0.069778351872,0.1010152499,0.1893855099,0.2277214419,0.0417087033,0.0919122153,0.2419757639,2408,"DG_s12",27.859,28.562,29.469,29.469,16,4,10,10,0.907,"Left",16,4,12,12,0,0,-12,12,"Advent",6,-6,16,10,4,10
"115",12,"LOF4-LOF5",-0.1077457969,-0.0210746621,0.1077457969,0.0728227571,-0.1285291319,-0.1238571995,-0.0499549615,-0.1623665119,-0.2944774199,-0.4186356419,-0.4348656319,-0.3265106815,-0.2496132715,-0.1761329279,-0.2352754579,-0.2819665559,-0.1777671579,-0.1629152129,-0.1100667709,-0.1418004929,-0.1892715689,-0.1935202579,-0.1562964349,-0.0173229619,0.0403462561,-0.0655230689,-0.1847922999,-0.3751444059,-0.5827528399,-0.3370734519,-0.2780616519,-0.4160908719,-0.0988470219,0.0465679681,-0.1533735712,-0.1418171412,-0.0775176199,-0.3038344399,-0.4211099139,-0.2548563939,-0.0756645919,-0.1867910259,-0.2722833159,2408,"DG_s12",27.859,28.562,29.469,29.469,16,4,10,10,0.907,"Left",16,4,12,12,0,0,-12,12,"Advent",6,-6,16,10,4,10
"116",12,"RAM7-RAM8",-0.0773298075,-0.0528724975,0.0773298075,0.080992291,0.053869971,0.0482465535,0.1046894305,0.1359759175,-0.0437009385,-0.0626389325,0.00974737649999999,0.1524227575,0.3123269139,0.1844324779,0.0493005545,0.0252921405,0.1533773944,0.0898128344,-0.0079185355,-0.0280686925,-0.0112607775,0.5253154495,0.5399951895,0.2090554645,0.4465670545,0.4305889295,0.0891207065,0.1647779165,0.1812239695,0.0509778395,0.1171730995,0.0030599095,-0.1947472805,-0.1634381145,0.0090288235,-0.0309176205,-0.0873980715,-0.0007163455,0.0543488405,0.0332061505,0.1409349475,0.2913430595,0.17493144979,2408,"DG_s12",27.859,28.562,29.469,29.469,16,4,10,10,0.907,"Left",16,4,12,12,0,0,-12,12,"Advent",6,-6,16,10,4,10
"117",12,"RIN3-RIN4",-0.03275732685,-0.10998384085,0.03275732685,0.04472169585,-0.09031420205,-0.07291429805,0.09834747585,-0.02085304115,0.10374773185,0.21929812085,-0.03958380415,0.03565264945,0.10651967145,0.07505324635,0.12395151965,0.21357376915,0.05481485885,-0.21683366115,-0.10799870715,0.11360498828,0.41200635928,0.32111705785,0.15892095885,0.15296705085,0.03983353585,0.21852460985,0.28125273885,0.09400099885,0.07535812385,0.03372041385,0.07692766085,0.19238885585,0.08409236905,0.06767686405,0.07764272385,0.27533124385,0.49598297385,0.20290749185,0.02100425985,0.10324337085,0.07562768185,0.13892949185,0.09785785585,2408,"DG_s12",27.859,28.562,29.469,29.469,16,4,10,10,0.907,"Left",16,4,12,12,0,0,-12,12,"Advent",6,-6,16,10,4,10
"118",12,"RIN1-RIN2",0.0418510565,-0.1614007515,-0.0418510565,0.1424179085,0.3735602135,0.4183464285,0.2170481265,0.2200267475,0.1182535504,-0.1201824736,-0.1096862855,0.0431363933,0.2268679243,0.1360485235,-0.0836314216,0.0286766304,0.2936504635,0.2909337735,0.1192060771,0.1127553671,0.1406842405,0.1636128845,0.2924084495,0.3814413985,0.3538292785,0.1194524185,-0.1240391415,-0.0771670115,0.0929923285,0.2246878885,0.3106099485,0.3824944785,0.4098966655,0.3560103647,0.1837810317,0.1955555425,0.2467345165,0.1612776785,0.2409191665,0.1481432049,0.0394096533,0.1037807949,0.0470008305,2408,"DG_s12",27.859,28.562,29.469,29.469,16,4,10,10,0.907,"Left",16,4,12,12,0,0,-12,12,"Advent",6,-6,16,10,4,10
"119",12,"LOF5-LOF6",-0.0906083979,-0.0865317521,0.0906083979,0.0558968279,0.0103724411,0.0122854671,0.0296226259,0.0488794749,-0.0482492871,0.0381485719,0.1000861169,0.0301610589,0.0354619859,0.1680142389,0.2020395069,-0.0798269231,-0.0836478151,0.0380383649,0.0399782939,0.1138089599,0.1600252629,0.0156614669,-0.0243435031,0.0809494769,0.0239877759,0.1246872669,0.1660748739,0.0019576529,0.1080629519,0.2175695289,0.1164934329,0.0537528829,0.1215838639,0.1621201109,0.1253790509,0.0838922319,0.2249150819,0.3577828499,0.3140450499,0.2096804659,0.1669154109,0.1098387419,0.1537157469,2408,"DG_s12",27.859,28.562,29.469,29.469,16,4,10,10,0.907,"Left",16,4,12,12,0,0,-12,12,"Advent",6,-6,16,10,4,10
"120",12,"LOF3-LOF4",0.1047630655,-0.3013900545,-0.1047630655,0.0768389235,0.0166449355,0.05978093826,-0.01268855674,-0.0910371285,0.1392507245,0.1509615745,-0.1035250403,-0.0023407403,0.1326988745,0.0178112116,-0.1745826384,-0.1799056987,0.0580562713,0.1236657375,0.0901528345,0.1275679885,-0.0737342615,-0.1040891565,0.3639111765,0.4166395945,-0.0340010125,-0.1066949602,-0.1088499132,-0.1891089165,-0.1632778965,-0.2665674215,-0.2941065865,-0.1649055197,-0.0909323637,0.2341241755,0.2176439245,-0.0426329935,-0.0931922915,-0.17459516056,0.00742946143999999,0.1604005005,0.0439767965,0.0866690245,0.0950338425,2408,"DG_s12",27.859,28.562,29.469,29.469,16,4,10,10,0.907,"Left",16,4,12,12,0,0,-12,12,"Advent",6,-6,16,10,4,10
"121",13,"LIN1-LIN2",-0.06012115725,-0.19359852625,0.06012115725,0.06322499625,-0.00705943335000001,0.06832986665,0.10272928625,0.06003431425,0.03972187425,0.24844864725,0.17919151225,0.01629080725,0.08494764125,0.08514231835,0.01244693635,0.04283260725,0.01019388725,-0.04245950375,0.03602985155,0.19308068855,0.19541977625,0.10371534525,0.09997306525,0.03371532625,-0.04900896375,-0.15640743475,-0.07568050845,0.04264028855,0.11906391825,0.03470436225,-0.26181944375,-0.35355325375,-0.18573942475,-0.04058076775,-0.15897481175,-0.24193871675,-0.30867193175,-0.23608290875,-0.01763763875,-0.10315536375,-0.18941700175,-0.28040320175,-0.28114294175,2409,"DG_s12",30.469,31.172,32.14,32.14,10,10,8,11,0.968,"Left",8,11,3,0,3,3,0,-3,"10-10",2,-1,10,8,10,11
"122",13,"RAM7-RAM8",-0.0680053655,-0.0582232655,0.0680053655,0.0861941825,0.1253501935,0.1439692115,0.0698890508,0.0117437428,0.0289301155,0.3379615365,0.4141639485,0.2302574755,0.2157289017,0.1333422767,-0.0419737185,-0.1088621185,-0.1357063965,0.0679074635,0.2174272155,-0.0210174345,-0.2277564485,-0.1786332185,0.0551597285,0.1999993585,0.1814342785,-0.0062515425,-0.1524945495,-0.0033051535,0.0065564469,0.0035010949,0.1941593815,0.2017264195,0.1178937895,0.0327691735,-0.1188467447,-0.0924359477,-0.0657080425,-0.2110922445,-0.1284177475,-0.0692851,-0.134456229,-0.0579232265,-0.1074169265,2409,"DG_s12",30.469,31.172,32.14,32.14,10,10,8,11,0.968,"Left",8,11,3,0,3,3,0,-3,"10-10",2,-1,10,8,10,11
"123",13,"LOF4-LOF5",-0.15906335855,0.11525265855,0.15906335855,-0.03053538805,-0.32119712805,-0.45579752145,-0.33733603945,-0.29834956415,-0.444699131866,-0.378807947166,-0.18109407345,-0.30223131345,-0.52249455045,-0.40113973445,-0.25306009245,-0.34680866845,-0.33053005394,-0.12090068794,-0.20837444745,-0.32578770145,-0.14339531605,-0.19379067405,-0.34413010545,-0.26823937045,-0.20832360245,-0.18073599145,-0.27179409845,-0.36947860845,-0.27954368345,-0.26735348845,-0.33261493845,-0.44944912895,-0.39799448795,-0.24465365145,-0.28994496845,-0.41855002945,-0.47968487845,-0.34205009845,-0.21402486645,-0.25540150845,-0.35791081945,-0.40516808945,-0.34455420045,2409,"DG_s12",30.469,31.172,32.14,32.14,10,10,8,11,0.968,"Left",8,11,3,0,3,3,0,-3,"10-10",2,-1,10,8,10,11
"124",13,"LOF5-LOF6",0.2264032562,-0.00706525879999999,-0.2264032562,-0.0801091612,-0.0340660848,-0.0588835613,-0.0087554503,0.1347141362,0.034326602696,-0.074151145104,0.0914889114,0.0796831332,-0.1049039338,-0.0552297878,-0.0446989648,-0.1271802288,0.0748007412,0.1023176802,-0.0367891898,-0.0892963748,-0.0984756738,-0.0464361058,-0.0196692928,0.1814179412,0.2397829272,-0.0387252648,-0.2084966038,0.0882377862,0.2068706027,0.0647939107,0.0369529499,0.0787291819,0.1003655408,0.1075290138,0.0826995962,-0.1194938338,-0.1300510498,0.1475221672,0.3851688772,0.2450796032,-0.1112387378,-0.1963361878,-0.1678189588,2409,"DG_s12",30.469,31.172,32.14,32.14,10,10,8,11,0.968,"Left",8,11,3,0,3,3,0,-3,"10-10",2,-1,10,8,10,11
"125",13,"RAM6-RAM7",-0.076392287,-0.04332554,0.076392287,0.049521067,-0.144701035,-0.0639981477,0.0159420173,-0.09398788127,-0.09236762727,0.031681777,0.063230193,0.1036865007,0.0866879802,0.035084981,0.1011330025,-0.091715084,-0.229326238,-0.09070101,-0.066258209,-0.043251335,0.082038481,0.215000287,0.0639661049,-0.2227710131,-0.262230494,-0.140286893,-0.127125737,-0.143261044,0.160298566,0.069432733,-0.1709754798,-0.2294332228,-0.358480327,-0.247350873,-0.1119364517,-0.1761946057,-0.00675107699999999,0.27547247,0.40140232,0.253941653,-0.003710507,0.034665888,0.103842135,2409,"DG_s12",30.469,31.172,32.14,32.14,10,10,8,11,0.968,"Left",8,11,3,0,3,3,0,-3,"10-10",2,-1,10,8,10,11
"126",13,"RIN3-RIN4",0.00222407599999999,0.052231987,-0.00222407600000001,-0.141642558,0.025224513,0.052698293,-0.111423394,-0.03765601,0.0785314861,0.1487954921,0.2145224777,0.1636502577,0.126527542,0.301210992,0.274617717,-0.033777503,-0.0506699984,0.0296671716,0.042454597,0.11464081758,0.03861373958,0.0746556486,0.0709526226,0.088628276,0.2369425241,0.2617126611,0.248313972,0.072785863,0.040485723,-0.003766827,-0.102620597,0.055072787,0.133660871,0.035430726,0.0967882217,0.0049627917,-0.134518425,0.053795509,0.2297608788,0.2719506348,0.058423412,0.305744862,0.584369172,2409,"DG_s12",30.469,31.172,32.14,32.14,10,10,8,11,0.968,"Left",8,11,3,0,3,3,0,-3,"10-10",2,-1,10,8,10,11
"127",13,"LOF3-LOF4",0.088040361,0.038816845,-0.088040361,0.076968275,0.026447662,-0.034280363,0.102024442,0.152988191,0.20740471,0.144948891,0.0582317378,0.2321633078,0.179581802,0.023257923,0.192120198,0.1657859634,0.0692836934,0.151794677,0.552936977,0.44287534,0.04660483,0.169447009,0.325999319,0.250781167,0.0958294804,0.0258595734,-0.0295777196,-0.0052042616,0.056820493,0.196703922,0.313084089,0.189815044,0.169327895,0.05058436,-0.007843255,0.0111279375,-0.1984029805,-0.130732656,-0.003528652,-0.091672349,-0.216934705,-0.211898567,-0.142154938,2409,"DG_s12",30.469,31.172,32.14,32.14,10,10,8,11,0.968,"Left",8,11,3,0,3,3,0,-3,"10-10",2,-1,10,8,10,11
"128",13,"RAM5-RAM6",0.2067463126,0.0734295146,-0.2067463126,-0.0110322236,-0.0712651861,-0.1261333351,-0.150925869,-0.225619331,-0.0799157154,-0.1177531004,-0.2791591633,-0.3776635043,-0.2484931784,-0.042351244,-0.094333289,-0.2211073684,-0.1353937774,-0.0034503354,-0.1121674834,-0.4020906934,-0.3908568004,-0.2567665514,-0.3997729274,-0.2691988964,0.0492824336,-0.01262991,-0.109479012,-0.0177723984,0.0878070136,0.0822576336,-0.0502363524,-0.1952830943,-0.2736625233,-0.3251172414,-0.3518213164,-0.2936636684,-0.0960421644,0.1017936576,0.0523481916,-0.1905680864,-0.1771869644,0.0905804336,0.1958219966,2409,"DG_s12",30.469,31.172,32.14,32.14,10,10,8,11,0.968,"Left",8,11,3,0,3,3,0,-3,"10-10",2,-1,10,8,10,11
"129",13,"RIN1-RIN2",0.09085577415,0.03416278185,-0.09085577415,-0.12161824477,-0.20815173877,-0.23876379415,-0.12535994345,-0.20496704245,-0.25568128315,0.01025243885,0.000237148850000007,-0.09718737415,-0.00698187614999998,-0.05876871015,-0.15159173415,-0.17826153745,-0.13660416645,-0.17604752915,-0.16122403115,-0.17937590715,-0.09748736615,-0.08679405415,-0.17743256815,0.07815896585,0.08924776585,0.06319142185,0.11934723585,0.06399560459,0.22125859059,0.42205672585,0.18747143585,0.11272802885,0.37170254885,0.16798702585,-0.01867516398,-0.01635606498,-0.11759508015,-0.03411572915,0.16926382585,0.13570814585,-0.04184870315,-0.10599663515,-0.04653231915,2409,"DG_s12",30.469,31.172,32.14,32.14,10,10,8,11,0.968,"Left",8,11,3,0,3,3,0,-3,"10-10",2,-1,10,8,10,11
"130",13,"RIN2-RIN3",0.18916361275,0.05612250675,-0.18916361275,0.02574221625,0.09094833775,-0.03665594725,0.00653718575,-0.05892636325,-0.18088283825,-0.16315513645,-0.05153317245,0.02702049975,0.15815417575,-0.00758180425,-0.23668655425,-0.22670535925,-0.13782271925,-0.17961679425,-0.15125428425,0.10524977775,0.15079279175,0.06949875075,-0.01162266125,0.10980953775,0.18546673575,0.18402723575,0.11445677195,0.12148625895,0.30551268275,0.31630210575,0.21584138375,0.06663440475,0.15067992675,0.17782942175,0.06089760375,-0.06266623225,-0.09707983425,0.13240169975,0.19874507175,0.06446601235,0.01526395035,-0.00908332865,-0.01242648055,2409,"DG_s12",30.469,31.172,32.14,32.14,10,10,8,11,0.968,"Left",8,11,3,0,3,3,0,-3,"10-10",2,-1,10,8,10,11
"131",14,"LOF3-LOF4",-0.101030691,-0.015222521,0.101030691,-0.129503869,-0.236017098,-0.002268148,0.00476432699999998,-0.017070667,-0.074694782,-0.265812218,-0.142759156,-0.109571672,-0.2328073771,-0.2227936541,-0.299829121,-0.3840473868,-0.2442032989,-0.155441621,-0.0492817989,0.202573042,0.178723779,0.071148051,-0.03972817,-0.17843629,-0.150508676,-0.206455757,-0.008850317,0.096574888,-0.087008105,-0.078036571,-0.024526297,-0.0923729749,-0.0897314149,0.015176644,-0.090693814,-0.103994558,0.066011619,0.141784312,0.01507098786,-0.06032245214,-0.014573435,-0.173071937,-0.1323009332,2410,"DG_s12",33.14,33.844,34.422,34.422,18,18,10,10,0.578,"Left",18,18,0,0,0,0,0,0,"Equal",8,8,18,10,18,10
"132",14,"RAM5-RAM6",0.022445845,-0.0854679942,-0.022445845,-0.039080086,-0.0372300966,0.1938379634,0.230920084,0.110262065,0.182330186,0.118836465,-0.146612939,-0.210042511,-0.155456064,-0.046397237,-0.128745409,-0.200731584,-0.0104313578,0.0101552942,-0.16189992,-0.076010279,0.0820924891,0.1714696961,0.102704374,-0.103813003,-0.1048925998,-0.0386754208,0.071804966,0.073388893,0.028672814,0.018216471,0.054232465,0.023605281,-0.0667726415,-0.0931635055,0.010091112,0.259799649,0.223870756,0.135787544,0.170951593,-0.045711534,-0.141676312,0.073384921,0.071571189,2410,"DG_s12",33.14,33.844,34.422,34.422,18,18,10,10,0.578,"Left",18,18,0,0,0,0,0,0,"Equal",8,8,18,10,18,10
"133",14,"LOF5-LOF6",-0.10302393142,-0.02089446858,0.10302393142,0.14833510958,0.07950572858,-0.01341475542,0.01776587458,0.04187836258,0.09510652918,0.18388470518,0.14723010458,0.01456434458,-0.06465484242,-0.05092375672,-0.11002926472,-0.12092109742,-0.11998779542,-0.18969942542,-0.03475872842,-0.12422344142,-0.26066611142,-0.04225622742,0.10306678258,0.09400605458,0.03054626758,-0.00887680742000001,-0.11714525242,-0.06631435542,-0.02140681942,-0.10238278242,-0.22759729642,-0.16444476242,0.16744626758,0.17369270258,-0.08405186442,-0.24483039642,0.01400585058,0.24132789058,0.05499165658,-0.15806305942,-0.21789466642,-0.22965784342,-0.14435877242,2410,"DG_s12",33.14,33.844,34.422,34.422,18,18,10,10,0.578,"Left",18,18,0,0,0,0,0,0,"Equal",8,8,18,10,18,10
"134",14,"LIN1-LIN2",-0.1164768925,0.0313193105,0.1164768925,0.0419800368,0.1725531158,0.0561238665,-0.2638889525,-0.1311081765,0.0052678185,-0.0219485035,0.2554179315,0.4169156415,0.3475993115,0.2499588135,0.0919646415,0.2888865695,0.2277265905,0.1785192605,0.4586578465,0.3372529585,0.0861771805,-0.0092995055,-0.0646571955,-0.03034440566,-0.02556866266,-0.1890197185,-0.1841691335,-0.1285447275,-0.2728602225,-0.3004874685,-0.2264088385,-0.1226810765,-0.0693463535,-0.0946658015,-0.1230705745,-0.0479767485,0.0640077515,-0.0304325735,-0.1317810395,-0.1680291995,-0.1778527295,-0.1965437045,-0.1206690145,2410,"DG_s12",33.14,33.844,34.422,34.422,18,18,10,10,0.578,"Left",18,18,0,0,0,0,0,0,"Equal",8,8,18,10,18,10
"135",14,"RAM6-RAM7",-0.129438529,-0.047390991,0.129438529,0.038903883,0.100943193,0.039788179,0.081114359,-0.00779385299999999,-0.291002413,-0.389972511,-0.2590733016,-0.2454817626,-0.388201257,-0.235538753,-0.119286188,-0.098388774,-0.191147658,-0.262411595,-0.228153942,-0.015888602,0.00710332900000002,-0.089754465,-0.02789887,-0.070596084,-0.105357485,-0.2184369386,-0.2853289216,-0.13459794,-0.1126629983,-0.2126939583,-0.082015712,0.165808628,0.00186753680000001,-0.3524035432,-0.182027051,0.09414296,0.053517303,-0.103613941,-0.099237925,-0.14757299129,-0.26324653329,-0.210159868,0.045748505,2410,"DG_s12",33.14,33.844,34.422,34.422,18,18,10,10,0.578,"Left",18,18,0,0,0,0,0,0,"Equal",8,8,18,10,18,10
"136",14,"RIN2-RIN3",0.01999269315,0.00252143685,-0.01999269315,-0.04894418715,0.21813121285,0.28275303785,0.11838800375,0.10600785645,0.15614825055,0.25089682645,0.15384703645,0.13434239585,0.19694695985,0.19723341785,0.21513665685,0.28103146785,0.45613403385,0.50207393185,0.35728881035,0.18649864935,0.05119387185,0.11610311585,0.28474091315,0.14852186615,0.06581574085,0.11919754885,0.25654842185,0.35160889485,0.33185564985,0.36572473784,0.26412259384,0.41103598285,0.28208898685,0.04093105485,0.22072765485,0.28921804785,0.34954210785,0.24609408685,0.15309359085,0.22897054985,0.12397658585,0.12622658685,0.30649536685,2410,"DG_s12",33.14,33.844,34.422,34.422,18,18,10,10,0.578,"Left",18,18,0,0,0,0,0,0,"Equal",8,8,18,10,18,10
"137",14,"RIN1-RIN2",0.04439054745,-0.01997868225,-0.04439054745,0.06732194255,0.05646733755,0.07835702655,0.19714795155,0.00882039255,-0.01372119045,0.16530425355,0.17282927255,0.24478806855,0.22301177855,0.02815147555,0.01131924155,0.22159191155,0.43286298555,0.32130477855,0.00281924254999999,0.05017262255,0.19972308255,0.09383714055,0.09367205055,0.08590615355,-0.04445208045,-0.00584919045,0.16841192285,0.34477590185,0.30506335655,0.15874367055,0.12334851255,0.04656335855,-0.06411353845,-0.10455127445,-0.11130124445,-0.05540863245,0.07948029355,0.09895889655,0.03518419555,-0.08281025345,-0.11211271145,0.12612812855,0.14727498855,2410,"DG_s12",33.14,33.844,34.422,34.422,18,18,10,10,0.578,"Left",18,18,0,0,0,0,0,0,"Equal",8,8,18,10,18,10
"138",14,"RAM7-RAM8",0.0318532294,-0.0616194594,-0.0318532294,-0.0164102814,-0.1293924984,-0.1041264004,-0.0735869084,-0.1426242214,-0.2269050364,-0.1911663594,0.0870284406,0.0421599376,0.0661288776,0.0847777706,-0.1040048524,-0.0133579564,-0.0726543496,-0.2270708156,-0.0941022804,-0.0170982624,-0.0898665844,0.0689132076,0.0342688676,-0.0747900824,-0.0482261684,-0.2151608424,-0.0676263794,0.1920823716,-0.00966672540000001,0.0403214976,0.1531422686,0.1730237636,0.0766358346,-0.06080596831,0.09194543769,0.0984280928,-0.0709315182,-0.2459741254,-0.3168103794,-0.0727206264,0.0451333276,-0.1649829354,-0.2711991994,2410,"DG_s12",33.14,33.844,34.422,34.422,18,18,10,10,0.578,"Left",18,18,0,0,0,0,0,0,"Equal",8,8,18,10,18,10
