"","trial","electrodes","bin_3","bin_4","bin_5","bin_6","bin_7","bin_8","bin_9","bin_10","bin_11","bin_12","bin_13","bin_14","bin_15","bin_16","bin_17","bin_18","bin_19","bin_20","bin_21","bin_22","bin_23","bin_24","bin_25","bin_26","bin_27","bin_28","bin_29","bin_30","bin_31","bin_32","bin_33","bin_34","bin_35","bin_36","bin_37","bin_38","X","SID","newround_time","choice_time","buttonpress_time","reveal_time","self_payoff","other_payoff","self_foregone","other_foregone","RT","side_chosen","self_var_payoff","other_var_payoff","ineq_var_abs","ineq_choice_abs","ineq_foregone_abs","ineq_disadvent","ineq_advent","ineq_choice","chose_equality","self_diff","other_diff","L_self","R_self","L_other","R_other"
"1",1,"LOF3-LOF4",0.139260359766667,0.204460650433333,0.3069770171,0.315876621766667,0.2097048351,0.108130980433333,0.0060786411,0.0449946557666667,0.135473939766667,0.3598360611,0.512057807766667,0.371006210433333,0.305815320433333,0.253268534433333,0.231614003766667,0.0648031651,0.0413402691,0.0532959077666667,0.195414936433333,0.138113649766667,0.219786075766667,0.2518797891,0.236709339766667,0.146789404433333,-0.0573716869,-0.0841810435666667,-0.0091915217,0.0335748289666667,0.0743210343,0.0104063931,-0.0492265882333333,0.0239878091,0.0863781377666667,0.149617410433333,0.0861069024333333,0.1620340451,2397,"DG_s12",-0.703,0,0.75,0.75,10,18,10,10,0.75,"Right",10,18,8,8,0,8,0,-8,"Disadvent",0,8,10,10,10,18
"2",1,"RIN3-RIN4",-0.1967417486,-0.227864383266667,-0.171110773933333,-0.146905880266667,-0.151341750933333,-0.2648037756,-0.1481311356,0.0607836968,0.0847949301333333,-0.0185965698666667,-0.119612810266667,0.0821798364,0.2228555164,0.199092277733333,0.149762531066667,-0.0814477956,-0.127834776933333,-0.175751096933333,-0.00750560760000002,-0.0413084409333334,-0.0225438909333333,-0.0828760716,0.0248823950666666,-0.0464975858,0.0407167452666667,0.161202851933333,0.170895366866667,0.0506282424666667,-0.109038203533333,-0.0541566862666667,0.0336988092,-0.0469222981333333,-0.0878883861333333,-0.0447128502666667,0.222379383066667,0.1247137618,2397,"DG_s12",-0.703,0,0.75,0.75,10,18,10,10,0.75,"Right",10,18,8,8,0,8,0,-8,"Disadvent",0,8,10,10,10,18
"3",1,"RIN2-RIN3",0.1326918654,0.262907724466667,0.349810735133333,0.388942903133333,0.232942216066667,0.0726325160666667,0.0897513020666667,0.213610342066667,0.273088364066667,0.173644568733333,0.235027562066667,0.1934934194,0.1507005714,0.0544996714,0.124065738733333,0.157696183133333,0.196343543133333,0.285187164466667,0.2993780494,0.239928042733333,0.151136576066667,0.0391772294,0.1133710022,0.0406812608666667,0.0363958548666667,-0.019886355,0.013494585,0.0449463343333333,0.0219484687333333,0.126727962066667,0.4001747414,0.381569854066667,0.2708913334,0.106577248733333,0.285548618733333,0.3085936994,2397,"DG_s12",-0.703,0,0.75,0.75,10,18,10,10,0.75,"Right",10,18,8,8,0,8,0,-8,"Disadvent",0,8,10,10,10,18
"4",1,"RAM7-RAM8",-0.00215405233333332,0.123065730333333,0.0630964103333333,-0.040735263,-0.158239039,-0.114744765666667,-0.146539839,-0.083847271,-0.217218353,-0.0407807396666666,-0.0217038523333333,0.090371371,-0.0908437656666667,-0.171190594333333,-0.111583889,-0.00619353233333333,0.046316289,0.0513145223333333,-0.0445646683333333,-0.013831703,-0.226777776333333,-0.185281239,-0.111833578093333,0.0559965559066667,0.0533833279066667,-0.0259223723333333,0.055781667,0.159962835,0.140017911,0.0453509536666667,-0.132372259666667,-0.134909219666667,-0.183159655666667,-0.172455027666667,-0.176737887666667,-0.221149154333333,2397,"DG_s12",-0.703,0,0.75,0.75,10,18,10,10,0.75,"Right",10,18,8,8,0,8,0,-8,"Disadvent",0,8,10,10,10,18
"5",1,"RAM6-RAM7",-0.0124933145,-0.00254321590000001,0.0336064561,0.0555617227666667,-0.0291923778333333,-0.152111447166667,-0.1310088405,-0.0834522291666667,0.0294163985,-0.0366346055,0.0407795985,-0.00296247716666667,-0.00515289183333334,0.0127003261666667,0.0993622301666667,0.194818102833333,0.120667236166667,0.0901606295,0.0331727748333333,-0.0281888918333333,-0.0358248985,-0.0406794485,0.0392346728333333,0.0480649095,0.190007842833333,0.248436548833333,0.214608996166667,0.0612847835,-0.00825386383333333,-0.101189590566667,-0.0971182779,-0.1367278379,-0.173846701166667,-0.149646055833333,-0.165518409166667,-0.187793443166667,2397,"DG_s12",-0.703,0,0.75,0.75,10,18,10,10,0.75,"Right",10,18,8,8,0,8,0,-8,"Disadvent",0,8,10,10,10,18
"6",1,"LOF5-LOF6",0.0424411058333333,-0.0478587555,-0.0598295581666667,-0.0695568555,-0.0444902448333333,-0.0603263625666667,-0.0330561279,0.0729857861,0.0976645238333333,0.117598191833333,0.1122300405,0.1371652605,0.178852907166667,0.151645015833333,0.170407571166667,0.120265241033333,0.114884632366667,0.0806362617,-0.0371551388333333,-0.0656234121666667,-0.0746846108333333,0.0611879831666667,0.0158762318333333,-0.0830718881666667,-0.132989202166667,-0.0441210061666667,0.0072540165,0.00750717234000001,0.0102407310066667,0.07003452634,0.0641402163,0.0342769236333333,0.107018372966667,0.176729287166667,0.182356133166667,0.0779240898333333,2397,"DG_s12",-0.703,0,0.75,0.75,10,18,10,10,0.75,"Right",10,18,8,8,0,8,0,-8,"Disadvent",0,8,10,10,10,18
"7",1,"RAM5-RAM6",-0.24462253887,-0.224001628203333,-0.0724179971366667,0.00288753466333333,-0.000543550003333337,-0.09726154667,-0.18686795867,-0.255308289736667,-0.197165819736667,-0.169120394403333,-0.102783533336667,-0.11071555867,-0.0581128873366667,0.0609909539966667,0.170921627996667,0.118178650663333,-0.00696204033666667,-0.0977011743366667,-0.0860684370033333,-0.08512895267,-0.17569355987,-0.219464683203333,-0.204067536536667,-0.185716237336667,-0.12332767867,-0.08267855867,-0.0382238000033333,-0.0632312673366667,-0.129842887336667,-0.192901881203333,-0.20924616767,-0.184564771003333,-0.198419461803333,-0.151136398003333,-0.261625168003333,-0.123898242003333,2397,"DG_s12",-0.703,0,0.75,0.75,10,18,10,10,0.75,"Right",10,18,8,8,0,8,0,-8,"Disadvent",0,8,10,10,10,18
"8",1,"LOF4-LOF5",-0.2133743484,-0.242744426,-0.354868616,-0.159653088,-0.0842695506666667,0.0975246853333333,-0.0587317873333333,-0.0636499233333333,-0.156090961333333,-0.057708498,-0.149520180666667,-0.125648935333333,-0.158619158,-0.115388388666667,-0.0321795966666667,-0.0614632026666667,0.001365692,-0.0544785786666667,-0.00728710133333335,-0.0183023,-0.152588241333333,-0.120634604066667,-0.0872865720666667,-0.0296824520666667,-0.091489394,-0.102285718666667,0.0125930006666667,-0.03124615,-0.200944113333333,-0.309481157333333,-0.199222060666667,-0.075697218,-0.138922456666667,-0.176255343333333,-0.162936912666667,-0.0661439366666667,2397,"DG_s12",-0.703,0,0.75,0.75,10,18,10,10,0.75,"Right",10,18,8,8,0,8,0,-8,"Disadvent",0,8,10,10,10,18
"9",1,"RIN1-RIN2",0.0170588348333333,0.1043590415,0.243259788166667,0.259648442166667,0.245055520833333,0.230435551033333,0.153388235033333,0.188109256366667,0.190491986166667,0.165502404833333,0.135897764833333,0.102147150166667,0.192430284833333,0.288390616833333,0.378069698166667,0.337234694833333,0.276721342833333,0.310573116166667,0.250576408833333,0.1916166715,0.0856100197,0.0661947977,-0.00745427963333332,-0.0203305258333333,0.0097774295,0.0972600288333333,0.104322782833333,0.0788282408333333,0.0555691961666667,0.181997986833333,0.409192942166667,0.4325097435,0.2869434435,0.0339534761666667,-0.0623489811666667,-0.0683826945,2397,"DG_s12",-0.703,0,0.75,0.75,10,18,10,10,0.75,"Right",10,18,8,8,0,8,0,-8,"Disadvent",0,8,10,10,10,18
"10",1,"LIN1-LIN2",0.149001364163333,0.122369277496667,0.07927862683,0.218125752163333,0.18188359743,0.131718574763333,0.0458472607633333,0.18993881883,0.246569604163333,0.202803364296667,0.176560724296667,0.15921608563,0.145805337496667,-0.0118829038366667,-0.0493458858366667,-0.0586277798366667,0.07413048283,0.0184957714966667,0.00780167716333334,-0.10600137817,-0.05251623817,0.0150345034966667,0.0291975321633333,-0.02803654117,-0.13351813717,-0.106775195703333,-0.143143511703333,-0.0345089737033333,-0.0614372865033333,0.0240919881633333,-0.03754231517,-0.0739677585033333,0.00924829016333334,-0.08373787317,0.0553189881633333,-0.153411145836667,2397,"DG_s12",-0.703,0,0.75,0.75,10,18,10,10,0.75,"Right",10,18,8,8,0,8,0,-8,"Disadvent",0,8,10,10,10,18
"11",2,"RAM7-RAM8",0.0235614898333333,0.0215783565,0.0246853358333333,0.0711002089666667,0.0133030289666667,0.0979005143,0.0279736425,0.0810151931666667,-0.0147585828333333,0.0130963838333333,0.0295413998333333,0.0216244058333333,-0.0160822061666667,-0.0565640328333333,0.0189828385,0.0605020571666667,0.378612437166667,0.473160091166667,0.346905937033333,-0.0495551029666667,-0.284417569633333,-0.283031748833333,-0.0561114545666667,-0.0497074812333333,0.0512293664333333,-0.0611134611666667,0.0777167655,0.0870921945,0.0950961313,-0.0194994354333333,-0.00268618676666667,-0.0319847575666667,0.0165493845,0.0382555485,0.116771815833333,0.00368082050000001,2398,"DG_s12",1.75,2.453,3.375,3.375,12,12,10,10,0.922,"Left",12,12,0,0,0,0,0,0,"Equal",2,2,12,10,12,10
"12",2,"RIN1-RIN2",0.2130084059,0.0308595225666667,-0.0735692694333333,-0.0667706881,-0.0170429814333333,-0.0339832194333333,-0.0318542261,-0.0734060794333333,0.0120320132333333,0.0529059925666667,0.0902894885666667,0.110708741233333,0.0693944739,0.0946063270333333,0.1402697037,0.157057282366667,0.1424249999,0.0875339825666667,0.0686901112333333,0.0753262912333333,0.160676344566667,0.1238344979,0.184718537233333,0.0067268639,0.196587191233333,0.1301152043,0.190814063633333,-0.0458563163666667,-0.162937188766667,-0.202870441433333,-0.0813737404333333,0.0256823369,0.0949649256333333,0.0602630333,-0.0218970367,0.0139959479,2398,"DG_s12",1.75,2.453,3.375,3.375,12,12,10,10,0.922,"Left",12,12,0,0,0,0,0,0,"Equal",2,2,12,10,12,10
"13",2,"RIN2-RIN3",-0.1020470911,-0.0358604231,-0.0698458585,-0.0474743885,-0.0744541024333333,0.0204438195666667,-0.0485906326333333,-0.146882782033333,-0.194059683366667,-0.156784028766667,-0.153901865433333,-0.1291708761,-0.114769785966667,0.0270458940333333,0.129917424033333,0.0933490068333333,0.0429223335,0.0106229468333333,0.00076488349999998,-0.151122641166667,-0.1545048345,-0.1500538645,-0.0614709818333333,-0.1453076565,-0.00855468250000002,-0.04970729456,-0.0840912350933333,-0.236576942293333,-0.3039895949,-0.331159046366667,-0.265082403833333,-0.247979150366667,-0.119488252366667,-0.115475983033333,-0.00484575330000001,0.0127915620333333,2398,"DG_s12",1.75,2.453,3.375,3.375,12,12,10,10,0.922,"Left",12,12,0,0,0,0,0,0,"Equal",2,2,12,10,12,10
"14",2,"RAM5-RAM6",0.0671328527,0.0840462721666667,0.1316471395,0.163776384833333,-0.00994305450000001,0.00837424049999999,0.1379233285,0.191066455166667,0.101768870833333,-0.0836361071666667,-0.120619435333333,-0.147676166666667,-0.183530835333333,-0.2307724405,-0.178745697166667,-0.1581394905,-0.1493759027,-0.258504949366667,-0.181901506646667,-0.146596911113333,0.00601075955333333,-0.0569524665,-0.151707949166667,-0.262475445166667,-0.1987867865,-0.0255182458333333,-0.0513339578333333,-0.200470293166667,-0.328963827166667,-0.374391129833333,-0.2904205145,-0.1284892345,0.0627422388333333,0.265732790166667,0.306047330166667,0.3479597435,2398,"DG_s12",1.75,2.453,3.375,3.375,12,12,10,10,0.922,"Left",12,12,0,0,0,0,0,0,"Equal",2,2,12,10,12,10
"15",2,"LOF4-LOF5",0.0546018319,0.150049616566667,0.160498447233333,0.104055019566667,0.0256453122333333,-0.159460914433333,-0.1437832171,-0.2354152751,-0.198744388433333,-0.2172845015,-0.0324874821666667,0.0261365545,0.0147834803,0.0664481963,-0.0323477757,-0.0359359117666667,-0.230673153766667,-0.2279925251,-0.1286175531,-0.0375345257666667,0.0900042189666667,0.127538890966667,0.1955559283,0.09832667406,0.0880034607266667,-0.0722195892733333,-0.1049390231,-0.251685249766667,-0.225605922433333,-0.102844624433333,-0.00113599776666666,0.0642976449,-0.0317967204333333,-0.118408993766667,-0.1584700031,-0.165363996433333,2398,"DG_s12",1.75,2.453,3.375,3.375,12,12,10,10,0.922,"Left",12,12,0,0,0,0,0,0,"Equal",2,2,12,10,12,10
"16",2,"LOF5-LOF6",0.20819148975,0.130667064216667,0.264755706216667,0.244386574216667,0.260842004416667,0.104957604416667,0.107571396416667,0.158703065083333,0.13588437995,0.275770915283333,0.25575346995,0.302556468416667,0.34047700175,0.284380990416667,0.19636892775,-0.00769335158333333,0.0250024650833333,0.15777973775,0.184393557016667,0.292474857016667,0.194050633683333,0.259849366416667,0.233792693083333,0.31156108175,0.274618222416667,0.208965676416667,0.17788025375,0.165698700416667,0.0623995064166667,0.22375919375,0.180127504416667,0.20083990575,-0.0254454475833333,-0.00214361424999999,0.03201663375,0.0839935104166667,2398,"DG_s12",1.75,2.453,3.375,3.375,12,12,10,10,0.922,"Left",12,12,0,0,0,0,0,0,"Equal",2,2,12,10,12,10
"17",2,"LIN1-LIN2",-0.0765113418333333,-0.0644605165266667,0.0471097028066667,0.0349843540066667,0.277910759366667,0.383135979366667,0.3478229215,0.233304714833333,0.139016308166667,0.122352387966667,0.0153989139666667,-0.0181231593666667,-0.0979360085,-0.0618575945,-0.1059619425,0.0937394135,0.0597918155666667,0.00346850356666667,0.0126472169,0.1434046815,0.271664880833333,0.0675378375,-0.0299024691666667,-0.0939638618333333,0.0493114221666667,0.0507374515,0.145454104833333,0.102709990166667,0.0801300561666667,0.0017811449,-0.102137059766667,0.00305888489999999,-0.104709177166667,-0.0106756305,-0.1536256745,-0.0408852985,2398,"DG_s12",1.75,2.453,3.375,3.375,12,12,10,10,0.922,"Left",12,12,0,0,0,0,0,0,"Equal",2,2,12,10,12,10
"18",2,"RAM6-RAM7",-0.0053092967,-0.0107667960333333,-0.0449508847,-0.0622055317666667,-0.157931151766667,-0.127691371766667,0.0072991749,0.0446362749,-0.00263059843333333,-0.170378610877333,-0.0774705762106667,-0.0605616403446667,0.00223781409933333,-0.0789221833673333,-0.0745780859,-0.0612293012333333,0.00380716156666666,0.0780845882333333,0.0804028315666667,0.176054858233333,0.190886111566667,0.276388848233333,0.249104302233333,0.119797208233333,0.0508135375666667,0.0214299502333333,0.118487857566667,0.0205897809,-0.0604382404333333,-0.220251297666667,-0.144321069666667,-0.112245956933333,0.0591692603,0.0840056263,0.0666993775666667,-0.0157397691,2398,"DG_s12",1.75,2.453,3.375,3.375,12,12,10,10,0.922,"Left",12,12,0,0,0,0,0,0,"Equal",2,2,12,10,12,10
"19",2,"RIN3-RIN4",-0.05527721875,-0.182108708083333,-0.18299199675,-0.280442832083333,-0.24301162675,-0.214940900083333,-0.209143640083333,-0.13063450675,-0.12282667075,0.0116065339166667,-0.0509131994166667,-0.00789692075000001,0.08305956925,0.07897178525,-0.0329618594166667,-0.212167649416667,-0.253004752083333,-0.149936814083333,-0.0474539874166667,0.0251231159166667,0.0158787285833333,-0.00564637408333332,0.07881464925,0.0169667505833333,0.12026739525,-0.0104846974166667,-0.05691685675,-0.19811165675,-0.227185862083333,-0.258842064083333,-0.27351916675,-0.159802875416667,-0.09134965675,-0.0150784140833333,-0.0808036980833333,-0.0116086214166667,2398,"DG_s12",1.75,2.453,3.375,3.375,12,12,10,10,0.922,"Left",12,12,0,0,0,0,0,0,"Equal",2,2,12,10,12,10
"20",2,"LOF3-LOF4",-0.292429770166667,-0.2902205035,-0.1508434265,0.0356370221666667,-0.0429333278333333,0.0919958121666667,0.0392636388333333,0.1189576955,-0.0854887398333333,-0.186057169166667,-0.360637369166667,-0.3147552005,-0.2237779565,0.0581447835,0.0317061235,-0.0870329871666667,-0.229007623633333,-0.262406959633333,-0.207044887633333,-0.220584809166667,-0.189652381166667,-0.0659792665,0.157060156166667,0.200431770833333,0.140379060166667,-0.183280471166667,-0.2850706851,-0.4142534711,-0.325299803766667,-0.1984817005,-0.1778054605,-0.0915190411666666,-0.0909120571666666,-0.0932600978333333,-0.119967311166667,-0.174359531166667,2398,"DG_s12",1.75,2.453,3.375,3.375,12,12,10,10,0.922,"Left",12,12,0,0,0,0,0,0,"Equal",2,2,12,10,12,10
"21",3,"LOF5-LOF6",-0.321897978,-0.199617778,-0.199426747333333,-0.176096538666667,-0.261679074666667,-0.165527337333333,-0.148944924,-0.080410818,-0.201662082666667,-0.309598366,-0.360991826666667,-0.16097532,-0.0196969154666667,0.0256478012,-0.0216013321333333,-0.0645761478666667,-0.0735604405333334,-0.1457259932,-0.0331216853333333,0.0473924146666667,0.00437606733333334,-0.030948126,-0.180602194666667,-0.191934728,-0.356837201333333,-0.330338384,-0.454621006,-0.330068492666667,-0.271067389333333,-0.028857134,-0.132528940666667,-0.126070846,-0.307662212666667,-0.186246572666667,-0.126045699333333,-0.048627388,2399,"DG_s12",4.375,5.078,5.969,5.984,10,10,8,8,0.891,"Left",8,8,0,0,0,0,0,0,"10-10",2,2,10,8,10,8
"22",3,"RAM6-RAM7",0.1197455885,0.0889923613666667,0.150119895366667,0.110764267366667,0.137551591833333,0.0617078611666667,0.0640055825,0.125151685166667,0.189114595833333,0.174954063166667,-0.0303208835,-0.1837185515,-0.2508354255,-0.126091168833333,-0.0405655548333333,0.00645778516666667,-0.106824924166667,-0.0521670035,-0.102530830166667,-0.0534852821666667,-0.0432302688333333,-0.0639898561666667,-0.0832997988333333,-0.151673034833333,-0.124107594833333,-0.112595642833333,-0.0954955069666667,-0.0280833696333333,0.0686814590333333,-0.0344967152466667,-0.08520023858,-0.192775351913333,-0.0490835035,-0.1398002495,-0.0065245095,-0.0513361601666667,2399,"DG_s12",4.375,5.078,5.969,5.984,10,10,8,8,0.891,"Left",8,8,0,0,0,0,0,0,"10-10",2,2,10,8,10,8
"23",3,"LOF3-LOF4",-0.0685261202666667,-0.0500076182666667,-0.0124767148,-0.0624157453333333,-0.0389735893333333,-0.072153598,0.0849144146666667,0.08835813,0.140412260666667,0.121888459333333,0.203960719333333,0.188110869333333,0.238560482,0.193002044,0.139109357333333,0.049472278,0.111821229333333,0.199281460666667,0.146407537333333,-0.0141991833333333,-0.0191341706666667,0.076665062,0.205076716,0.138238449333333,0.162052549333333,0.00448254533333332,0.051529478,-0.085488344,0.03835088,0.115093584666667,0.386305986666667,0.264365856666667,0.0952581574,-0.103444549266667,-0.110781985933333,0.0427845266666667,2399,"DG_s12",4.375,5.078,5.969,5.984,10,10,8,8,0.891,"Left",8,8,0,0,0,0,0,0,"10-10",2,2,10,8,10,8
"24",3,"LOF4-LOF5",0.0454225714616667,0.0957080534616667,0.270500384128333,0.227002497461667,0.099178108795,-0.0178119658716667,0.047501550795,0.203863191795,0.225547441928333,0.257911025928333,0.253072451595,0.108277436128333,0.046529688795,-0.0480756038716667,0.128418762461667,0.0342624071283333,0.147772057795,0.124937012795,0.308709326795,0.169737961261667,0.089712110595,-0.122146349405,-0.0651742605383333,-0.097747421205,0.0373150034616667,0.0557778954616667,0.054848158795,0.0335462341283333,0.021301420795,0.129543240795,0.208511052128333,0.329668158795,0.275869942595,0.156688943261667,0.0857969772616667,0.156017146795,2399,"DG_s12",4.375,5.078,5.969,5.984,10,10,8,8,0.891,"Left",8,8,0,0,0,0,0,0,"10-10",2,2,10,8,10,8
"25",3,"RIN1-RIN2",-0.187709048033333,-0.1787526827,0.0568586199666667,0.1676972273,0.2886257433,0.151871412633333,0.1332969253,0.1123950141,0.0961693481,0.1090965481,0.0744095719666667,0.0555561439666667,-0.0643182627,-0.0985690420333333,-0.1015167847,-0.0606221207,-0.0443460940333333,-0.0734101940333333,-0.0798348347,-0.0106079947,0.0610328126333333,0.118544775966667,0.0287702587666667,0.0838237661,0.0270893394333333,-0.0309990196333333,-0.1175591283,-0.0953324736333333,-0.0188870427,0.1090727053,0.1694539353,0.209047100633333,0.120713496633333,0.143269645966667,0.2193341393,0.194531148633333,2399,"DG_s12",4.375,5.078,5.969,5.984,10,10,8,8,0.891,"Left",8,8,0,0,0,0,0,0,"10-10",2,2,10,8,10,8
"26",3,"LIN1-LIN2",0.185567920166667,0.143419124166667,0.200299100166667,0.0727740241666667,0.183322298166667,0.312267702166667,0.472816958833333,0.454491318833333,0.4837120955,0.436724332833333,0.3781534275,0.228490230166667,0.2109719455,0.1884507923,0.251265252966667,0.3186745603,0.317721486833333,0.158861580166667,0.0255913268333333,0.0112784388333333,-0.00518444116666666,-0.0900849545,-0.203024247833333,-0.0844363990333333,0.0115793947666667,0.2002987281,0.174590645966667,0.215989688166667,0.115595768833333,0.237829168833333,0.285197912833333,0.335702892166667,0.237907350433333,0.103747643766667,0.0237276237666667,-0.0394833171666667,2399,"DG_s12",4.375,5.078,5.969,5.984,10,10,8,8,0.891,"Left",8,8,0,0,0,0,0,0,"10-10",2,2,10,8,10,8
"27",3,"RAM7-RAM8",0.00836803866666667,0.229167852666667,0.339271812666667,0.234238786,0.0675677846,-0.0189789660666667,-0.0556979607333333,0.0621762406666667,0.150466194,0.218028235333333,0.1925392508,0.213102848133333,0.2523420528,0.164174490666667,-0.012017076,-0.002427358,0.028008308,0.0590701293333333,0.0879108628,0.0385369634666667,0.0999303888,0.0705071186666667,0.0669072527333333,0.0529709680666667,-0.0634998046,-0.07337143,-0.027460324,0.0727118206666667,0.125056461333333,0.113863033333333,0.227402894666667,0.279259445333333,0.27640272,0.298117929333333,0.238212313333333,0.1612527906,2399,"DG_s12",4.375,5.078,5.969,5.984,10,10,8,8,0.891,"Left",8,8,0,0,0,0,0,0,"10-10",2,2,10,8,10,8
"28",3,"RIN2-RIN3",-0.00923402433333333,-0.04580475864,0.0993635906933333,0.175627496693333,0.263864251,0.172504619666667,0.160462881,0.0351526643333333,-0.117421793666667,-0.164298502333333,-0.168400362333333,-0.0967993218666667,-0.0472599985333333,-3.82958666666627e-05,0.00919739,-0.064338864,-0.0641910046666667,0.0233973551333333,0.0183492891333333,-0.0328374506666667,-0.0692453441333333,-0.0834389854666667,0.0379099076666667,0.002458083,0.010367231,-0.126018087,-0.154581293666667,-0.143404683666667,-0.0745537843333333,0.0298957723333333,0.0902195156666667,0.064657949,0.001006587,-0.0740733756666667,-0.0416412750466667,-0.0605644410466667,2399,"DG_s12",4.375,5.078,5.969,5.984,10,10,8,8,0.891,"Left",8,8,0,0,0,0,0,0,"10-10",2,2,10,8,10,8
"29",3,"RIN3-RIN4",0.0907496426666667,0.0367283933333333,-0.0573953466666667,0.060898452,-0.0240643146666667,0.0317946253333333,0.0239260186666667,0.139643856,0.0639130742,-0.0448034438,0.0216524455333333,0.0566064473333333,0.056494192,-0.0477731806666667,-0.112497894,-0.129810061333333,-0.205997642,-0.191595493333333,-0.128248086666667,-0.00688802666666667,0.0627343446666667,0.03923723,0.0169295633333333,-0.018898796,-0.0666151242666667,-0.0631456302666667,-0.0247281616,0.0182174006666667,-0.00135411000000002,-0.0425162326666667,-0.133715743333333,-0.210232878,-0.215339746866667,-0.0918445148666667,0.0171312071333333,0.038764436,2399,"DG_s12",4.375,5.078,5.969,5.984,10,10,8,8,0.891,"Left",8,8,0,0,0,0,0,0,"10-10",2,2,10,8,10,8
"30",3,"RAM5-RAM6",-0.1369276996,0.0312097070666667,-0.00116782626666667,-0.0724335264,-0.1694266844,-0.131355535066667,-0.197284106266667,-0.197887972933333,-0.266478152933333,-0.253174744266667,-0.270662972933333,-0.178309160133333,-0.224644352133333,-0.175409417466667,-0.273835985333333,-0.284040105333333,-0.278676612666667,-0.0314466702666667,0.0179407904,0.0604760964,-0.140197424266667,-0.1668341196,-0.246034032933333,-0.1253019796,-0.0293504389333333,-0.0726456789333333,-0.1293906816,-0.310863102266667,-0.3108967156,-0.3674474196,-0.291229986266667,-0.294927632933333,-0.2787598796,-0.194835162266667,-0.2603684956,-0.2981201936,2399,"DG_s12",4.375,5.078,5.969,5.984,10,10,8,8,0.891,"Left",8,8,0,0,0,0,0,0,"10-10",2,2,10,8,10,8
"31",4,"RAM7-RAM8",0.221689534083333,0.113104913416667,0.0676765300833333,0.152178058083333,0.175826719416667,0.34720443675,0.30388947675,0.312485236083333,0.162660316083333,0.02807661275,-0.0607668019166667,-0.118065749916667,-0.000710061250000003,0.26064596675,0.41042592675,0.404406541416667,0.21510073675,0.126447227416667,0.0813747910433333,0.0574021803766667,0.0872955790433333,0.0680950574166667,0.06804014055,0.0120121912166667,-0.00857723745,-0.01331093725,0.01317840675,-0.0211585765833333,-0.00600375725,-0.0756119025833333,-0.00902306458333333,0.0604903634166667,0.27131926875,0.291378173416667,0.221389633416667,-0.000993379916666667,2400,"DG_s12",6.984,7.687,8.406,8.406,28,4,10,10,0.719,"Left",28,4,24,24,0,0,-24,24,"Advent",18,-6,28,10,4,10
"32",4,"RIN1-RIN2",0.0545399143333333,0.0112429983333333,0.060417637022,0.031789046822,0.114366035488667,0.114099544133333,0.141249870466667,0.307118157133333,0.3819528658,0.456896430333333,0.173285697,0.201879054333333,0.140875881026667,0.237445695026667,0.213161289026667,0.184417703,0.176650379,0.208526918333333,0.283253171,0.219437747666667,0.133856981,0.131557296333333,0.248748893666667,0.307247899,0.243598211666667,0.225399269666667,0.293386024333333,0.316622725,0.281532573666667,0.181817931666667,0.328554170333333,0.299986219666667,0.300299427,0.170289645,0.252400025,0.247574679666667,2400,"DG_s12",6.984,7.687,8.406,8.406,28,4,10,10,0.719,"Left",28,4,24,24,0,0,-24,24,"Advent",18,-6,28,10,4,10
"33",4,"LOF5-LOF6",0.1602500625,0.245178447833333,0.269572053233333,0.383101199233333,0.428404093233333,0.386464991166667,0.135458463833333,-0.1657345035,-0.212990662833333,-0.0766694495,0.0118215558333333,-0.0177324175,-0.0749325375,-0.111760394166667,-0.0996586847666667,-0.105456043433333,0.00834577123333333,-0.0413747721666667,-0.0821297001666667,-0.1119169935,-0.0667613068333333,0.0560091145,0.115350311166667,0.200435365166667,0.140066603833333,0.0666507918333333,0.111211457833333,0.139481275166667,0.0942925431666667,-0.0587500501666667,-0.0466951608333333,0.0179507498333333,0.153968123166667,0.127521071833333,0.146699569166667,0.0674617138333333,2400,"DG_s12",6.984,7.687,8.406,8.406,28,4,10,10,0.719,"Left",28,4,24,24,0,0,-24,24,"Advent",18,-6,28,10,4,10
"34",4,"RIN2-RIN3",0.0566087445,0.1160018245,0.2354727805,0.0886649405,0.0322863105,-0.124769214833333,-0.0287405015,0.215919555833333,0.239772993833333,0.350297953833333,0.2325333805,0.2849726865,0.190551659833333,0.2098057265,0.174716552566667,0.1842150139,0.0282833605666667,0.0734308827666667,0.193028760766667,0.220058563433333,0.1755648945,0.121956692033333,0.279794056033333,0.289620085366667,0.111490641833333,-0.104125384833333,-0.0479907661666667,0.135014725833333,0.2877940385,0.236018207166667,0.2563478185,0.396755899166667,0.337200313833333,0.1884366119,-0.0995181681,-0.0547233759666667,2400,"DG_s12",6.984,7.687,8.406,8.406,28,4,10,10,0.719,"Left",28,4,24,24,0,0,-24,24,"Advent",18,-6,28,10,4,10
"35",4,"LIN1-LIN2",0.407345644833333,0.285525926433333,0.2263149731,0.145550892433333,0.246214496833333,0.285407222166667,0.197019116166667,0.2452896235,0.206224868166667,0.236424390966667,0.1939076643,0.1616069123,0.2892679295,0.1728304295,0.1501434715,-0.0273274925,0.0523857008333333,0.142011762833333,0.2432157215,0.211886982233333,0.1876609189,0.2208754309,0.324908812166667,0.256629530833333,0.1213724795,0.0365933223,0.170642971633333,0.199103113633333,0.186448868833333,0.06174237528,0.106049708613333,0.03031627328,0.00975475216666666,0.0020178615,0.0226127521666667,0.0134978359,2400,"DG_s12",6.984,7.687,8.406,8.406,28,4,10,10,0.719,"Left",28,4,24,24,0,0,-24,24,"Advent",18,-6,28,10,4,10
"36",4,"RAM6-RAM7",0.0825972968666667,0.0541769608666667,-0.004155172,-0.00834918666666666,-0.00982912533333333,0.112572974,0.133127236666667,0.202781114666667,0.196918953333333,0.107162814666667,0.098724014,0.0409559513333333,0.173364098,0.179294175333333,0.196365573866667,0.0496016432,-0.0398806634666667,-0.0215135013333333,0.01794291,0.06378259,0.0518352546666667,0.0125987286666667,0.0170361426666667,-0.050098536,0.0221334986666667,0.0361261713333333,0.0958237053333333,0.055079154,0.0980751813333333,0.055179722,0.00355459933333333,-0.107350748933333,-0.0139416229333333,0.000875059066666668,0.160000353333333,0.0435673273333333,2400,"DG_s12",6.984,7.687,8.406,8.406,28,4,10,10,0.719,"Left",28,4,24,24,0,0,-24,24,"Advent",18,-6,28,10,4,10
"37",4,"RIN3-RIN4",0.355771977533333,0.312115302866667,0.3802961382,0.291588710013333,0.259107921346667,0.142525238013333,0.0926537746666667,0.142696348066667,0.1267710094,0.164282592733333,0.0884755166666667,0.0746719226666667,0.0134686253333333,0.028222712,0.00515242731333333,0.0843950806466667,0.0319882986466667,0.059530582,0.162324608666667,0.152584858266667,0.200033296933333,0.133640390266667,0.0702146914666667,-0.00305038766666667,-0.079133303,-0.0146963071333333,-0.001196396,0.0286293102,0.0774157768666667,0.162657536866667,0.171162032666667,0.289488812666667,0.325796499333333,0.456249132666667,0.234994984666667,0.136245222666667,2400,"DG_s12",6.984,7.687,8.406,8.406,28,4,10,10,0.719,"Left",28,4,24,24,0,0,-24,24,"Advent",18,-6,28,10,4,10
"38",4,"LOF3-LOF4",-0.235377203333333,-0.145460379333333,-0.127657626,-0.157373107846667,-0.224340747846667,-0.0736263898466667,-0.0824681733333333,-0.0349443133333333,-0.00360591133333332,0.0961431349333333,0.0659736349333333,-0.0620836390666667,-0.0355946546666667,0.025678032,-0.055082778,-0.026098028,-0.151986643333333,-0.177220032666667,-0.308030363466667,-0.250387169466667,-0.1854925748,-0.0724599026666667,-0.0778519936933333,0.00371508870666667,-0.13710636596,-0.229314004933333,-0.295230590666667,-0.254377843333333,-0.161835129333333,-0.115651566,-0.10010327,-0.039832448,-0.162430574,-0.15414776652,-0.16867710452,-0.05806188052,2400,"DG_s12",6.984,7.687,8.406,8.406,28,4,10,10,0.719,"Left",28,4,24,24,0,0,-24,24,"Advent",18,-6,28,10,4,10
"39",4,"RAM5-RAM6",0.0550607829166667,0.0737956455833333,0.132445109656667,0.0813382559233333,-0.05375141341,-0.08813260415,-0.0530620104833333,0.00807008218333333,0.00324460018333333,0.00665522771666667,0.0181664537166667,0.01893943105,0.0364526645166667,0.105458999183333,0.0711223305166667,0.0356073385166667,-0.00958891481666667,0.105598092516667,0.164299393183333,0.0771624865166667,-0.02386331215,0.00580045118333333,-0.00957190748333333,-0.0139878854833333,-0.13418021215,-0.101336294816667,-0.109278183483333,-0.08735046215,-0.0147413808166667,0.0376985505166667,0.05645185585,0.0821625825166667,0.150628382516667,0.14231436045,0.177860671116667,0.220781091116667,2400,"DG_s12",6.984,7.687,8.406,8.406,28,4,10,10,0.719,"Left",28,4,24,24,0,0,-24,24,"Advent",18,-6,28,10,4,10
"40",4,"LOF4-LOF5",0.009309321,-0.0343050243333333,-0.002696023,0.037631933,0.0285185816666667,-0.0179701323333333,-0.0229673298,0.0382743895333333,0.00949399953333333,0.084840043,-0.0486127176666667,0.0451853916666667,0.0280941163333333,0.065848802,0.00491879066666667,-0.046454574,-0.0237250596666667,-0.075072815,-0.0797324456666667,-0.0554798483333333,-0.0105917381333333,-0.0602312968,-0.144677454133333,-0.117706995,0.0542805036666667,0.130338208333333,0.177963119,0.021387847,0.00353073366666667,0.011445981,0.131600176333333,0.0673099496666667,-0.0380363983333333,-0.0335713836666667,0.0335533296666667,0.048674511,2400,"DG_s12",6.984,7.687,8.406,8.406,28,4,10,10,0.719,"Left",28,4,24,24,0,0,-24,24,"Advent",18,-6,28,10,4,10
"41",5,"LOF5-LOF6",-0.0330039698333333,-0.0963697458333333,-0.1078895125,0.0798565275,0.203984718833333,0.168032692166667,0.0596289388333333,-0.1317610945,-0.1646077725,-0.1443500505,-0.0458887978333333,0.0570071921666667,0.00506353816666667,0.0280646855,-0.131714441166667,-0.0228546245,0.0330358581666667,0.1480457315,0.100441974166667,-0.0338192418333333,-0.1199623505,-0.141369229166667,-0.1820130729,-0.0904838962333333,0.0461717084333333,0.0381049588333333,0.0892493948333333,0.0651622081666667,0.0884721781666667,-0.0538255245666667,-0.1067618179,0.00166392543333333,0.216643918833333,0.145981010166667,0.153652870166667,-0.0423751631666667,2401,"DG_s12",9.406,10.109,10.765,10.765,22,6,10,10,0.656,"Right",22,6,16,16,0,0,-16,16,"Advent",12,-4,10,22,10,6
"42",5,"RAM5-RAM6",0.2121233455,0.123967488833333,0.0425537072333333,0.0765505381666667,0.1174937495,0.329534932833333,0.3074787175,0.2519350995,0.191202658166667,0.2553004155,0.3930813355,0.372086036833333,0.276115920833333,0.1840404115,0.0691294181666667,0.0441571935,0.0442871935,0.116164514166667,0.176751688166667,0.141595630833333,0.121164676833333,0.1404479755,0.194023175233333,0.2259044619,0.1585252979,0.218379896166667,0.2942925695,0.325256116166667,0.2608451475,0.2203641475,0.2447815475,0.2175172795,0.27887205722,0.269628987553333,0.26258621422,0.122792838033333,2401,"DG_s12",9.406,10.109,10.765,10.765,22,6,10,10,0.656,"Right",22,6,16,16,0,0,-16,16,"Advent",12,-4,10,22,10,6
"43",5,"RAM6-RAM7",0.059266259345,0.0187255880116667,0.025125281345,-0.0634112653216667,-0.0472374819883333,-0.082305427855,0.0496087668116667,0.0406667514783333,-0.000183667988333334,-0.0763791513216667,-0.0123848079883333,0.0107520140116667,0.133216229345,0.0646824760116667,0.0362009720116667,-0.0636294479883333,-0.103748914655,-0.0159505814483333,-0.091509248115,-0.133342894781667,-0.161580609988333,-0.170954463321667,-0.128311383321667,-0.110255318655,-0.088381318655,-0.0706685119883333,-0.167288873988333,-0.221837593988333,-0.111264571988333,0.045682581345,0.136130229345,0.0176069560116667,-0.094769520655,-0.130637661988333,-0.131349883988333,-0.0563788459883333,2401,"DG_s12",9.406,10.109,10.765,10.765,22,6,10,10,0.656,"Right",22,6,16,16,0,0,-16,16,"Advent",12,-4,10,22,10,6
"44",5,"RAM7-RAM8",-0.0315072998333333,-0.1758729225,-0.292430927833333,-0.2781874245,-0.128750805166667,-0.152778039833333,-0.0404556898333333,-0.0987354225,-0.0692246338333333,-0.2116831841,-0.301684301433333,-0.2732579421,-0.260836325166667,-0.268985307833333,-0.232909279833333,-0.230390821166667,-0.1138513145,-0.0391054705,-0.0438715698333333,-0.0241716898333333,-0.108174429166667,-0.1171868425,-0.206846039166667,0.000128460166666677,0.0913760321666666,0.2431938455,-0.00769886849999998,-0.0380746345,-0.212858627833333,-0.151040763833333,-0.184950235166667,-0.1597819825,-0.148099827833333,-0.1905670485,-0.0746974485,0.00412449843333335,2401,"DG_s12",9.406,10.109,10.765,10.765,22,6,10,10,0.656,"Right",22,6,16,16,0,0,-16,16,"Advent",12,-4,10,22,10,6
"45",5,"LIN1-LIN2",0.171887216683333,0.120492890683333,0.158709900683333,0.225911264016667,0.413752616016667,0.494041726683333,0.40392695335,0.220854780683333,0.190618680683333,0.278159684683333,0.172024678016667,0.0800028520166667,-0.0513966293166667,-0.00114868998333334,0.09362730335,0.135835394683333,0.111714224016667,0.171689926083333,0.21256813275,0.192145602883333,0.08556185415,0.09929498015,0.178089554683333,0.23341070135,0.17980970135,0.186696214683333,0.144048936683333,0.140010090683333,0.21847287335,0.11975019135,0.166802422683333,0.177064466683333,0.240911806683333,0.20383371115,0.0512136846833333,0.0774761920166667,2401,"DG_s12",9.406,10.109,10.765,10.765,22,6,10,10,0.656,"Right",22,6,16,16,0,0,-16,16,"Advent",12,-4,10,22,10,6
"46",5,"RIN2-RIN3",0.154831836,0.0898592406666667,-0.122588692666667,-0.213053106,-0.191039244,-0.211076180666667,-0.126120290666667,-0.146682503666667,-0.0290232836666667,0.0461110283333333,0.100797593533333,0.0872155515333333,0.0684988728666667,0.0811671613333333,0.101041490666667,0.012188064,0.0291780706666667,-0.037078944,0.0103238247333333,-0.0459188630666667,-0.0376951464,-0.1141305524,0.1069554994,0.220291706733333,0.286755822666667,0.113797689333333,0.0962060773333333,0.02513854,-0.029555664,-0.213717938666667,-0.144803994666667,-0.106627195333333,-0.00377297,0.044694376,0.035313468,0.0806877226666667,2401,"DG_s12",9.406,10.109,10.765,10.765,22,6,10,10,0.656,"Right",22,6,16,16,0,0,-16,16,"Advent",12,-4,10,22,10,6
"47",5,"RIN3-RIN4",0.162839157683333,0.0143257916833333,0.00371127168333334,-0.0168874883166667,0.0976170465433333,-0.03500838679,-0.0950780094566667,-0.00938662431666666,0.0484363156833334,0.124537145016667,0.0670652316833334,0.166210747683333,0.17082121435,0.13675206775,0.0251858244166667,0.04929763775,0.0888528230166667,0.193867443683333,0.0930727776833333,0.171075529016667,0.15665792235,0.261505255016667,0.18528213835,0.153315691683333,0.11966983835,0.07648583835,0.0952429050166667,0.00499493435000001,0.0181628396833333,-0.08469262551,-0.0820806628433333,-0.01222987151,0.0169233430166667,0.00168322168333335,-0.159166548316667,-0.222915172316667,2401,"DG_s12",9.406,10.109,10.765,10.765,22,6,10,10,0.656,"Right",22,6,16,16,0,0,-16,16,"Advent",12,-4,10,22,10,6
"48",5,"LOF3-LOF4",-0.1104295795,-0.146501936166667,-0.0788824915,-0.0578471521666667,-0.0699600221666667,-0.0419769621666667,-0.0980286080333333,-0.0160981353666667,-0.153910680033333,-0.170790246833333,-0.1505000135,-0.0689017661666667,-0.0293673730333333,-0.0971363063666667,-0.0835896243666667,-0.0890452768333333,-0.0783487355,-0.0801018815,-0.0938390488333333,-0.119911046833333,-0.1098988175,0.0138443255,-0.0012522105,-0.0259510118333333,-0.121913050833333,-0.100039834186667,-0.0927653808533333,-0.07707416752,-0.140810148833333,-0.126845028833333,0.0364559271666667,0.106061123833333,0.0682502638333333,-0.126538660166667,-0.0690526358333333,0.0333424908333333,2401,"DG_s12",9.406,10.109,10.765,10.765,22,6,10,10,0.656,"Right",22,6,16,16,0,0,-16,16,"Advent",12,-4,10,22,10,6
"49",5,"RIN1-RIN2",0.16321203823,0.02935947023,0.0202324695633333,0.0701001208966667,0.111808737563333,0.124886334896667,0.0642510148966667,0.0370515928966667,0.00579975889666667,-0.00789593177,0.0184428475633333,0.111980663563333,0.17884050023,0.14656105023,0.0506080528966667,-0.00401834376999999,0.141476786896667,0.332152795563333,0.395098546896667,0.26083781623,0.120615502896667,0.09877799383,0.26580465783,0.307720934496667,0.305589895563333,0.22512316223,0.162207365563333,0.0542374528966667,-0.0741002484366667,-0.0800766944366667,0.0925922888966667,0.19084308423,0.23035836823,0.139581287563333,0.0363696135633333,0.0618719368966667,2401,"DG_s12",9.406,10.109,10.765,10.765,22,6,10,10,0.656,"Right",22,6,16,16,0,0,-16,16,"Advent",12,-4,10,22,10,6
"50",5,"LOF4-LOF5",0.105275058666667,-0.0463870813333333,-0.0143917386666667,0.0496190213333333,0.122378221333333,0.0698971053333333,0.0478068351333333,-0.1153720222,-0.0610128108666667,-0.105076649333333,-0.035426718,-0.144204046,-0.117959266666667,-0.139277640666667,-0.0899622826733333,0.0145107713266667,0.0707245859933333,0.062741738,-0.124792825333333,-0.102248086666667,-0.0639563033333333,0.123384594666667,0.0828842896,0.0660590162666667,-0.0619466184,-0.12058708,-0.10966446,-0.0721068813333333,0.0831409053333333,0.017872172,0.125649694666667,0.08807819,0.264250293333333,0.126930722533333,0.0922110618666667,0.00678678520000001,2401,"DG_s12",9.406,10.109,10.765,10.765,22,6,10,10,0.656,"Right",22,6,16,16,0,0,-16,16,"Advent",12,-4,10,22,10,6
"51",6,"RAM7-RAM8",-0.0341013558,-0.1510264358,-0.197940670933333,-0.146293536933333,-0.0253704096,-0.0776303464666667,-0.111279781133333,-0.195696428466667,-0.1385532758,-0.173476232466667,-0.151690232466667,-0.0570946958,-0.0158087189333333,0.0198239984,-0.0458343036,-0.0415068931333333,0.0898613608666667,-0.0243125798,-0.0468481443333333,-0.196905178666667,-0.0717424066666667,-0.1025601068,-0.0162493304666667,0.00680743886666667,0.124491825533333,-0.0250774798,-0.165843761133333,-0.253695753133333,-0.196032562466667,0.0823195642,0.530097619533333,1.02934202753333,1.12358462753333,0.9271333882,0.467503894866667,0.250872883533333,2402,"DG_s12",11.765,12.469,13.094,13.094,30,15,10,10,0.625,"Left",30,15,15,15,0,0,-15,15,"Advent",20,5,30,10,15,10
"52",6,"LOF4-LOF5",-0.0711871399333333,-0.0909404486,-0.118436459533333,-0.0248687328666667,0.1657096538,0.303082731333333,0.191574998133333,0.130235784133333,0.0714196281333333,0.1276861212,0.0571779998666667,0.0228675938666667,0.0889231073333333,0.10082193,0.0637842253333333,-0.00448899933333333,0.0952823646666667,0.190251082,0.1751261358,0.0781815664666667,0.0370112205333333,-0.00655070013333333,-0.00369893813333333,0.144962037133333,0.219971602,0.339773292666667,0.120528995333333,0.108822484666667,0.129186056666667,0.172303118,0.160241448666667,0.164053688666667,0.181349131333333,0.0826187733333333,-0.0112143866666667,-0.0282013733333333,2402,"DG_s12",11.765,12.469,13.094,13.094,30,15,10,10,0.625,"Left",30,15,15,15,0,0,-15,15,"Advent",20,5,30,10,15,10
"53",6,"LIN1-LIN2",0.228967706,0.282310212,0.234551286666667,0.210852697333333,0.214504206666667,0.192062236,0.152263458,0.102060814,0.065318198,0.0909778933333333,0.095924604,0.234430159466667,0.197244381466667,0.1391775028,0.0392286673333333,0.01095059,-0.0251083271333333,0.0302200879133333,0.14225708858,0.295876025046667,0.293282691333333,0.170377718,0.085349962,0.0572246906666667,0.136274777333333,0.06948525,0.00474819999999999,-0.12528144,-0.115269274933333,-0.132392488266667,-0.0704571009333333,0.08389747,0.33349053,0.431850078666667,0.295787539066667,0.1354838884,2402,"DG_s12",11.765,12.469,13.094,13.094,30,15,10,10,0.625,"Left",30,15,15,15,0,0,-15,15,"Advent",20,5,30,10,15,10
"54",6,"RIN2-RIN3",-0.270637685966667,-0.1536431399,-0.1573408199,-0.255875512566667,-0.2866206213,-0.101762488633333,0.1128097467,-0.0821458333,-0.1815037913,-0.221336399966667,-0.0848259799666667,-0.1885523093,-0.308642440633333,-0.385436660633333,-0.269367559966667,-0.254263112633333,-0.0720008259666667,-0.209442312633333,-0.110279743966667,-0.218613715966667,-0.125082442633333,-0.2557546413,-0.2347149393,-0.3099725593,-0.246146734633333,-0.272510424633333,-0.313287868633333,-0.253242325966667,-0.188955371966667,-0.1229061813,-0.136422376633333,-0.0833593199666667,-0.0830842713,-0.1856693713,-0.3011871753,-0.242027983966667,2402,"DG_s12",11.765,12.469,13.094,13.094,30,15,10,10,0.625,"Left",30,15,15,15,0,0,-15,15,"Advent",20,5,30,10,15,10
"55",6,"LOF5-LOF6",-0.0413920846666667,-0.061834458,-0.0315360811333333,0.0228670042,0.1443109842,0.171590517533333,0.125709849533333,0.170645049533333,0.175201756866667,0.111805015533333,-0.0536482904666667,-0.1286231762,-0.0670792935333333,0.0471388758,0.152579350866667,0.101078695533333,0.1595001102,-0.0207484998,0.0316027262,-0.0983069236,0.0220409210666667,-0.0200511796,-0.0489489611333333,0.0254433742,0.0794497395333333,0.158103299533333,0.080082932,-0.00205332,-0.0259949809333333,0.0694200799333333,0.0924249099333333,0.0743318908666667,-0.0305889044666667,-0.119149971133333,-0.100554547733333,-0.0921564590666667,2402,"DG_s12",11.765,12.469,13.094,13.094,30,15,10,10,0.625,"Left",30,15,15,15,0,0,-15,15,"Advent",20,5,30,10,15,10
"56",6,"RAM6-RAM7",-0.0349228833333333,-0.101586958,-0.0954255146666667,-0.193698156666667,-0.191600458666667,-0.195101335333333,-0.127609923333333,-0.0900269706666667,-0.104669645133333,-0.142049395133333,-0.156580805133333,-0.110989688666667,-0.085490444,0.0685098006666666,0.1135699038,0.0901658858,-0.0376026875333333,-0.0349924726666667,-0.00554257486666668,0.00985352713333332,-0.0094990142,0.048734808,-0.0980194413333333,-0.0571117006666667,-0.0667148473333333,0.00152581333333332,0.212748187333333,0.336533677333333,0.562884090666667,1.718170224,2.36162894733333,2.2032325662,0.817470196866667,0.137713588866667,0.175397328666667,0.184485991333333,2402,"DG_s12",11.765,12.469,13.094,13.094,30,15,10,10,0.625,"Left",30,15,15,15,0,0,-15,15,"Advent",20,5,30,10,15,10
"57",6,"LOF3-LOF4",0.268571290166667,0.1951938475,0.1083840833,-0.00837591603333333,0.121303876633333,0.210031180833333,0.105384556833333,0.152062798166667,0.0799231906513333,0.215714323984667,0.061138745318,0.2120816395,0.185390272833333,0.191665372166667,0.0724934081666667,0.0962057948333333,0.144497318833333,0.0407279204333333,-0.0135090175666667,0.0216199237666667,0.0907766008333333,0.138313370833333,0.0285116775,0.0459840161666667,0.00406721016666667,0.141570414833333,0.1245796755,0.197011484166667,0.202655106166667,0.204395918833333,0.1097298715,-0.0157941145,-0.124766307833333,-0.0661418885,0.0701440365,0.1158232365,2402,"DG_s12",11.765,12.469,13.094,13.094,30,15,10,10,0.625,"Left",30,15,15,15,0,0,-15,15,"Advent",20,5,30,10,15,10
"58",6,"RIN3-RIN4",-0.0605700138333333,0.0388256548333333,0.0103169815,0.00260633883333333,-0.0550740791666667,-0.0286935729666667,-0.0474204916333333,-0.1396962983,-0.0658035238333333,-0.0396090338333333,-0.0951690925,-0.184089933166667,-0.215904639833333,-0.0864445985,0.0598141841666667,0.0684452708333333,0.1437575283,-0.00130069836666666,-0.0983081303666666,-0.157426481833333,-0.1406964665,-0.1175311505,-0.2240556617,-0.230721135033333,-0.2419810761,-0.141179194233333,-0.1822876669,-0.140410729833333,-0.238223099833333,-0.1494854765,-0.193145647166667,-0.272236467166667,-0.269323305166667,-0.175272399833333,0.0685762268333333,-0.0240819671666667,2402,"DG_s12",11.765,12.469,13.094,13.094,30,15,10,10,0.625,"Left",30,15,15,15,0,0,-15,15,"Advent",20,5,30,10,15,10
"59",6,"RAM5-RAM6",0.0482841395033333,0.0130531935033333,-0.00343971716333333,0.03629502217,-0.03196013183,-0.0267156173633333,-0.04563472003,0.0490249793033333,0.00957395817,0.0536924695033333,0.01370728617,-0.00234071516333333,0.000289687343333333,0.162381204676667,0.257412870676667,0.308263958836667,0.20171672317,0.18366360317,0.0962057905033333,0.11933710617,0.01385018217,0.03996969017,0.0240737635033333,0.0878806479033333,0.0768870832366667,0.22911861657,0.400256862836667,0.848937232836667,1.31249856617,2.95071091283667,3.46910903950333,2.95119178617,1.31285303283667,0.338368479503333,0.169342669636667,0.00298416763666667,2402,"DG_s12",11.765,12.469,13.094,13.094,30,15,10,10,0.625,"Left",30,15,15,15,0,0,-15,15,"Advent",20,5,30,10,15,10
"60",6,"RIN1-RIN2",-0.0469353032666667,0.116615014333333,0.235499268333333,0.146683398333333,0.0109646103333333,-0.128626236333333,0.0101838603333333,-0.0303080916666667,-0.015034385,-0.166052870333333,-0.171079608333333,0.0240651316666667,0.00676899966666666,0.0256645523333333,-0.221201079,-0.197918111666667,-0.109191353,-0.053925055,-0.0711397454666667,-0.184503601466667,-0.210456695466667,-0.279375661666667,-0.275102176333333,-0.216245531,-0.174503724333333,-0.0747345043333333,-0.135196425666667,-0.055514139,-0.027270875,0.124249789,0.214056949,0.219832829,0.0811248076666667,0.061225659,-0.0937384403333333,-0.0964266390666667,2402,"DG_s12",11.765,12.469,13.094,13.094,30,15,10,10,0.625,"Left",30,15,15,15,0,0,-15,15,"Advent",20,5,30,10,15,10
"61",7,"RAM5-RAM6",-0.00326535638333331,0.0689563142833334,-0.171461414383333,-0.284594081716667,-0.269843285716667,-0.23042838705,-0.277166160383333,-0.29065528305,-0.14973533105,-0.0826842063833333,-0.142874748383333,-0.16297361705,-0.100154152383333,-0.0720157523833333,-0.142067359716667,-0.34670651505,-0.345801263716667,-0.22500925505,-0.0559073483833333,0.0899154016166667,-0.08766952105,-0.145549588383333,-0.234022237716667,-0.105369094383333,-0.08675734305,-0.0806435717166666,-0.17300482625,-0.13501764825,-0.11960542925,-0.195654256716667,-0.227593620716667,-0.346130631716667,-0.211278158383333,-0.19679540305,-0.0954599023833333,-0.0747381223833333,2403,"DG_s12",14.094,14.797,15.453,15.453,28,4,10,10,0.656,"Left",28,4,24,24,0,0,-24,24,"Advent",18,-6,28,10,4,10
"62",7,"LOF5-LOF6",-0.0229255315966667,-0.10876714493,-0.0869698099833333,-0.0253855679833333,0.00551255435,0.00442293568333333,-0.01021439285,0.00605253615,0.01198540615,0.0999015326833333,0.127061620683333,0.150747476683333,0.02590554135,-0.07025722465,-0.11435885665,-0.0252905353166667,-0.0544629953166667,-0.0525439433166667,0.0143059440166667,0.26369800535,0.401520764683333,0.323847482016667,0.19112436935,0.07973885935,0.22827879535,0.28932949335,0.188179130016667,0.141059278016667,0.168157418016667,0.29321848735,0.19535328535,0.144375262683333,0.117393184016667,0.12414617135,0.0411397020166667,0.08813883135,2403,"DG_s12",14.094,14.797,15.453,15.453,28,4,10,10,0.656,"Left",28,4,24,24,0,0,-24,24,"Advent",18,-6,28,10,4,10
"63",7,"RIN3-RIN4",0.136563978666667,0.087358992,-0.0724495766666667,-0.143998948666667,-0.153657222666667,-0.175426042666667,-0.232726848666667,-0.257563848,-0.188319915333333,-0.172436396666667,-0.267837583066667,-0.2674810484,-0.1373937184,-0.046257212,0.0268935053333333,-0.0304027034,0.0308864099333333,-0.0452687100666667,0.02538935,-0.0630486453333333,-0.0231335222666667,-0.106739454933333,-0.1108919716,-0.180972533333333,-0.189656936533333,-0.191013512533333,-0.189395015866667,-0.198760508666667,-0.103993434,-0.027367746,0.0318606086666667,-0.0305918466666667,-0.073932302,-0.0470972746666667,0.0381916593333333,0.02827479936,2403,"DG_s12",14.094,14.797,15.453,15.453,28,4,10,10,0.656,"Left",28,4,24,24,0,0,-24,24,"Advent",18,-6,28,10,4,10
"64",7,"LIN1-LIN2",0.0621260605,0.243042325833333,0.3854485531,0.4766961331,0.3947454331,0.3497506625,0.177279689166667,0.0809427358333333,0.0858632465666667,0.0712486532333333,-0.0150452067666667,-0.114269292833333,-0.1175404335,-0.0313796741666667,0.155574259166667,0.139217747433333,0.1559657861,0.0430719007666667,0.1000660895,0.00953784883333333,0.1041213735,0.0208656905,0.0776129725,-0.115351086833333,0.00336601156666667,0.00959942023333333,0.0419945969,-0.0552097541666667,-0.000400282166666666,0.1277881265,0.1422003325,0.0632125918333333,-0.0273228795,0.0573578725,0.0754356131666667,0.125318707833333,2403,"DG_s12",14.094,14.797,15.453,15.453,28,4,10,10,0.656,"Left",28,4,24,24,0,0,-24,24,"Advent",18,-6,28,10,4,10
"65",7,"RIN2-RIN3",-0.121893963666667,-0.0285749483333333,-0.0189493463333333,0.153826393666667,0.182975114333333,0.097528719,0.125584552333333,-0.026398107,0.044845075,-0.0967776516666667,-0.066520745,-0.0988351383333333,-0.0154026316666667,-0.0115105156666667,-0.0432721423333333,-0.114328391666667,-0.111226499,-0.115976265666667,-0.145267295,-0.195026715,-0.172315089133333,-0.0314589304666667,-0.0194889488666667,-0.126723048066667,-0.2473158614,-0.192856509666667,-0.122970527666667,-0.127775481666667,-0.134229762333333,-0.104689183,0.0961671243333333,0.084730431,0.0835042454666667,-0.0940509232,-0.0829928045333333,-0.117152760266667,2403,"DG_s12",14.094,14.797,15.453,15.453,28,4,10,10,0.656,"Left",28,4,24,24,0,0,-24,24,"Advent",18,-6,28,10,4,10
"66",7,"RAM6-RAM7",-0.23979129075,-0.27687863795,-0.318387405283333,-0.323591409283333,-0.188932865283333,-0.100999903283333,-0.215403596616667,-0.283304802616667,-0.393352682616667,-0.338719454616667,-0.327736766816667,-0.262658454816667,-0.197083824816667,-0.133572221283333,-0.105512207283333,-0.16812299195,-0.21799964395,-0.171181392616667,-0.07509933195,-0.00387624794999999,-0.02046355395,-0.0762791066166667,-0.20800374395,-0.282857690616667,-0.325639945283333,-0.349242458616667,-0.33207478995,-0.273135598616667,-0.12386659195,-0.136352777683333,-0.154749287683333,-0.203147909683333,-0.122519832616667,-0.01423510995,0.0864721053833334,0.175158792716667,2403,"DG_s12",14.094,14.797,15.453,15.453,28,4,10,10,0.656,"Left",28,4,24,24,0,0,-24,24,"Advent",18,-6,28,10,4,10
"67",7,"LOF3-LOF4",-0.239058606333333,-0.298082544333333,-0.357311375,-0.243462508333333,-0.113318722333333,-0.0662332116666667,-0.134490963,-0.287683524333333,-0.334452748333333,-0.279568625,-0.159547523666667,-0.0814978436666667,-0.100549329,-0.121043047,-0.262432048333333,-0.310948429,-0.254710126333333,-0.224704609,-0.0806607816666667,-0.155425589573333,-0.12738677224,-0.22971070624,-0.259394677666667,-0.199183192333333,-0.173711425,-0.211931304,-0.196838366,-0.100050494,0.0274909123333333,0.0824056696666667,0.085504111,0.0364258526,-0.0408458387333333,-0.0724638307333333,-0.132394531666667,-0.193098081666667,2403,"DG_s12",14.094,14.797,15.453,15.453,28,4,10,10,0.656,"Left",28,4,24,24,0,0,-24,24,"Advent",18,-6,28,10,4,10
"68",7,"LOF4-LOF5",-0.316554793333333,-0.300655106933333,-0.201985850933333,-0.171812160933333,-0.0619462686666667,-0.157007242666667,-0.1593680242,-0.2483970962,-0.2506698082,-0.250701914666667,-0.249028244666667,-0.268238292,-0.320521266666667,-0.202126727333333,-0.243623326666667,-0.206873088533333,-0.2899926692,-0.1548192168,-0.1349565968,-0.0689843774666667,-0.0459078532,-0.096904352,-0.23772788,-0.211826609333333,-0.108104930666667,-0.060161512,-0.15672818,-0.105503618666667,0.0926752093333333,0.0288360253333333,-0.0209728946666667,-0.196695903666667,-0.224117213,-0.330391486333333,-0.298327838666667,-0.208902453333333,2403,"DG_s12",14.094,14.797,15.453,15.453,28,4,10,10,0.656,"Left",28,4,24,24,0,0,-24,24,"Advent",18,-6,28,10,4,10
"69",7,"RIN1-RIN2",-0.00998505301666667,-0.00387466768333333,-0.0783076676833333,-0.02191403335,-0.06219437135,-0.0506105440166667,-0.06447937135,-0.09170397935,-0.02289322335,-0.0417659346833333,8.88632500000014e-05,-0.0351032900833333,0.0741395585833333,0.147755847983333,0.125874429316667,-0.03337823535,-0.191257902016667,-0.251829756083333,-0.20785951675,-0.0435761274166667,0.0691750753166667,0.185944411983333,0.124648437316667,-0.04927006935,-0.202058862683333,-0.26013072735,-0.14671382735,-0.185059714016667,-0.14417369335,-0.139586550016667,0.142051009983333,0.174047987983333,0.24793230665,0.05370559865,-0.0145892434166667,-0.0346671654166667,2403,"DG_s12",14.094,14.797,15.453,15.453,28,4,10,10,0.656,"Left",28,4,24,24,0,0,-24,24,"Advent",18,-6,28,10,4,10
"70",7,"RAM7-RAM8",0.0123787438333333,0.00344882516666667,-0.0169125185,-0.0288412998333333,0.165288152833333,0.2592282395,0.2831015195,0.151745352166667,0.0772928961666667,0.1194621195,0.2365269495,0.240323558166667,0.0608242881666667,0.0482101621666667,0.0103577301666667,0.173366092166667,0.0550006081666667,0.0377035141666667,-0.0639833745,-0.0507807111666667,0.0974793308333333,0.0800978541666667,0.0387154081666667,-0.0176223345,0.0476697788333333,0.151915164833333,0.1670605855,0.135478846833333,0.206487714166667,0.165978384033333,0.213730286033333,0.167821127366667,0.1823201023,0.213857668966667,0.0914478009666667,0.189687190833333,2403,"DG_s12",14.094,14.797,15.453,15.453,28,4,10,10,0.656,"Left",28,4,24,24,0,0,-24,24,"Advent",18,-6,28,10,4,10
"71",8,"RAM5-RAM6",0.123088136666667,0.158076988666667,0.0211209413333333,0.016588644,0.137787847866667,0.2493252612,0.307479281866667,0.358841870666667,0.302994842,0.339248684666667,0.194425568666667,0.162470415333333,0.0117966886666667,-0.00816177266666668,0.000878753999999995,0.0425880806666667,0.0519562873333333,0.117372583333333,0.1082232889,0.112921399566667,0.0889713969,0.194551078,0.17176252,0.268689747933333,0.319605531933333,0.242780049933333,0.156307307333333,0.0701131372666667,0.205663141266667,0.1146890826,0.065085162,-0.023628944,0.0418938973333333,0.0111679373333333,-0.000846611333333344,-0.0197095482666667,2404,"DG_s12",16.453,17.156,18.64,18.656,10,10,4,4,1.484,"Left",4,4,0,0,0,0,0,0,"10-10",6,6,10,4,10,4
"72",8,"LOF3-LOF4",-0.231038479166667,-0.190426023366667,-0.0880189373666667,-0.166557238033333,-0.205129097166667,-0.3305106805,-0.2418832485,-0.168927097833333,-0.1060898165,-0.0402024311666667,-0.0609778458333333,0.0257545975,-0.121549095766667,-0.0383090664333333,-0.175116435766667,-0.0980413425,-0.259752737833333,-0.2094622165,-0.260546809833333,-0.239995737166667,-0.165264857166667,-0.134088741166667,-0.0744583345,-0.1860148105,-0.140734175166667,-0.174274049833333,-0.2027015925,-0.282546909166667,-0.2479927265,-0.259804122966667,-0.203345289633333,-0.238054350966667,-0.139664931166667,-0.213418111166667,-0.193759085166667,-0.2136299765,2404,"DG_s12",16.453,17.156,18.64,18.656,10,10,4,4,1.484,"Left",4,4,0,0,0,0,0,0,"10-10",6,6,10,4,10,4
"73",8,"RAM6-RAM7",-0.0381895681333333,-0.0149656461333333,0.0958022138666667,0.0638980363333333,0.123068814333333,0.0618808043333333,0.139326134333333,0.0121500943333333,-0.064163701,-0.002512625,0.116266716333333,0.064620865,-0.108621993,-0.213190074333333,-0.114271030333333,-0.0473337103333333,-0.0337020243333333,-0.0274841783333333,0.0132426503333333,-0.0363019595333333,-0.1177750102,-0.0956022742,-0.0361909776666667,0.0208882923333333,-0.051289371,0.0101239363333333,-0.0532696796666667,-0.133873285,-0.136127065666667,-0.0947823836666667,-0.141888621666667,-0.156186411666667,-0.075450947,0.136953393,0.0705390983333333,0.058438019,2404,"DG_s12",16.453,17.156,18.64,18.656,10,10,4,4,1.484,"Left",4,4,0,0,0,0,0,0,"10-10",6,6,10,4,10,4
"74",8,"RIN1-RIN2",0.08473413655,0.08924704995,0.09271937195,0.04650085395,0.247526909883333,0.15982022055,0.22699395055,0.112818250283333,0.18007383895,0.0984504568833333,0.09913924315,-0.00865281085,0.05315585255,0.0994908612166667,0.18933720055,0.25765356055,0.226147755216667,0.321565669216667,0.20017022255,0.211914669676667,0.0811864503433333,0.13952233701,0.123916167216667,0.15474599055,0.0421427820166667,0.0561153366833333,0.16897655935,0.284091501216667,0.19698067455,-0.0385552587833333,-0.112265692116667,0.0222881812166667,0.165635937216667,0.14191437455,-0.0158901521166667,-0.03945214745,2404,"DG_s12",16.453,17.156,18.64,18.656,10,10,4,4,1.484,"Left",4,4,0,0,0,0,0,0,"10-10",6,6,10,4,10,4
"75",8,"RIN3-RIN4",-0.0664560592166667,0.0329822647833333,0.0209271201166667,0.150485974783333,0.04817800145,0.06700131745,-0.0750070192166667,-0.121916045883333,-0.22600375855,-0.125214295883333,-0.00405425055,0.0372905361166667,0.0603587087833333,0.131099376783333,0.241229458116667,0.18438646945,0.0786220947833333,-0.04610531455,-0.09036177255,-0.0518561712166667,0.00165257278333333,0.01196171145,-0.0294375552166667,0.0299909887833333,0.0257296141166667,0.0192028207833333,0.0881667531833333,0.19527885585,0.252900902516667,0.181912965983333,0.142639467316667,0.05890565265,0.14298404345,0.205501642116667,0.200024016783333,-0.01140172855,2404,"DG_s12",16.453,17.156,18.64,18.656,10,10,4,4,1.484,"Left",4,4,0,0,0,0,0,0,"10-10",6,6,10,4,10,4
"76",8,"LOF4-LOF5",0.183271271333333,0.0711928973333333,0.083870824,-0.121790356,0.00766365066666666,0.0320940693333333,0.0152488555333333,-0.0847463324666667,-0.0863246866,0.110297980533333,0.0815510718666667,0.0228232726666667,-0.1584528924,-0.246391949066667,-0.182419293066667,-0.119088084,-0.117740737333333,-0.01937458,-0.117367318,-0.048362603,-0.0889605483333333,0.0661518723333333,0.0783740882,-0.0861668331333333,-0.183271171133333,-0.186627318,-0.111530889333333,-0.092781678,0.101737732,0.06656405,0.101297529333333,-0.0961142113333333,-0.0791627673333333,0.000298506666666656,0.0463990686666667,0.128167047333333,2404,"DG_s12",16.453,17.156,18.64,18.656,10,10,4,4,1.484,"Left",4,4,0,0,0,0,0,0,"10-10",6,6,10,4,10,4
"77",8,"RIN2-RIN3",0.158562941901667,0.137981424568333,0.120527467235,0.0220457189683333,0.115269142968333,0.112272043635,0.182094268968333,0.260471634968333,0.371011458301667,0.371352114301667,0.172861907635,0.0365029629683333,-0.00309081169833333,0.0357555961016667,0.132809607435,0.212618450101667,0.284877528968333,0.178804682635,0.136806377968333,0.0725249613016667,0.013440617635,0.00695049896833333,-0.00150212436500001,0.115304142968333,0.0502492777016667,0.032530647035,0.113284169701667,0.159847198968333,0.252967940968333,0.0691434943016667,0.0792773669683333,0.0752506847016667,0.122174944701667,0.217052918035,0.107949841635,0.104071327635,2404,"DG_s12",16.453,17.156,18.64,18.656,10,10,4,4,1.484,"Left",4,4,0,0,0,0,0,0,"10-10",6,6,10,4,10,4
"78",8,"RAM7-RAM8",-0.3663587018,-0.3132746158,-0.265436158466667,-0.355863235533333,-0.3529006082,-0.3139401276,-0.231325732266667,-0.2983520976,-0.3306855402,-0.215018368866667,-0.144926792866667,-0.0205016235333333,-0.0577653495333333,-0.102357240866667,-0.055382577,-0.0611049976666667,-0.0323001516666667,-0.101058606866667,-0.0882060544666667,-0.187401047133333,-0.329844920466667,-0.3740196862,-0.2797437762,-0.228166719533333,-0.272705164866667,-0.297264394866667,-0.234236126866667,-0.141717661533333,-0.1711132982,-0.245136569533333,-0.279070591533333,-0.156930094866667,-0.0209092148666667,-0.0461263348666667,-0.2175084082,-0.264857514866667,2404,"DG_s12",16.453,17.156,18.64,18.656,10,10,4,4,1.484,"Left",4,4,0,0,0,0,0,0,"10-10",6,6,10,4,10,4
"79",8,"LOF5-LOF6",-0.0302592495,-0.150349256166667,-0.249114196833333,-0.279870658833333,-0.195130492166667,-0.101105100166667,-0.118008420433333,-0.2009285711,-0.0468753231,0.0159209418333333,-0.00450472683333335,-0.2686130575,-0.3247490295,-0.2250325635,-0.0435417579,0.0761269661,0.122971799433333,0.173731295833333,0.121631749833333,-0.00067516283333334,-0.115273790166667,-0.00597857750000001,0.0439709205,0.0700698185,0.0188798978333333,0.0073509725,-0.0557411095,-0.0965721501666667,0.0156101565,0.137319949833333,0.00399793183333333,-0.0702240181666667,-0.0880708605,-0.0412974231666667,0.0536877335,-0.0242777511,2404,"DG_s12",16.453,17.156,18.64,18.656,10,10,4,4,1.484,"Left",4,4,0,0,0,0,0,0,"10-10",6,6,10,4,10,4
"80",8,"LIN1-LIN2",0.267870994033333,0.243166370166667,0.168091480166667,0.0141085081666667,0.00299427883333333,-0.0405164051666667,0.133115496833333,0.0412555781666667,0.0849173528333333,0.143123606166667,0.1969502875,0.1347275615,0.0412734021666667,0.1502650815,0.2652715335,0.352986226166667,0.3973483015,0.334024148166667,0.241403719833333,0.247960813166667,0.2146084325,0.280231596766667,0.177533050833333,0.2872741715,0.162198444233333,0.0861711935,-0.0599993805,0.0168279095,0.0956749041666667,0.117257638833333,0.0703587928333333,0.0189474809666667,0.0327642069666667,-0.00955717722666667,0.0506186913066667,0.0348374453066667,2404,"DG_s12",16.453,17.156,18.64,18.656,10,10,4,4,1.484,"Left",4,4,0,0,0,0,0,0,"10-10",6,6,10,4,10,4
"81",9,"RAM5-RAM6",-0.162953246966667,-0.300405761633333,-0.0829537083,-0.00118654096666665,0.0836292070333333,-0.0371472323,0.0377494883666667,0.107354500366667,0.179009180366667,0.0295398543666667,-0.0189540856333333,-0.1759664523,-0.0995820169666667,-0.0038090683,0.00960414770000001,0.0496850183666667,0.00341990303333334,0.0171106377,-0.0416935343,-0.136691297633333,-0.1768854983,-0.0796250596333333,-0.0457274429666667,-0.0677631329666667,-0.1871119223,-0.247698575633333,-0.199066149633333,-0.1857411583,-0.114010841633333,0.0398215323666667,0.0371021837,-0.00599328029999999,-0.1927296203,-0.165839093633333,-0.138634862966667,0.0299521237,2405,"DG_s12",19.656,20.359,21.859,21.859,13,7,10,10,1.5,"Left",13,7,6,6,0,0,-6,6,"Advent",3,-3,13,10,7,10
"82",9,"RIN3-RIN4",0.15402430105,0.183171934383333,0.31172683905,0.320437492383333,0.30197593905,0.155664093716667,0.240973728383333,0.293912334383333,0.182129319716667,0.0864910783833334,0.00206560238333334,0.0952232443833333,0.195690424383333,0.301695879783333,0.44412436445,0.406330463116667,0.33823105905,0.160043615516667,0.138795410583333,0.149304738916667,0.117481173783333,0.167109470716667,0.12650892105,0.298086747716667,0.38925293705,0.406845893716667,0.294662575716667,0.269902753716667,0.38519511705,0.470909003716667,0.46300273905,0.452959265716667,0.34653621975,0.327278013083333,0.275045811083333,0.36678889705,2405,"DG_s12",19.656,20.359,21.859,21.859,13,7,10,10,1.5,"Left",13,7,6,6,0,0,-6,6,"Advent",3,-3,13,10,7,10
"83",9,"RAM6-RAM7",-0.0338969426666667,-0.16542478,-0.212545894,-0.247571454,-0.173073067333333,-0.0728704126666667,-0.197923872666667,-0.283431195333333,-0.23755033976,-0.136210544426667,-0.16403552296,-0.187100771866667,-0.1779355472,-0.1120448584,-0.1323555744,-0.208002955066667,-0.101763345333333,-0.137938780666667,-0.0401018466666667,-0.161626373266667,-0.1748941406,-0.107489267266667,-0.0541914673333334,-0.100357228666667,-0.172647628,-0.274086641333333,-0.239968403266667,-0.333201077266667,-0.3081273706,-0.236047465333333,-0.207611001333333,-0.144817194666667,-0.162555124666667,-0.106467648666667,-0.0745933044666667,-0.0817105244666667,2405,"DG_s12",19.656,20.359,21.859,21.859,13,7,10,10,1.5,"Left",13,7,6,6,0,0,-6,6,"Advent",3,-3,13,10,7,10
"84",9,"RIN2-RIN3",-0.0818619138333333,-0.131638077166667,-0.1179540745,-0.0270468118333333,-0.1659271225,-0.1869652067,-0.223718859366667,-0.169835917366667,-0.0928788239,-0.0404254470333333,0.0670491096333333,0.0777047390333333,-0.0294897498333333,-0.0112590662333333,-0.0721086175666667,0.2202678491,0.1750974215,0.231377244566667,0.00647050256666667,-0.0857933387666667,-0.1286311539,-0.109099645233333,0.0327505045666667,0.161761856366667,0.198460425233333,0.245521069433333,0.126086616366667,0.113831004833333,-0.0080989225,-0.00994679783333333,-0.0682677338333333,-0.0631169945,-0.0684998178333333,0.1039908875,0.0994145834333333,0.267564496766667,2405,"DG_s12",19.656,20.359,21.859,21.859,13,7,10,10,1.5,"Left",13,7,6,6,0,0,-6,6,"Advent",3,-3,13,10,7,10
"85",9,"LOF4-LOF5",-0.047558228215,-0.00227664488166666,-0.073887098215,0.0231532224516667,0.038794137785,0.162040231118333,0.195093427785,0.318819800451667,0.246715129785,0.262892841785,0.228181933785,0.216588391185,0.171093825185,0.0966090038516667,0.0263102164516667,0.062662493785,-0.00190172554833333,0.0839802551183333,-0.0164815948816667,0.0776703224516667,-0.0357443235483333,-0.103578266215,-0.202966462881667,-0.229843290215,-0.082225324215,-0.0373706708816667,0.148510082451667,0.136313907251667,0.0769812872516667,-0.0149009527483333,-0.0281119755483333,0.045284177785,-0.0452745728816667,-0.0413543095483333,-0.0159581895483333,0.074084990385,2405,"DG_s12",19.656,20.359,21.859,21.859,13,7,10,10,1.5,"Left",13,7,6,6,0,0,-6,6,"Advent",3,-3,13,10,7,10
"86",9,"LOF5-LOF6",-0.152257052683333,-0.04703121735,-0.158854871683333,-0.03535784435,-0.0343952890166667,-0.0337405916833333,-0.0178714336833333,-0.0602938296833333,0.02343740165,-0.13130855835,-0.108516539683333,-0.22688186435,-0.114796069416667,-0.140205515416667,-0.0220681748166667,0.01990243025,0.11599223225,0.189991368983333,0.239332948983333,0.215770684316667,0.122912766983333,-0.00315597035,0.00908273298333333,0.05351420365,0.06167469565,0.08684388565,0.00749966098333334,-0.0267893676833333,-0.0890562316833333,-0.03107693035,0.00363607678333333,0.0548273587833333,0.0384526147833333,-0.05763760835,-0.117701157016667,-0.18447835635,2405,"DG_s12",19.656,20.359,21.859,21.859,13,7,10,10,1.5,"Left",13,7,6,6,0,0,-6,6,"Advent",3,-3,13,10,7,10
"87",9,"RIN1-RIN2",0.13252742675,0.163693975416667,0.15629979275,-0.00419239991666667,-0.0483189379166667,-0.0790011659166667,0.0984112036166667,0.06093615695,0.03903819195,-0.01035827825,-0.0372838895833333,-0.05132429125,-0.119622775916667,-0.0218527199166667,0.0491742134166667,0.161386305416667,0.25369599875,0.23312750275,0.154445142083333,-0.03850902125,-0.0491886105833333,0.0864400120833333,0.260015242083333,0.330441807416667,0.25848095475,0.24756066515,0.198255789816667,0.179511591816667,0.110284394083333,0.138684659416667,-0.0232009899166667,-0.03502184925,-0.114739916383333,0.0893629716166667,0.118321631616667,0.22480106875,2405,"DG_s12",19.656,20.359,21.859,21.859,13,7,10,10,1.5,"Left",13,7,6,6,0,0,-6,6,"Advent",3,-3,13,10,7,10
"88",9,"LIN1-LIN2",0.137451577366667,0.0401838233666667,0.0579924767,0.2062938247,0.235743292033333,0.334143305366667,0.1690601607,0.303714477633333,0.1230393163,0.2586138843,0.1075868507,0.1924383983,0.0678127596333333,0.1315712843,0.171243458033333,0.191078103366667,0.174375242033333,0.2306822487,0.239459945366667,0.1965284967,0.197424328033333,0.1645280547,0.1621644067,-0.0375090323266667,-0.0731261029266667,-0.0254246995933333,0.0740336147666667,0.1266040087,0.0115732687,-0.0169305989666667,-0.0731885303,-0.0992269769666667,-0.205261186633333,-0.216772638633333,-0.1495266453,-0.0924114726333333,2405,"DG_s12",19.656,20.359,21.859,21.859,13,7,10,10,1.5,"Left",13,7,6,6,0,0,-6,6,"Advent",3,-3,13,10,7,10
"89",9,"RAM7-RAM8",-0.169197154253333,-0.1504282141,-0.123710909833333,-0.118965188093333,-0.105851370093333,-0.125751783426667,-0.0816208365,0.0439936988333333,0.120323006833333,0.1445961015,0.0099278615,-0.0423322045,-0.0241680365,0.0143187081666667,-0.0102738218333333,-0.0863684318333333,-0.152580175166667,-0.184692063166667,-0.230036643166667,-0.0990752731666667,-0.00672280516666666,0.112820808166667,-0.0135702402333333,-0.0197841769,-0.104783930233333,0.00763197216666667,-0.0959746545,-0.0382035478333333,-0.0898536485,0.00379870483333333,-0.0627319792333333,-0.1122907639,-0.169634226566667,-0.00900750916666666,0.115933204166667,0.0668593135,2405,"DG_s12",19.656,20.359,21.859,21.859,13,7,10,10,1.5,"Left",13,7,6,6,0,0,-6,6,"Advent",3,-3,13,10,7,10
"90",9,"LOF3-LOF4",-0.00278125483333333,0.0630285718333334,0.255406693833333,0.242882953833333,0.1359317405,0.0273918125,0.102767393833333,0.261707381833333,0.2253466403,0.142391501633333,-0.00223923569999999,-0.0521302475,-0.000331651499999988,-0.0296454441666667,-0.00250161016666667,-0.1567527279,-0.0296686792333333,0.00206765210000001,0.0788134871666667,0.0334570998333333,0.0210815158333333,0.0044422605,-0.1623736055,-0.215041532166667,-0.218324286166667,-0.117481224166667,-0.0399403121666667,0.0299881978333333,0.0399445171666667,0.133904581833333,0.188793049166667,0.185957741166667,0.111933103166667,-0.0419696941666667,-0.0274337707,-0.0388846793666667,2405,"DG_s12",19.656,20.359,21.859,21.859,13,7,10,10,1.5,"Left",13,7,6,6,0,0,-6,6,"Advent",3,-3,13,10,7,10
"91",10,"LOF3-LOF4",-0.0221206298333333,-0.1347875165,-0.0770189205,-0.1093404005,-0.0731102471666667,-0.115517215833333,-0.0217101291666667,0.0750536008333333,0.2334359615,0.1936629615,0.0155741635,-0.157356542752,-0.186336482752,-0.160694614752,-0.1635071525,-0.215520785833333,0.0259703675,0.1270757595,0.1572258795,-0.120258877166667,-0.207821799833333,-0.185460471166667,-0.0843502891666667,0.0488302668333333,0.0340136515,0.0932158595,0.148365292833333,0.181459977773333,0.02282954844,-0.08605171356,-0.0606084251666667,0.0940583535,0.401565868833333,0.2287078355,0.0925239311666667,-0.280375634166667,2406,"DG_s12",22.859,23.562,24.25,24.25,10,26,10,10,0.688,"Right",10,26,16,16,0,16,0,-16,"Disadvent",0,16,10,10,10,26
"92",10,"RAM6-RAM7",0.1144818877,0.221355799033333,0.284761536366667,0.209199651033333,0.0938853950333333,0.125510146366667,0.0841641650333333,0.132260526366667,0.100731067033333,0.152867209033333,0.139851120366667,0.266961656366667,0.3159432897,0.3244625377,0.152499216366667,0.0858452470333333,0.124578291033333,0.125974572366667,0.209893923833333,0.2404910985,0.3352867077,0.314208546233333,0.262108812233333,0.186193316366667,-0.0105900576333333,0.0050832037,-0.00398664296666668,0.1471630957,0.174144653033333,0.1982558017,0.123476812366667,0.0714207457,0.0501979093666667,0.0595615580333333,0.0302583713666667,-0.0422191294333333,2406,"DG_s12",22.859,23.562,24.25,24.25,10,26,10,10,0.688,"Right",10,26,16,16,0,16,0,-16,"Disadvent",0,16,10,10,10,26
"93",10,"RIN2-RIN3",0.198014501,0.241916885666667,0.122148747666667,-0.076991633,-0.057158919,0.128571743,0.335157363666667,0.268617230333333,0.101077413,0.00710880033333333,0.156681873666667,0.170508582266667,0.0490839142666667,-0.121476739066667,-0.0734162863333333,0.0101578276666667,0.0682848543333333,0.0540035782666667,0.0121899436,0.00737914693333333,0.0129537283333333,-0.021406745,-0.105678428333333,-0.126125719466667,-0.1134666648,-0.0963568288,-0.088173051,-0.0970339500333333,-0.0191635487,-0.0402178160333333,-0.103394667666667,-0.116086367333333,-0.0928141663333333,-0.0382582603333333,-0.0727648568666667,-0.1005855592,2406,"DG_s12",22.859,23.562,24.25,24.25,10,26,10,10,0.688,"Right",10,26,16,16,0,16,0,-16,"Disadvent",0,16,10,10,10,26
"94",10,"RIN3-RIN4",-0.0331639406666667,0.0722004433333333,0.110053292666667,0.13785721,-0.0767853106666667,-0.113040901333333,-0.138147195333333,-0.049600574,-0.0682855035333333,-0.142489837533333,-0.147862877533333,-0.21324572,-0.1988685476,-0.100974484933333,0.0593217578,0.1903123074,0.309583978066667,0.291941315333333,0.229353985333333,0.13392508,0.23053098,0.220502098666667,0.281957604,0.181521409333333,0.222505647333333,0.128102100666667,0.163212495333333,0.155359615333333,0.165799003333333,0.242349843333333,0.215728434666667,0.121511878666667,-0.0337665533333333,-0.00855295,0.095407202,0.148689194,2406,"DG_s12",22.859,23.562,24.25,24.25,10,26,10,10,0.688,"Right",10,26,16,16,0,16,0,-16,"Disadvent",0,16,10,10,10,26
"95",10,"LIN1-LIN2",-0.00991769433333333,0.202984919666667,0.195780953,0.0602966656666667,-0.0172039663333333,0.000536498333333336,0.143502465666667,0.128562449,0.0568420463333333,-0.0573457220666667,-0.0815159514,0.0153017261333333,0.0896407592,-0.0297086028,-0.170701427,-0.140861605,0.0851817863333333,0.166083538333333,-0.00697982966666667,-0.134106121666667,-0.078745927,0.0875155143333333,0.000101308333333334,0.155041708333333,0.129474977666667,0.362955231,0.255858475,0.215071059,0.0221025263333333,-0.119321294333333,-0.131819758333333,-0.0851182476666667,-0.152720091,-0.193837373666667,-0.270432451666667,-0.072080645,2406,"DG_s12",22.859,23.562,24.25,24.25,10,26,10,10,0.688,"Right",10,26,16,16,0,16,0,-16,"Disadvent",0,16,10,10,10,26
"96",10,"RAM5-RAM6",0.0835324802633333,-0.0319695097366667,0.01457269893,-0.05990609667,-0.0439705413366667,-0.144662043336667,-0.158459305336667,-0.12602999667,0.02873346133,0.0828367046633333,0.0592724639966667,0.0672906439966667,0.05995536333,0.20624301133,0.23508483333,0.25474436533,0.08591143933,-0.0166935940033333,0.12955073733,0.32002552333,0.35184922133,0.147212651996667,0.0222569719966667,0.09124940533,0.18398081533,0.212105753196667,0.107709463196667,-0.00573838347,-0.0894071340033333,-0.00390875333666667,0.06445406893,0.114024055596667,0.09270407293,0.0184387126633333,-0.0556960213366667,-0.0567795973366667,2406,"DG_s12",22.859,23.562,24.25,24.25,10,26,10,10,0.688,"Right",10,26,16,16,0,16,0,-16,"Disadvent",0,16,10,10,10,26
"97",10,"LOF4-LOF5",-0.255942084316667,-0.191906598916667,-0.188435437583333,-0.23929408625,-0.29492872025,-0.39098000425,-0.342965657583333,-0.30985097545,-0.104227262783333,-0.04565296945,0.0647445190833333,-0.123347697583333,-0.119100271583333,-0.118563881583333,0.01049492975,0.01272221995,4.18512833333384e-05,-0.0593510405833333,-0.02203836945,-0.0853684813833333,-0.144161703516667,-0.29555195685,-0.323599205583333,-0.332192818916667,-0.221921192916667,-0.31160135025,-0.117654343583333,-0.0463346109166667,0.0790424804166667,-0.03063054285,-0.150153361516667,-0.244558636183333,-0.23045321225,-0.197304395036667,-0.0939579010366667,-0.122833233703333,2406,"DG_s12",22.859,23.562,24.25,24.25,10,26,10,10,0.688,"Right",10,26,16,16,0,16,0,-16,"Disadvent",0,16,10,10,10,26
"98",10,"RAM7-RAM8",0.0405497687,-0.103039023966667,-0.215386039966667,-0.223660488166667,-0.1456118095,-0.0985925814333333,-0.0246833421,-0.0516103989666667,0.0213800596333333,-0.07896787472,0.01765057348,-0.07517712452,-0.116040810166667,-0.250050116833333,-0.157042018833333,0.0212349665,0.113205959833333,0.1686817665,0.08392611116,0.10666337116,0.0129418978266667,-0.0873792921666667,-0.1161468415,-0.0709297815,0.0717278518333333,0.0660802878333333,-0.00582316083333334,-0.128253074166667,-0.235680994166667,-0.222693052833333,-0.0732892848333333,-0.00554612223333334,0.0733444902466667,0.000124142246666667,-0.00176698702,-0.135693868833333,2406,"DG_s12",22.859,23.562,24.25,24.25,10,26,10,10,0.688,"Right",10,26,16,16,0,16,0,-16,"Disadvent",0,16,10,10,10,26
"99",10,"RIN1-RIN2",-0.124431344166667,-0.147999260166667,-0.281207944833333,-0.4197809915,-0.4144876215,-0.212729184166667,-0.0240042888333333,0.0475572465,-0.1133504475,-0.0665159448333333,0.00113953983333337,-0.0212412515,-0.188308476166667,-0.363965820166667,-0.2736335337,-0.230640361633333,-0.2573772663,-0.308490363953333,-0.419852042686667,-0.410492695353333,-0.401326012166667,-0.2720849135,-0.371983478833333,-0.394711234366667,-0.383010213033333,-0.249149540366667,-0.2638290835,-0.3589787835,-0.331625136166667,-0.294015014633333,-0.2598472333,-0.340943086633333,-0.3218660315,-0.378603352833333,-0.427636446166667,-0.4864263155,2406,"DG_s12",22.859,23.562,24.25,24.25,10,26,10,10,0.688,"Right",10,26,16,16,0,16,0,-16,"Disadvent",0,16,10,10,10,26
"100",10,"LOF5-LOF6",0.0451233218166667,0.0980502148833333,0.0491089128833333,-0.04128342712,-0.15463039152,-0.145992558853333,-0.00865584071666667,0.0746147112833333,0.141086927283333,0.11463390195,0.04411230395,-0.0498951687166667,-0.12868232805,-0.0667041587166667,-0.0522649007166667,-0.0675667553833333,0.08004113995,0.0623961546166667,0.05763007595,-0.11594602925,-0.0532607485833333,-0.0355019365833333,-0.09848721805,-0.24643671205,-0.295739340716667,-0.169647260716667,0.0493193592833333,0.163360360616667,0.08065444635,-0.0875638389833333,-0.148743046316667,-0.10913837205,-0.03579276605,-0.0916790107166667,-0.13927010805,-0.156358842716667,2406,"DG_s12",22.859,23.562,24.25,24.25,10,26,10,10,0.688,"Right",10,26,16,16,0,16,0,-16,"Disadvent",0,16,10,10,10,26
"101",11,"LOF5-LOF6",-0.0595580261166667,-0.0502849759166667,-0.138876017916667,-0.148920337916667,-0.0992453501166667,-0.14090462945,-0.00737188211666667,0.0268955332166667,0.02082218055,0.0212879732166667,-0.08056943345,0.00718076781666667,0.00176979528333333,0.09527146795,0.0433249326833333,0.0293070732166667,0.0772824692166667,0.150676143883333,0.06300778255,-0.0496602227833333,-0.0947179527833333,0.00830522055,0.0482503042833333,0.0414081082833333,0.0294792816166667,-0.03074984745,-0.04561826545,-0.01592037745,0.06711466315,0.0811111418166667,-0.0108911501833333,-0.0702461701166667,-0.06116693145,7.82318833333331e-05,0.0184672918833333,0.0349362538833333,2407,"DG_s12",25.25,25.953,26.859,26.859,13,22,10,10,0.906,"Right",13,22,9,9,0,9,0,-9,"Disadvent",3,12,10,13,10,22
"102",11,"RAM5-RAM6",0.0893150542833333,0.21257452295,0.17226537495,0.17372077495,0.0114036136166667,-0.01465236505,0.04115222095,0.143737802216667,0.0875997216166667,0.0460986222833333,-0.0279075589833333,0.21834447495,0.272030108283333,0.377531348283333,0.135333221616667,0.000356321616666662,0.0677281562833333,0.128009149616667,0.22494500495,0.13769857695,-0.00519069371666667,-0.11701884905,-0.0507044411166667,0.04138278755,0.166950942883333,0.110176451616667,0.204692293616667,0.08869634495,0.0227254064833333,-0.0633759455166667,-0.08094577085,-0.0813167043833333,-0.182081572383333,-0.16920070705,-0.0934399843833333,-0.0325024541166667,2407,"DG_s12",25.25,25.953,26.859,26.859,13,22,10,10,0.906,"Right",13,22,9,9,0,9,0,-9,"Disadvent",3,12,10,13,10,22
"103",11,"RAM7-RAM8",0.104261432833333,0.161051000833333,0.0447903915,-0.219432655166667,-0.275095305166667,-0.331175885833333,-0.244980871166667,-0.0207194245,0.00453185283333334,-0.00111172849999999,-0.169065915833333,-0.188182059166667,-0.125029361833333,0.0375082455,0.0807729024333333,0.0643676277666667,-0.0546831789,-0.144120659166667,-0.1485169145,-0.2390702725,-0.0595911265,-0.0565460423,-0.00641981096666666,0.0298608112333333,-0.00537856656666666,-0.0271302665666667,-0.200875851433333,-0.205065083833333,-0.0865625371666667,-0.0214375465,0.0935738319133333,0.0121852052466667,0.06423419058,-0.0306972691666667,0.00989744816666667,-0.0971721611666667,2407,"DG_s12",25.25,25.953,26.859,26.859,13,22,10,10,0.906,"Right",13,22,9,9,0,9,0,-9,"Disadvent",3,12,10,13,10,22
"104",11,"RAM6-RAM7",-0.153605723249333,-0.0843306158333333,0.0137278215,0.109846214833333,-0.0773247218333333,-0.111227263166667,-0.228094187833333,-0.0960248458333333,-0.0936227193666667,0.0654173533,0.164254930633333,0.123636488166667,0.0633629355,0.0245515396333333,0.0212119063,0.0709023909666667,0.0577532903033333,0.09070106037,0.0171315290366667,-0.0278355871,-0.0409296418333333,0.0435585448333333,0.00894918683333333,0.0687756761666667,-0.00558404783333333,0.0290755255,-0.0189306818333333,-0.0152819245,0.0888011868333333,0.0843707341666667,0.102161206166667,-0.0888338718333333,-0.0829261301666667,-0.0671778495,0.0194657925,0.0696634061666667,2407,"DG_s12",25.25,25.953,26.859,26.859,13,22,10,10,0.906,"Right",13,22,9,9,0,9,0,-9,"Disadvent",3,12,10,13,10,22
"105",11,"LOF4-LOF5",-0.026027537,0.162863729666667,0.198018981666667,0.199759065466667,0.111072387466667,0.194272392133333,0.118657663666667,0.0763712816666667,0.041474875,0.234858049,0.166739101666667,0.213923161666667,0.0823391003333333,0.197095196333333,0.151527887666667,0.129896497666667,0.110101034333333,0.0498265476666667,0.0151452623333333,-0.0676630163333333,-0.148033047666667,-0.205195617666667,0.038392859,0.0807421923333333,0.0665310256666667,-0.163664298733333,-0.0669862987333333,-0.0206134014,0.211014541666667,0.101637339,0.0914999473333333,-0.0897041573333333,7.96725999999998e-05,0.0958866416,0.0939384309333333,0.032163281,2407,"DG_s12",25.25,25.953,26.859,26.859,13,22,10,10,0.906,"Right",13,22,9,9,0,9,0,-9,"Disadvent",3,12,10,13,10,22
"106",11,"RIN3-RIN4",-0.118853255616667,-0.125959616283333,-0.09273516895,-0.0419296982833333,0.02336277305,0.08735044905,0.224040683716667,0.206260910463333,0.11944326713,0.0112693364633333,-0.0956911962833333,-0.110194880283333,-0.146581261616667,-0.08332877695,0.129413654383333,0.205407624383333,0.210356346383333,0.00469553238333334,-0.0270305896166667,-0.0904231836166667,-0.0233361482833333,-0.0479754142833333,0.0705524203833333,0.125170297716667,0.175745985716667,0.17211502505,0.12288294305,0.112529431716667,0.14440140505,0.0401287717166667,0.0631124343833333,0.05760544105,0.06763901105,-0.0833183942833333,-0.0983750482833333,-0.00938386028333333,2407,"DG_s12",25.25,25.953,26.859,26.859,13,22,10,10,0.906,"Right",13,22,9,9,0,9,0,-9,"Disadvent",3,12,10,13,10,22
"107",11,"RIN1-RIN2",-0.150942075566667,-0.179118427566667,-0.126798623566667,0.0347091244333333,0.232762657766667,0.220941480966667,0.304141660966667,0.3026303443,0.2530217271,0.0607008837666667,-0.0597938069,-0.0684843589,-0.0579980355666667,-0.1088898189,-0.0077738969,0.0978099097666667,0.189981061766667,0.146373448433333,-0.0699536849,-0.198846026233333,-0.2285890569,-0.0542032369,0.0206582837666667,0.0217212824333333,0.0864073977,0.0613438790333333,0.112861294366667,-0.0792082002333333,0.0556883377666667,0.0119663251,0.130480264433333,0.0361586291,0.0698355542333333,0.00481846756666666,0.00572208223333333,0.0057320355,2407,"DG_s12",25.25,25.953,26.859,26.859,13,22,10,10,0.906,"Right",13,22,9,9,0,9,0,-9,"Disadvent",3,12,10,13,10,22
"108",11,"LOF3-LOF4",-0.0353890242666667,0.0569721250666667,0.0790529797333333,0.161338451733333,0.0863154204,0.0276019264,0.0560161817333333,0.211007303733333,0.259192077733333,0.2748797804,0.2248901204,0.289964723066667,0.211472221066667,0.106290527733333,-0.0287286096,-0.0564102502666667,0.0638422430666667,0.145001446933333,0.166132018933333,0.0394173189333333,-0.109270138266667,-0.1285660532,0.0762121141333333,0.1861301248,0.238918983733333,0.0415918630666667,0.0846544590666667,0.0330043630666667,0.171810367066667,0.1820998064,0.248159287133333,0.181116071133333,0.162746980466667,0.102061089066667,0.0965471664,0.0581064997333333,2407,"DG_s12",25.25,25.953,26.859,26.859,13,22,10,10,0.906,"Right",13,22,9,9,0,9,0,-9,"Disadvent",3,12,10,13,10,22
"109",11,"LIN1-LIN2",-0.057489147,-0.022393567,0.144851006333333,0.234444933,0.302562606333333,0.228655937666667,0.284739627666667,0.139687430333333,0.154628839,0.003427337,0.125829024333333,0.178654808333333,0.382923777,0.249467920333333,0.154905087666667,-0.0614593925333333,-0.0439420492,-0.0236349878666667,0.016247295,0.0194166463333333,-0.0169158923333333,-0.0356624843333333,-0.123878185666667,-0.213043453,-0.125842447666667,-0.106708541,-0.0224745923333333,-0.0745298363333333,0.014189341,0.0200242983333333,-0.0243096223333333,-0.0493305276666667,-0.00970494033333333,-0.0198005954666667,0.0114332838666667,-0.000276721466666664,2407,"DG_s12",25.25,25.953,26.859,26.859,13,22,10,10,0.906,"Right",13,22,9,9,0,9,0,-9,"Disadvent",3,12,10,13,10,22
"110",11,"RIN2-RIN3",0.180510592433333,0.2009572623,0.1714078223,0.2096832973,0.211208328633333,0.259946082233333,0.165141629233333,0.160634904566667,0.133941139833333,0.145410759166667,0.0870421765,0.0588031369666667,0.1176423805,0.1619465345,0.136332079166667,0.0293321783,0.0980436787,0.136902246033333,0.1137708507,0.0728409083,0.0954946603,0.2630272883,0.316338423633333,0.343286613633333,0.2489566583,0.1937158821,0.122481599633333,0.0466885376333333,0.1644764005,0.181487900966667,0.3029925383,0.228867251633333,0.155522496966667,0.120840442966667,0.0814623976333333,0.1037896543,2407,"DG_s12",25.25,25.953,26.859,26.859,13,22,10,10,0.906,"Right",13,22,9,9,0,9,0,-9,"Disadvent",3,12,10,13,10,22
"111",12,"RAM6-RAM7",0.0430297813666667,0.0843327860333333,0.112773402033333,0.0956802253666667,-0.0219823846333333,0.0877529520333333,0.117448500033333,0.357795893366667,0.2328217907,0.245114252766667,-0.00457590723333333,0.00494888543333333,-0.0750127431,0.0348346715666667,0.198427501566667,0.275795338033333,0.227731599366667,0.0291303520333333,0.0371796360333333,0.1328559167,0.205898433366667,0.2295190067,0.146490996033333,0.0317778627,0.0136695027,-0.0305813544933333,0.0441540717066667,0.0344733937066667,0.107074954166667,0.152582472633333,0.106333325966667,0.137177003833333,0.134591932633333,0.181654202633333,0.115942662166667,0.178966959366667,2408,"DG_s12",27.859,28.562,29.469,29.469,16,4,10,10,0.907,"Left",16,4,12,12,0,0,-12,12,"Advent",6,-6,16,10,4,10
"112",12,"LIN1-LIN2",0.208934,0.297028333333333,0.293705370666667,0.220881803333333,0.17068689,0.168040280666667,0.11076468,-0.05894306,-0.100557084666667,-0.0758356246666667,-0.00920473533333334,0.000435219999999997,-0.01670989,-0.01986323,-0.042137856,-0.0904741,-0.084926762,0.021799336,0.0730240166666667,0.119807249333333,0.0913037373333333,0.103381610666667,0.101185546666667,0.153516005333333,0.0664102846666667,-0.098614098,-0.177134264666667,-0.0568694313333333,-0.0241779733333333,-0.126666386666667,-0.136096355333333,-0.077008692,-0.009653732,0.083054624,0.0251845186666667,0.0584127478666667,2408,"DG_s12",27.859,28.562,29.469,29.469,16,4,10,10,0.907,"Left",16,4,12,12,0,0,-12,12,"Advent",6,-6,16,10,4,10
"113",12,"RIN2-RIN3",0.165888511833333,0.0423499287,-0.0718458379666667,-0.0989383936333333,-0.0905656965,0.0955275968333333,0.0154949408333333,0.0489962868333333,-0.0467220431666667,0.0558156021666667,0.0243106842333333,-0.0149215065,-0.0444725011666667,0.0088651881,0.150828068833333,0.1536587115,0.213694578166667,0.1841809355,0.1378600535,0.0720757188333333,0.0011894815,0.0998076355,0.124283836833333,0.203824330166667,0.1255022955,0.157181185366667,0.135549427366667,0.138564386766667,-0.0102108244333333,-0.118107959766667,-0.0643617531666667,-0.0132004945,0.0424852655,0.0332054728333333,0.0928937875,0.0231358208333333,2408,"DG_s12",27.859,28.562,29.469,29.469,16,4,10,10,0.907,"Left",16,4,12,12,0,0,-12,12,"Advent",6,-6,16,10,4,10
"114",12,"RAM5-RAM6",0.0889582675666667,0.0741696522333333,0.147771256733333,0.273836804733333,0.196893370733333,0.0866398662333333,0.0836925802333333,0.1480014289,0.1130130925,-0.0063667615,-0.0348650015666667,0.0697674155,0.0382863661666667,-0.0606108597666667,-0.00736524176666667,0.0963705409,0.0894769609,-0.0533922437666667,-0.138451935766667,-0.1456648491,-0.1760246691,-0.199121630433333,-0.0864031577666667,0.000118902233333332,0.1057646249,0.145685654233333,0.0737288282333333,0.0171358426333333,-0.0570812533853333,0.040485125948,0.0804693868813333,0.1596500209,0.185764780233333,0.120112323166667,0.120782583833333,0.1296152045,2408,"DG_s12",27.859,28.562,29.469,29.469,16,4,10,10,0.907,"Left",16,4,12,12,0,0,-12,12,"Advent",6,-6,16,10,4,10
"115",12,"LOF4-LOF5",-0.1046597103,-0.233206218566667,-0.350446830566667,-0.414872298566667,-0.3718023383,-0.3021907183,-0.199313868966667,-0.2413672359,-0.220882725233333,-0.242456722566667,-0.1726425619,-0.1278568659,-0.148664785233333,-0.1454277699,-0.204300443233333,-0.155091731233333,-0.0896680385666667,0.000819278099999987,-0.0291524612333333,-0.110826947233333,-0.3061462359,-0.455646794566667,-0.4076670039,-0.390924958566667,-0.296559025233333,-0.232107338566667,-0.0801392785666667,-0.0569624714333333,-0.108786024766667,-0.139686196766667,-0.209093270566667,-0.325881378566667,-0.3273191199,-0.173768146566667,-0.1711065279,-0.185386094566667,2408,"DG_s12",27.859,28.562,29.469,29.469,16,4,10,10,0.907,"Left",16,4,12,12,0,0,-12,12,"Advent",6,-6,16,10,4,10
"116",12,"RAM7-RAM8",0.100184962166667,0.0311246441666667,-0.0113672798333333,-0.0530277165,0.119381850833333,0.196949514433333,0.2358385851,0.1282013791,0.0444820695,0.1074979901,0.0714902561,0.0853575394333333,-0.0494738018333333,0.0179751315,0.3060155215,0.396684386166667,0.452893016166667,0.344185456166667,0.3799555095,0.264228950833333,0.192096084166667,0.0979856441666667,0.166667506166667,0.0662490995,0.0478914661666667,-0.0975676471666667,-0.1391826765,-0.0935883711666667,-0.0299629031666667,-0.0428950091666667,-0.0364596825,0.0139492981666667,0.0439431321666667,0.1083834935,0.201939278166667,0.20286702636,2408,"DG_s12",27.859,28.562,29.469,29.469,16,4,10,10,0.907,"Left",16,4,12,12,0,0,-12,12,"Advent",6,-6,16,10,4,10
"117",12,"RIN3-RIN4",0.000689533849999998,0.120138577183333,0.0813232971833333,0.10765140185,0.0359265755833333,0.0324657689166667,0.112351275916667,0.0913316823833333,0.183720674383333,0.07783942405,-0.04346944615,-0.136542226816667,-0.00427602653,0.28268445347,0.281801150136667,0.312895100516667,0.10910827785,0.125372752516667,0.148844045183333,0.210896544516667,0.184955687183333,0.115452220516667,0.0199341371833333,0.104069995183333,0.0979546251833333,0.13765129865,0.0917874273166667,0.0611538773166667,0.219280010516667,0.34669128385,0.30278985585,0.177139961183333,0.04096345385,0.0922867545166667,0.119580275183333,0.0886964111833333,2408,"DG_s12",27.859,28.562,29.469,29.469,16,4,10,10,0.907,"Left",16,4,12,12,0,0,-12,12,"Advent",6,-6,16,10,4,10
"118",12,"RIN1-RIN2",0.2471912345,0.1230277151,0.0223708344333333,-0.0967809735666667,-0.0277072703,0.134585958366667,0.1361159357,0.0500740817666667,0.00398840643333334,0.155142041766667,0.2536985365,0.215495006233333,0.133101805566667,0.1153286509,0.162706343833333,0.2350973725,0.323211115833333,0.361908301833333,0.207907095166667,0.0249212751666667,-0.0794237648333333,0.00728121516666667,0.153060921833333,0.2657991885,0.346062355166667,0.3892717065,0.3763292993,0.2567960753,0.2334352173,0.183945509833333,0.218432981833333,0.214187925833333,0.152705440766667,0.1329425757,0.0612798597,0.0655143261,2408,"DG_s12",27.859,28.562,29.469,29.469,16,4,10,10,0.907,"Left",16,4,12,12,0,0,-12,12,"Advent",6,-6,16,10,4,10
"119",12,"LOF5-LOF6",0.0292139435666667,-0.0090454011,0.0348979075666667,0.0250923602333333,0.0871714715666667,0.0233013029,0.132456886233333,0.1378869349,0.0555976135666667,-0.0298877677666667,-0.0537364811,0.0499823769,0.0779013689,0.131306975566667,0.0616901509,0.0392053335666667,0.00897296023333333,0.0447562062333333,0.1083268069,0.1015064709,0.0936400582333333,0.0904235942333333,0.127969828233333,0.1667807809,0.0917631155666667,0.102790337566667,0.1221809009,0.150541116233333,0.0970531462333333,0.192404430233333,0.251989012233333,0.345839642233333,0.241832601566667,0.2185946829,0.1056950629,0.181284870233333,2408,"DG_s12",27.859,28.562,29.469,29.469,16,4,10,10,0.907,"Left",16,4,12,12,0,0,-12,12,"Advent",6,-6,16,10,4,10
"120",12,"LOF3-LOF4",-0.05205612966,0.0757394891666667,0.0570439578333333,0.0674142146333333,-0.0373503520333333,0.0552390813,0.0435404825666667,-0.0595888507666667,-0.164862566233333,-0.0327588109666667,0.0339696843666667,0.147280211166667,0.0803108291666667,0.0156802118333333,-0.0491838315,0.173242337166667,0.2777320725,0.2199677665,-0.0360053519666667,-0.130358571966667,-0.1394106213,-0.1680805295,-0.244555626833333,-0.238078976166667,-0.245640708966667,-0.120988937633333,0.106513132366667,0.134044025166667,0.1387127125,-0.0841669528333333,-0.122780010873333,-0.0507919828733333,0.04628185046,0.0949226551666667,0.0991082258333333,0.0513448831666667,2408,"DG_s12",27.859,28.562,29.469,29.469,16,4,10,10,0.907,"Left",16,4,12,12,0,0,-12,12,"Advent",6,-6,16,10,4,10
"121",13,"LIN1-LIN2",0.03783662825,0.09715368825,0.134982868916667,0.17659182025,0.119362157583333,0.0675911495833333,0.0566626949833333,0.0650285689833333,0.02858600565,0.01506294825,-0.00801828775000001,0.0105277777833333,0.11390624645,0.16911396445,0.159029908916667,0.107042215583333,0.05122694225,0.00522600958333333,-0.119693391083333,-0.0677045468833333,-0.05859388955,0.115943021783333,0.01499602425,-0.0870301330833333,-0.300082090416667,-0.23399265775,-0.15258963975,-0.104273696416667,-0.190055834416667,-0.283001139083333,-0.241461232416667,-0.133467087083333,-0.104450187083333,-0.102356482416667,-0.279627229083333,-0.22101486775,2409,"DG_s12",30.469,31.172,32.14,32.14,10,10,8,11,0.968,"Left",8,11,3,0,3,3,0,-3,"10-10",2,-1,10,8,10,11
"122",13,"RAM7-RAM8",0.0187233980333333,0.0549852080333333,0.1974383885,0.323265345166667,0.3316566285,0.241776921966667,0.144442180633333,0.0602894593,-0.0719518328333333,-0.119076322833333,0.0013022885,0.0984498998333333,0.0777615965,-0.0986593748333333,-0.186278692833333,-0.0478745995,0.0988918451666667,0.1921703985,0.0579509978333333,-0.0428255401666667,-0.0652086235,-0.0342868805666667,0.0387884727666667,0.0973561427666667,0.168901787833333,0.173617939166667,0.0613083158333333,-0.0400975036333333,-0.0789115089666667,-0.105748980966667,-0.140408508833333,-0.1297368475,-0.142793213833333,-0.0786461705,-0.0957968665,-0.104067388166667,2409,"DG_s12",30.469,31.172,32.14,32.14,10,10,8,11,0.968,"Left",8,11,3,0,3,3,0,-3,"10-10",2,-1,10,8,10,11
"123",13,"LOF4-LOF5",-0.34648767325,-0.373768817060667,-0.374135611727333,-0.295598489927333,-0.279157066116667,-0.391389558783333,-0.42585417345,-0.358608744783333,-0.308730252116667,-0.311535624443333,-0.220623982443333,-0.219246143776667,-0.217462414116667,-0.234242562516667,-0.207739898516667,-0.24647083185,-0.290969268116667,-0.256159450783333,-0.182039858783333,-0.25852926945,-0.28947652945,-0.324401064116667,-0.286516122783333,-0.299825284116667,-0.399786419783333,-0.386919283783333,-0.341145561783333,-0.280583176783333,-0.354849256116667,-0.43727066145,-0.38958600945,-0.300920552783333,-0.240063762783333,-0.311494366783333,-0.367492578116667,-0.370929494783333,2409,"DG_s12",30.469,31.172,32.14,32.14,10,10,8,11,0.968,"Left",8,11,3,0,3,3,0,-3,"10-10",2,-1,10,8,10,11
"124",13,"LOF5-LOF6",0.0615145618666667,0.0453422971973333,0.0179174319973333,0.016525480664,0.048155119,-0.00397637846666666,-0.0496573471333333,-0.0868977771333333,-0.0645082104666667,-0.000210757799999989,0.0335028862,0.0600499348666667,-0.0758951911333333,-0.0738123011333333,-0.0823264684666667,-0.0273942464666667,0.104269274866667,0.1634184422,0.0915652935333333,-0.0965245878,-0.00946480046666666,0.0672059905333333,0.172728875866667,0.0330160996666667,0.087301262,0.0567305197333333,0.134351971266667,0.0593774626,-0.0122209451333333,-0.0990092464666667,0.0309941022,0.237432560866667,0.2810812042,0.0649252908666667,-0.106588839133333,-0.210340417133333,2409,"DG_s12",30.469,31.172,32.14,32.14,10,10,8,11,0.968,"Left",8,11,3,0,3,3,0,-3,"10-10",2,-1,10,8,10,11
"125",13,"RAM6-RAM7",-0.0259610736466667,-0.0876479205133333,-0.0154679005133333,0.017164129,0.115234851466667,0.0538349311333333,0.0964713768,0.052132599,-0.0224639993333333,-0.124141547,-0.150353341,-0.107170297,-0.0263034056666667,0.00798936366666667,0.161202258333333,0.0794676569333333,-0.0420040710666667,-0.238686197066667,-0.178172736333333,-0.174922679666667,-0.0988597696666667,0.0254676263333333,0.0321792103333333,0.0069913358,-0.2276419822,-0.278284037533333,-0.278558911,-0.1999528568,-0.1570350968,-0.0395529928,0.101237517666667,0.345511624333333,0.275032671,0.159389639666667,0.0305417163333333,0.0593232943333333,2409,"DG_s12",30.469,31.172,32.14,32.14,10,10,8,11,0.968,"Left",8,11,3,0,3,3,0,-3,"10-10",2,-1,10,8,10,11
"126",13,"RIN3-RIN4",-0.0474877426666667,0.000455797399999999,0.125991514733333,0.1685747892,0.182737362466667,0.153729489133333,0.240529705333333,0.227707795333333,0.133659675333333,-0.0068795316,-0.0296406882666667,0.0439418684,0.0805665223866667,0.0499062470533333,0.10203389012,0.0207807837333333,0.1353769144,0.128972034066667,0.2625502734,0.235429164733333,0.153112499333333,0.0879445393333333,-0.0149413666666667,-0.0289931006666667,-0.00521665733333333,0.0626253646666667,0.086817558,0.0904356544666667,0.00101883846666666,-0.0228637795333333,-0.02764297,0.127001611866667,0.2433364032,0.130086880533333,0.293992392,0.338365905333333,2409,"DG_s12",30.469,31.172,32.14,32.14,10,10,8,11,0.968,"Left",8,11,3,0,3,3,0,-3,"10-10",2,-1,10,8,10,11
"127",13,"LOF3-LOF4",0.144446516333333,0.163831712333333,0.173062815666667,0.100660743533333,0.189568547533333,0.123749350866667,0.166252671,0.0970539443333333,0.157055445266667,0.127737791266667,0.1301717646,0.385838467,0.379232862333333,0.315711902333333,0.123572883666667,0.237794555,0.259690441666667,0.1887162026,0.0595972779333333,0.0018102782,-0.00775855006666667,0.0224508912666667,0.143095877666667,0.234643125,0.231758911666667,0.216392440333333,0.0567590923333333,0.084620241,-0.048707546,-0.0813713193333333,-0.130633813333333,-0.091142379,-0.059480059,-0.148610411666667,-0.198393335666667,-0.182265471,2409,"DG_s12",30.469,31.172,32.14,32.14,10,10,8,11,0.968,"Left",8,11,3,0,3,3,0,-3,"10-10",2,-1,10,8,10,11
"128",13,"RAM5-RAM6",-0.127737825466667,-0.176569451466667,-0.1056226464,-0.212262673,-0.304121172333333,-0.299422725,-0.146249226133333,-0.1105359148,-0.127992019466667,-0.1725642704,-0.0674033837333333,-0.0999376804,-0.245201327733333,-0.358208657066667,-0.3416007064,-0.356663479733333,-0.260495437066667,-0.152630823066667,-0.00240009213333334,-0.0461509001333333,-0.0471033134666667,0.0208070489333333,0.0807211169333333,-0.000835587066666671,-0.108005621666667,-0.238115691666667,-0.291259547666667,-0.3424745064,-0.3045936444,-0.1897577884,-0.00218366173333331,0.0409167849333333,-0.0652009430666667,-0.1450702964,-0.0397127817333333,0.112523092266667,2409,"DG_s12",30.469,31.172,32.14,32.14,10,10,8,11,0.968,"Left",8,11,3,0,3,3,0,-3,"10-10",2,-1,10,8,10,11
"129",13,"RIN1-RIN2",-0.20653525635,-0.184136923016667,-0.116127001483333,-0.0473341288166667,-0.0104643954833333,-0.05882367215,-0.0498016348166667,-0.0950932454833333,-0.163988075683333,-0.146983549683333,-0.180291939016667,-0.13562521215,-0.208806432816667,-0.08325177015,-0.15918644815,-0.0819562108166667,-0.0420888934833333,0.0354050025166667,0.11832709985,0.0628638491833333,0.101492325676667,0.168241961676667,0.303298652343333,0.250559182516667,0.230944944516667,0.216989731183333,0.21795533785,0.12938760263,-0.0407504047033333,-0.0610004680366667,-0.0510441148166667,0.06274612585,0.117824702516667,0.05759080985,-0.0656822714833333,-0.0639028334833333,2409,"DG_s12",30.469,31.172,32.14,32.14,10,10,8,11,0.968,"Left",8,11,3,0,3,3,0,-3,"10-10",2,-1,10,8,10,11
"130",13,"RIN2-RIN3",-0.03940890025,-0.116105776916667,-0.15253711505,-0.11117698305,-0.0139348897166667,0.103029225083333,0.0153660224166667,-0.0727754775833333,-0.241207000916667,-0.15960275425,-0.20316049425,-0.109302037583333,-0.0411121629166667,0.11097101975,0.106056527083333,0.0330560604166667,0.07873435775,0.110368050416667,0.209167622416667,0.11346620655,0.166513971216667,0.19445650455,0.301077527083333,0.257359921083333,0.14182534175,0.146945135083333,0.11648403375,0.143120601083333,-0.0257467389166667,-0.04015223625,0.0219226584166667,0.134121966416667,0.129619889483333,0.0560301334833333,-0.00893237745,0.00476847155,2409,"DG_s12",30.469,31.172,32.14,32.14,10,10,8,11,0.968,"Left",8,11,3,0,3,3,0,-3,"10-10",2,-1,10,8,10,11
"131",14,"LOF3-LOF4",0.0535393793333333,-0.111540127333333,-0.126844984,-0.195332453333333,-0.150096244,-0.173329226066667,-0.203452576066667,-0.3001675254,-0.3042792492,-0.314440621933333,-0.208020915866667,-0.0912635633333333,0.0898299780666667,0.13151337,0.170116544666667,-0.0300207713333333,-0.067990168,-0.177791922666667,-0.179141892666667,-0.0647346073333333,-0.0144195166666667,0.0148971606666667,-0.060543686,-0.0658369626666667,-0.0641202659333333,-0.0736335252666667,-0.0376516386,-0.0725140846666667,-0.0471604006666667,-0.0386241013333333,0.107825016666667,0.04075292924,0.0236023025733333,-0.06348556876,-0.101826314,-0.1114712228,2410,"DG_s12",33.14,33.844,34.422,34.422,18,18,10,10,0.578,"Left",18,18,0,0,0,0,0,0,"Equal",8,8,18,10,18,10
"132",14,"RAM5-RAM6",0.174725811333333,0.174282412,0.100003398666667,0.00303240933333333,-0.161578399333333,-0.179829276666667,-0.0947679313333333,-0.125631208666667,-0.124951611333333,-0.101653955866667,-0.0323511425333333,-0.0757661798666667,-0.0760704233333333,-0.0278080499333333,0.1461759874,0.0913350520666667,0.0222389926666667,-0.0929064785333333,-0.0720142038666667,0.0241721674666667,0.0468401246666667,0.0690709906666667,0.0111144613333333,0.0563000386666667,0.007736106,-0.000359369666666666,-0.0905278743333333,-0.00936881566666667,0.127186986,0.201987358666667,0.210984607333333,0.142755321333333,0.0312630806666667,-0.0422205826666667,-0.0337813673333333,0.0359678993333333,2410,"DG_s12",33.14,33.844,34.422,34.422,18,18,10,10,0.578,"Left",18,18,0,0,0,0,0,0,"Equal",8,8,18,10,18,10
