"","trial","electrodes","bin_3","bin_4","bin_5","bin_6","bin_7","bin_8","bin_9","bin_10","bin_11","bin_12","bin_13","bin_14","X","SID","newround_time","choice_time","buttonpress_time","reveal_time","self_payoff","other_payoff","self_foregone","other_foregone","RT","side_chosen","self_var_payoff","other_var_payoff","ineq_var_abs","ineq_choice_abs","ineq_foregone_abs","ineq_disadvent","ineq_advent","self_diff","other_diff"
"1",1,"ROF1-ROF2",0.049384223,0.056463373,0.0763384761,-0.0129689459,-0.035965139,0.1339376636,0.2368088936,0.068389646,-0.010886374,0.188659623,0.271833507,0.391207397,2169,"DG_s11",-0.61,0,2.015,2.031,10,10,10,18,2.015,"Left",10,18,8,0,8,8,0,0,-8
"2",1,"RAC2-RAC3",0.0225993375,-0.0013722355,-0.107064313,-0.1113627701,0.0720158119,0.100363988,0.010760958,0.0090049145,0.0798113325,0.049249567,0.070157037,0.178127895,2169,"DG_s11",-0.61,0,2.015,2.031,10,10,10,18,2.015,"Left",10,18,8,0,8,8,0,0,-8
"3",1,"RAM5-RAM6",0.1131410968,0.1885275658,0.3581525638,0.4566928698,0.2743091108,0.0913270613,0.1328731323,0.1556495158,0.1101853938,-0.001564552,-0.04585408,0.0676244288,2169,"DG_s11",-0.61,0,2.015,2.031,10,10,10,18,2.015,"Left",10,18,8,0,8,8,0,0,-8
"4",1,"RIN2-RIN3",0.0791050585,-0.0727717255,-0.0399080145,0.0391528095,0.0820230421,0.0685086921,0.2303892815,0.2365748015,0.000620009499999991,0.0080270715,-0.0645514185,-0.0560283513,2169,"DG_s11",-0.61,0,2.015,2.031,10,10,10,18,2.015,"Left",10,18,8,0,8,8,0,0,-8
"5",1,"RIN1-RIN2",-0.05942777165,-0.00695326565,0.21752438435,0.21903134835,0.06631285135,0.06550185135,0.17903898035,0.02709545035,-0.11293281565,-0.06841060335,-0.16103736035,-0.25252926465,2169,"DG_s11",-0.61,0,2.015,2.031,10,10,10,18,2.015,"Left",10,18,8,0,8,8,0,0,-8
"6",1,"LIN6-LIN7",0.2490485845,-0.0119503945,-0.1296415127,-0.2008510237,-0.2648265245,-0.0431262445,0.1656541575,0.1675684612,0.3056383212,0.2885791675,0.0369275255,-0.0602860755,2169,"DG_s11",-0.61,0,2.015,2.031,10,10,10,18,2.015,"Left",10,18,8,0,8,8,0,0,-8
"7",1,"ROF5-ROF6",-0.09563751275,-0.28240785575,-0.10222796205,0.13118694795,0.14411700425,0.11004903225,0.21075108225,0.33259874425,0.14175117825,0.31536082125,0.31840297725,-0.12240394575,2169,"DG_s11",-0.61,0,2.015,2.031,10,10,10,18,2.015,"Left",10,18,8,0,8,8,0,0,-8
"8",1,"RAC5-RAC6",-0.113923008,-0.163411926,-0.046358451,0.070613171,0.00254223000000001,-0.196925184,-0.303059458,-0.118439468,-0.114013099,-0.188098119,-0.152872524,-0.111059604,2169,"DG_s11",-0.61,0,2.015,2.031,10,10,10,18,2.015,"Left",10,18,8,0,8,8,0,0,-8
"9",1,"RTH6-RTH7",-0.1113453688,-0.2005052638,-0.2437525098,-0.2290720858,-0.0846512348,0.2042548152,0.1048614342,-0.0419513498,0.0692779362,-0.0375361008,0.0131031292,-0.0071314228,2169,"DG_s11",-0.61,0,2.015,2.031,10,10,10,18,2.015,"Left",10,18,8,0,8,8,0,0,-8
"10",1,"RIN6-RIN7",-0.29977854285,-0.30209377085,-0.27040424875,-0.16279914775,-0.000738320850000029,0.18892576815,0.54438822315,0.50766154315,-0.00805755685000004,-0.10247977285,0.00135839714999997,0.12039716315,2169,"DG_s11",-0.61,0,2.015,2.031,10,10,10,18,2.015,"Left",10,18,8,0,8,8,0,0,-8
"11",1,"LOF4-LOF5",-0.136707946,0.01054265,-0.08599448,0.052951396,0.091430429,-0.035676547,0.063428332,0.078451239,0.018587871,-0.154523378,-0.0750472171,0.1165403749,2169,"DG_s11",-0.61,0,2.015,2.031,10,10,10,18,2.015,"Left",10,18,8,0,8,8,0,0,-8
"12",1,"RIN7-RIN8",0.11091865715,-0.03067667085,0.02510808015,0.20568611315,0.51938648315,0.36183633715,0.24651553715,0.55383195815,0.56933900795,0.44371020795,0.24360146515,0.03816732615,2169,"DG_s11",-0.61,0,2.015,2.031,10,10,10,18,2.015,"Left",10,18,8,0,8,8,0,0,-8
"13",1,"RAM9-RAM10",-0.170001734,-0.079863954,-0.195374232,-0.0812136823,-0.000896582300000004,-0.113226569,-0.074306721,0.058565376,0.189537338,0.189574278,0.268473878,0.260558105,2169,"DG_s11",-0.61,0,2.015,2.031,10,10,10,18,2.015,"Left",10,18,8,0,8,8,0,0,-8
"14",1,"LOF3-LOF4",0.196055536,0.235645381,0.403061924,0.084753561,-0.047052673,0.117651322,0.067492675,0.184059328,0.244877935,0.104049384,0.354708537,0.270262831,2169,"DG_s11",-0.61,0,2.015,2.031,10,10,10,18,2.015,"Left",10,18,8,0,8,8,0,0,-8
"15",1,"RHH9-RHH10",0.228126713775,-0.035691116225,-0.003663012225,0.036299145775,0.101721851775,0.230008876915,0.270223766915,0.174534700775,-0.002412328225,0.031389989775,0.027099501775,0.045124023775,2169,"DG_s11",-0.61,0,2.015,2.031,10,10,10,18,2.015,"Left",10,18,8,0,8,8,0,0,-8
"16",1,"RAC4-RAC5",0.0155606007,0.135101345,0.327331867,0.2338196265,0.1879317978,0.1777221103,0.170595365,0.267764875,0.127802085,0.027056784,0.04611985,0.076060646,2169,"DG_s11",-0.61,0,2.015,2.031,10,10,10,18,2.015,"Left",10,18,8,0,8,8,0,0,-8
"17",1,"RHH8-RHH9",-0.0184244565,0.0725873095,0.2057163355,0.1124477265,0.0063036765,-0.1610666435,-0.1731014103,0.0724764097,0.1899062695,0.0271917195,-0.1257531845,-0.2538653345,2169,"DG_s11",-0.61,0,2.015,2.031,10,10,10,18,2.015,"Left",10,18,8,0,8,8,0,0,-8
"18",1,"ROF3-ROF4",0.05464375545,-0.00344083055,-0.04980501555,-0.10854381955,0.04961758045,-0.10036643955,-0.18281687955,0.23028946045,0.09955601745,-0.26350801555,-0.04876157255,-0.01113311255,2169,"DG_s11",-0.61,0,2.015,2.031,10,10,10,18,2.015,"Left",10,18,8,0,8,8,0,0,-8
"19",1,"RAC1-RAC2",-0.12770614915,-0.09724269115,-0.12108124415,-0.16592264185,-0.10384002185,0.11821470885,0.04704518085,0.15016055085,0.17495882885,-0.04643028315,0.04272553785,0.25595392985,2169,"DG_s11",-0.61,0,2.015,2.031,10,10,10,18,2.015,"Left",10,18,8,0,8,8,0,0,-8
"20",1,"LIN8-LIN9",0.09106065546,0.07897948246,0.1618354035,0.2215863185,0.22266736146,0.33628499946,0.260515639346,0.126566409346,0.22602413946,0.03809590946,-0.09693400054,-0.00899047054,2169,"DG_s11",-0.61,0,2.015,2.031,10,10,10,18,2.015,"Left",10,18,8,0,8,8,0,0,-8
"21",1,"RTH8-RTH9",0.440144996,0.36122232122,0.41732066492,0.4877142897,0.441913755,0.495817895,0.281345005,-0.011118983,0.029821697,0.0942394669,0.1297219939,0.163295617,2169,"DG_s11",-0.61,0,2.015,2.031,10,10,10,18,2.015,"Left",10,18,8,0,8,8,0,0,-8
"22",1,"LIN7-LIN8",-0.3730103445,-0.1709708025,-0.1717487205,-0.2011649655,-0.2126743395,-0.3031583735,-0.4733728215,-0.4424035225,-0.2935144685,-0.3305707605,-0.5522520945,-0.7711038335,2169,"DG_s11",-0.61,0,2.015,2.031,10,10,10,18,2.015,"Left",10,18,8,0,8,8,0,0,-8
"23",1,"RAM7-RAM8",0.118975624,-0.022443594,-0.127336426,0.087865439,0.225051999,0.109513841,0.174127521,0.088730563,0.011794503,-0.099192141,-0.168443741,0.18421080036,2169,"DG_s11",-0.61,0,2.015,2.031,10,10,10,18,2.015,"Left",10,18,8,0,8,8,0,0,-8
"24",1,"RTH7-RTH8",0.0529562334,0.1358260094,0.1937730394,0.1343032434,0.0150287604,0.1734829264,0.1897252494,-0.0211742606,-0.1120830156,0.0034770814,0.0279879924,-0.0251188116,2169,"DG_s11",-0.61,0,2.015,2.031,10,10,10,18,2.015,"Left",10,18,8,0,8,8,0,0,-8
"25",1,"LOF2-LOF3",-0.3457219065,-0.2436176385,-0.4282848285,-0.5626498285,-0.3979989045,-0.2843449315,-0.2001145755,-0.0435132085,0.0334525315,-0.1131388945,-0.2947295555,-0.1966074995,2169,"DG_s11",-0.61,0,2.015,2.031,10,10,10,18,2.015,"Left",10,18,8,0,8,8,0,0,-8
"26",1,"ROF4-ROF5",0.0676681802,0.0896739067,0.3237985627,0.3833291498,0.2799966458,0.3372682818,0.2227160848,0.0504744648,0.1381402958,0.2041156598,0.3504968898,0.3204002208,2169,"DG_s11",-0.61,0,2.015,2.031,10,10,10,18,2.015,"Left",10,18,8,0,8,8,0,0,-8
"27",1,"RHH7-RHH8",-0.043808646,0.072977179,0.186563992,0.211534947,0.207895717,0.146027497,-0.0076017422,0.0583043938,0.28447656,0.333254872,0.110235897,-0.201277461,2169,"DG_s11",-0.61,0,2.015,2.031,10,10,10,18,2.015,"Left",10,18,8,0,8,8,0,0,-8
"28",1,"LOF5-LOF6",0.1571027898,0.2157995358,0.1118966988,0.1444347858,0.1687298736,0.0286122906,0.0849913168,-0.0593297832,-0.1907772202,0.0286971088,0.1308873098,-0.0549359562,2169,"DG_s11",-0.61,0,2.015,2.031,10,10,10,18,2.015,"Left",10,18,8,0,8,8,0,0,-8
"29",1,"RAC3-RAC4",0.2755102087,0.2345471287,0.1867954787,0.0960679647,0.2290087347,0.1474304637,-0.000847557299999996,0.1440048237,0.1036858857,0.3288030697,0.3824249027,0.2080906547,2169,"DG_s11",-0.61,0,2.015,2.031,10,10,10,18,2.015,"Left",10,18,8,0,8,8,0,0,-8
"30",1,"RAM6-RAM7",0.1986193325,0.0996358675,0.1330657235,0.3553920155,0.3728125325,0.1650232325,0.1984058055,0.2415708405,-0.0125010495,0.0949092955,0.2228350055,0.1000883075,2169,"DG_s11",-0.61,0,2.015,2.031,10,10,10,18,2.015,"Left",10,18,8,0,8,8,0,0,-8
"31",1,"RTH5-RTH6",-0.195338775,-0.1515927109,-0.1144363789,-0.001697471,0.174674015,0.322558997,0.2543258176,0.2231275176,0.371874519,0.315641249,0.314988529,0.196213929,2169,"DG_s11",-0.61,0,2.015,2.031,10,10,10,18,2.015,"Left",10,18,8,0,8,8,0,0,-8
"32",1,"RAC6-RAC7",0.05387942405,-0.00677215695,-0.22961076175,-0.10352577175,0.02324040725,0.13205421725,0.19823609825,0.19557636825,0.15816762525,-0.06568785005,-0.08769395205,0.08626828325,2169,"DG_s11",-0.61,0,2.015,2.031,10,10,10,18,2.015,"Left",10,18,8,0,8,8,0,0,-8
"33",2,"RHH8-RHH9",0.02996937535,-0.08053103465,-0.05825664065,0.08138085465,-0.10953744735,-0.25256701965,-0.09352585565,0.10650897135,0.05800329735,0.06798504335,0.16534664935,0.09898287635,2170,"DG_s11",3.031,3.64,4.797,4.812,12,12,10,10,1.157,"Left",12,12,0,0,0,0,0,2,2
"34",2,"RAC2-RAC3",-0.156004439685,-0.166867429685,-0.126630768685,0.073230975315,0.147378464315,0.052879463315,0.005870083315,0.006921358315,-0.187338441685,-0.187331856685,-0.039074889285,0.108822537715,2170,"DG_s11",3.031,3.64,4.797,4.812,12,12,10,10,1.157,"Left",12,12,0,0,0,0,0,2,2
"35",2,"RAM7-RAM8",-0.0404194245,-0.0267893125,-0.0617195645,0.0121781425,0.1488098225,0.4777248335,0.6311651935,0.1012500723,-0.3063479577,-0.3158200665,-0.2489648965,0.0361112149,2170,"DG_s11",3.031,3.64,4.797,4.812,12,12,10,10,1.157,"Left",12,12,0,0,0,0,0,2,2
"36",2,"RHH7-RHH8",0.117830887,-0.0252269303,-0.1309125103,-0.08364947335,-0.21822223335,-0.224460479,-0.247605379,-0.079238119,0.146576038,0.2171782847,0.0991490007,-0.098821109,2170,"DG_s11",3.031,3.64,4.797,4.812,12,12,10,10,1.157,"Left",12,12,0,0,0,0,0,2,2
"37",2,"RTH8-RTH9",0.060753452,0.217223912,0.001689252,-0.006302332,0.033544146,-0.003560243,0.296480119,0.39199395,0.1996453891,0.0502750458,-0.0917575393,-0.121903426,2170,"DG_s11",3.031,3.64,4.797,4.812,12,12,10,10,1.157,"Left",12,12,0,0,0,0,0,2,2
"38",2,"ROF3-ROF4",-0.14968607975,-0.16353334215,-0.03520968215,0.16655738685,0.28386753685,0.05685419885,-0.10006362355,0.03021161445,0.03785901115,0.03570448555,0.05013856325,0.06234552885,2170,"DG_s11",3.031,3.64,4.797,4.812,12,12,10,10,1.157,"Left",12,12,0,0,0,0,0,2,2
"39",2,"RAM6-RAM7",0.072834765799,0.005553216799,-0.0628047512,-0.0423890842,0.03209254,0.05477312,0.16658175,0.146986045,0.201728525,0.33230667,0.29748703,0.289055811,2170,"DG_s11",3.031,3.64,4.797,4.812,12,12,10,10,1.157,"Left",12,12,0,0,0,0,0,2,2
"40",2,"LIN7-LIN8",0.1968694386,0.2352900486,0.2108608576,0.1352044076,0.0903750726,0.012695102,0.277917324,0.4069188046,0.2061558176,0.1222927896,0.1166275756,0.0509849816,2170,"DG_s11",3.031,3.64,4.797,4.812,12,12,10,10,1.157,"Left",12,12,0,0,0,0,0,2,2
"41",2,"RAC1-RAC2",-0.0530800751,-0.2159880951,-0.1571536115,-0.2156883475,-0.2633846475,-0.2709542175,-0.1789789035,-0.0109116545,0.0353825915,0.0135669285,0.0339558365,0.0122132965,2170,"DG_s11",3.031,3.64,4.797,4.812,12,12,10,10,1.157,"Left",12,12,0,0,0,0,0,2,2
"42",2,"LIN8-LIN9",0.0098493875,-0.0962750765,-0.1393528145,0.0426658165,0.2226941975,-0.0580167825,-0.3988219825,-0.4300451625,-0.1128512195,0.0820728135,-0.1182225315,-0.0273049405,2170,"DG_s11",3.031,3.64,4.797,4.812,12,12,10,10,1.157,"Left",12,12,0,0,0,0,0,2,2
"43",2,"RTH5-RTH6",-0.0242719812,-0.0485215812,0.0580967988,0.0899526038,0.0790140978,0.1410034408,0.2089714388,0.1105406288,-0.0715840522,-0.0997384452,-0.0073020502,0.0548189218,2170,"DG_s11",3.031,3.64,4.797,4.812,12,12,10,10,1.157,"Left",12,12,0,0,0,0,0,2,2
"44",2,"ROF1-ROF2",0.17856491874,0.18871509874,-0.09775137476,-0.25522796376,-0.14621469586,-0.14640389586,-0.16683176026,-0.03488427626,0.10290254374,0.26865484974,0.20892555454,0.17727388854,2170,"DG_s11",3.031,3.64,4.797,4.812,12,12,10,10,1.157,"Left",12,12,0,0,0,0,0,2,2
"45",2,"RAC5-RAC6",0.135402718,-0.063064519,-0.054721254,-0.069451397,-0.1173839443,-0.0052828599,0.0625435314,0.0858277175,0.0568659255,0.005426462,0.178606957,0.229381795,2170,"DG_s11",3.031,3.64,4.797,4.812,12,12,10,10,1.157,"Left",12,12,0,0,0,0,0,2,2
"46",2,"ROF4-ROF5",-0.06155220075,0.29285886385,0.50176242885,0.44766172885,0.48586062885,0.28243792285,-0.09370769715,-0.17265733915,0.02661460585,0.21667788385,0.00939805885,-0.36653417115,2170,"DG_s11",3.031,3.64,4.797,4.812,12,12,10,10,1.157,"Left",12,12,0,0,0,0,0,2,2
"47",2,"RIN6-RIN7",-0.1022192285,-0.0290843481,0.0585691639,-0.0302401565,0.0059575035,0.0816256495,0.2055209895,0.2059620166,0.2305410266,0.3654396935,0.3713184935,0.2306929235,2170,"DG_s11",3.031,3.64,4.797,4.812,12,12,10,10,1.157,"Left",12,12,0,0,0,0,0,2,2
"48",2,"RAC3-RAC4",-0.01765700715,-0.04857484415,0.07269326185,0.05864156085,-0.19928062415,-0.13835253515,0.09878263485,0.10513851585,0.07758128685,0.24953785185,0.31875285285,0.00559594285,2170,"DG_s11",3.031,3.64,4.797,4.812,12,12,10,10,1.157,"Left",12,12,0,0,0,0,0,2,2
"49",2,"LIN6-LIN7",0.4722928896,0.3904415896,0.4802945375,0.4116660375,0.3461683975,0.2619532085,0.07378465621,0.00485828420999999,0.1355575375,0.1099773763,0.0326796153,-0.0401719805,2170,"DG_s11",3.031,3.64,4.797,4.812,12,12,10,10,1.157,"Left",12,12,0,0,0,0,0,2,2
"50",2,"ROF5-ROF6",-0.074466857,0.085270041,0.137833753,-0.041112117,0.022609708,0.042034998,-0.007160053,-0.0531253321,0.0064309369,0.1890127,0.256385242,0.088767225,2170,"DG_s11",3.031,3.64,4.797,4.812,12,12,10,10,1.157,"Left",12,12,0,0,0,0,0,2,2
"51",2,"RAC4-RAC5",0.1004859201,0.081332549,-0.052621326,-0.20393549,-0.192905103,-0.005986428,0.22742994,0.1924463,0.153631335,0.3378722,0.372930605,0.146367685,2170,"DG_s11",3.031,3.64,4.797,4.812,12,12,10,10,1.157,"Left",12,12,0,0,0,0,0,2,2
"52",2,"RIN2-RIN3",-0.0446855624,-0.0279186476,0.1624635974,0.3223452526,0.0715360216,0.0319709616,0.1982561626,0.00829984660000001,-0.2106474204,-0.0346484144,0.00990301160000001,-0.0710966414,2170,"DG_s11",3.031,3.64,4.797,4.812,12,12,10,10,1.157,"Left",12,12,0,0,0,0,0,2,2
"53",2,"LOF3-LOF4",-0.3652533775,-0.0144495055,0.1317047945,0.0179727425,-0.2322161615,-0.2593658262,-0.2450882162,-0.1992720575,-0.1966326005,-0.2189994565,0.0326362565,0.3234362055,2170,"DG_s11",3.031,3.64,4.797,4.812,12,12,10,10,1.157,"Left",12,12,0,0,0,0,0,2,2
"54",2,"LOF4-LOF5",0.294552026,0.1670578081,0.2979906231,0.223855142,0.013481646,0.000502556000000001,-0.064229778,0.166565047,0.286189555,0.2637028801,0.4141751721,0.444517119,2170,"DG_s11",3.031,3.64,4.797,4.812,12,12,10,10,1.157,"Left",12,12,0,0,0,0,0,2,2
"55",2,"RHH9-RHH10",-0.0432810278,0.0254097175,-0.2473795455,-0.2762747733,-0.0844650331,-0.0718483163,-0.0809631513,-0.1398454093,-0.2396795745,-0.2609659239,-0.1152972939,0.0148991325,2170,"DG_s11",3.031,3.64,4.797,4.812,12,12,10,10,1.157,"Left",12,12,0,0,0,0,0,2,2
"56",2,"RIN7-RIN8",-0.1010615345,-0.0547484485,0.2200306105,0.1570292705,0.1727000465,0.2304114355,0.1145728955,0.0551781765,0.0077774565,0.4639560265,0.5602759665,0.2150483575,2170,"DG_s11",3.031,3.64,4.797,4.812,12,12,10,10,1.157,"Left",12,12,0,0,0,0,0,2,2
"57",2,"RTH7-RTH8",-0.00752898314799999,0.020973924852,0.016237985852,0.024053565852,0.060311418852,-0.004327130148,-0.073426950148,0.062905247852,0.271016977852,0.111587238852,-0.151020671148,-0.110704406148,2170,"DG_s11",3.031,3.64,4.797,4.812,12,12,10,10,1.157,"Left",12,12,0,0,0,0,0,2,2
"58",2,"RTH6-RTH7",-0.0882749485,0.0622514435,0.0291224255,-0.0721075945,-0.0568761865,-0.193030641,-0.133473181,0.0600725155,-0.0956088345,-0.1230379735,-0.1207277135,-0.0570552475,2170,"DG_s11",3.031,3.64,4.797,4.812,12,12,10,10,1.157,"Left",12,12,0,0,0,0,0,2,2
"59",2,"RAM9-RAM10",0.055776012,-0.226626288,-0.131895041,-0.108843787,-0.196114434,-0.085971714,0.031898456,-0.032624774,0.0032878563,0.0715446253,0.177737499,0.415599331,2170,"DG_s11",3.031,3.64,4.797,4.812,12,12,10,10,1.157,"Left",12,12,0,0,0,0,0,2,2
"60",2,"RIN1-RIN2",0.1252566785,0.1301919225,0.1205093952,0.2315695232,0.2238683555,0.1237423395,0.1272845735,0.1132660225,0.1054308025,0.2652639235,0.1860283325,0.1414940915,2170,"DG_s11",3.031,3.64,4.797,4.812,12,12,10,10,1.157,"Left",12,12,0,0,0,0,0,2,2
"61",2,"RAC6-RAC7",0.1685861449,0.1032327289,0.03650557041,-0.06344973159,-0.0775669431,0.00817571290000001,-0.1006708411,0.0592243399,0.3636652839,0.5122123969,0.3674211569,0.1675423269,2170,"DG_s11",3.031,3.64,4.797,4.812,12,12,10,10,1.157,"Left",12,12,0,0,0,0,0,2,2
"62",2,"RAM5-RAM6",-0.2238117915,-0.28919131825,-0.38470685425,-0.21663408425,-0.18024189325,-0.34065216255,-0.36718227255,-0.22903029917,-0.17279010517,-0.08531387325,-0.09456363225,-0.40936816825,2170,"DG_s11",3.031,3.64,4.797,4.812,12,12,10,10,1.157,"Left",12,12,0,0,0,0,0,2,2
"63",2,"LOF5-LOF6",0.05000308,0.213987228,0.185185143,-0.166159031,-0.224124285,-0.071864551,0.082050603,0.0149623529,0.1301781279,0.096536218,-0.033975883,0.189791217,2170,"DG_s11",3.031,3.64,4.797,4.812,12,12,10,10,1.157,"Left",12,12,0,0,0,0,0,2,2
"64",2,"LOF2-LOF3",-0.3813542674,-0.1912955224,-0.1368990634,-0.2313835564,-0.0172514574,-0.00136264860000002,-0.2634738096,-0.3637360754,-0.3302118674,-0.3810715034,-0.2812243134,0.0292976996,2170,"DG_s11",3.031,3.64,4.797,4.812,12,12,10,10,1.157,"Left",12,12,0,0,0,0,0,2,2
"65",3,"RAC2-RAC3",0.06574466585,0.18734823385,0.06265979185,-0.12993654915,0.03263909785,0.02168651385,-0.01370789515,0.01715715985,-0.000529098150000001,0.13983782185,0.19086630185,0.23732119185,2171,"DG_s11",5.812,6.422,7.89,7.89,10,10,8,8,1.468,"Left",8,8,0,0,0,0,0,2,2
"66",3,"LOF5-LOF6",0.12690729,0.2590254378,0.0578916068,0.124050665,0.1236895142,-0.0200470558,0.00232589700000001,0.184347647,0.269630556,0.058572526,0.066836836,-0.007836837,2171,"DG_s11",5.812,6.422,7.89,7.89,10,10,8,8,1.468,"Left",8,8,0,0,0,0,0,2,2
"67",3,"RAM5-RAM6",0.0170245377,0.0128547697,-0.0104448475,-0.0567629121,-0.1500912621,-0.0177057885,0.3221272405,0.2948348425,0.1201783615,0.0849199185,-0.0461304815,-0.0385765515,2171,"DG_s11",5.812,6.422,7.89,7.89,10,10,8,8,1.468,"Left",8,8,0,0,0,0,0,2,2
"68",3,"ROF1-ROF2",0.0816853122,0.046472078,0.114949367,0.36646611,0.1999172726,0.0620690186,0.375262476,0.326383139,0.274703792,0.150389984,-0.063767249,0.025605698,2171,"DG_s11",5.812,6.422,7.89,7.89,10,10,8,8,1.468,"Left",8,8,0,0,0,0,0,2,2
"69",3,"LIN8-LIN9",0.04268637395,0.14273149095,0.10685323095,0.22498585295,0.19113164165,-0.15130203625,-0.27126151805,-0.18228512015,-0.01874255005,-0.00531545805,0.04341801495,-0.04973635405,2171,"DG_s11",5.812,6.422,7.89,7.89,10,10,8,8,1.468,"Left",8,8,0,0,0,0,0,2,2
"70",3,"RTH5-RTH6",-0.1705288398,-0.0513697798,-0.158446591,-0.143174247,-0.144718453,-0.064171103,-0.137359291,-0.130528832,0.113178222,0.096170779,-0.032935491,-0.218394601,2171,"DG_s11",5.812,6.422,7.89,7.89,10,10,8,8,1.468,"Left",8,8,0,0,0,0,0,2,2
"71",3,"ROF3-ROF4",-0.04802632,-0.0460482779,-0.0259502729,0.0050087628,0.0492356688,0.112533577,0.024833481,-0.0172713319,0.0163261681,0.00659481,0.053715492,0.16288359,2171,"DG_s11",5.812,6.422,7.89,7.89,10,10,8,8,1.468,"Left",8,8,0,0,0,0,0,2,2
"72",3,"RIN2-RIN3",-0.2162105428,-0.0703350278,-0.0306940125,-0.13152446,-0.16678588,-0.1407766045,7.98686999999854e-05,-0.0429754393,-0.2251288132,-0.1313120812,-0.1188777415,-0.0643959355,2171,"DG_s11",5.812,6.422,7.89,7.89,10,10,8,8,1.468,"Left",8,8,0,0,0,0,0,2,2
"73",3,"RAC4-RAC5",0.181394927685,0.153670867185,-0.046792036915,0.061739326085,0.178584732785,0.085350684185,-0.073362235815,0.213099033785,0.311638300385,0.192240028485,0.319630351885,0.289315505885,2171,"DG_s11",5.812,6.422,7.89,7.89,10,10,8,8,1.468,"Left",8,8,0,0,0,0,0,2,2
"74",3,"LOF2-LOF3",-0.35483365834,-0.13093753154,0.0554628483,0.0016476795,-0.3687825915,-0.1475561335,0.1223606735,-0.1119638775,-0.26682663677,-0.33157376177,-0.3765363555,-0.2854185475,2171,"DG_s11",5.812,6.422,7.89,7.89,10,10,8,8,1.468,"Left",8,8,0,0,0,0,0,2,2
"75",3,"RAC1-RAC2",0.04233698995,0.00854611895,0.01841650095,0.31707644095,0.35312574195,-0.00057190905,0.08150013095,0.26119404495,0.13838014595,0.18277605295,0.20999840995,0.05689934195,2171,"DG_s11",5.812,6.422,7.89,7.89,10,10,8,8,1.468,"Left",8,8,0,0,0,0,0,2,2
"76",3,"RAM7-RAM8",0.24511010325,0.10872036705,0.04646509705,-0.15142858995,-0.14118240595,0.10650317305,-0.05918235895,-0.05132857375,0.07570342425,-0.04115306995,-0.00337334095,0.02616872015,2171,"DG_s11",5.812,6.422,7.89,7.89,10,10,8,8,1.468,"Left",8,8,0,0,0,0,0,2,2
"77",3,"LOF4-LOF5",-0.09054890825,-0.16170978625,-0.06007468525,0.03228470225,-0.03820276975,-0.03104474225,0.16829661075,0.20320313375,0.03615668045,-0.16019921355,-0.23462333225,-0.19617287625,2171,"DG_s11",5.812,6.422,7.89,7.89,10,10,8,8,1.468,"Left",8,8,0,0,0,0,0,2,2
"78",3,"LIN6-LIN7",-0.1874656255,-0.1592410545,-0.0440385528,-0.0135481128,-0.0057587205,0.0406901945,-0.0118293835,0.1076683485,0.1513693925,0.000802281500000002,0.10480056645,0.28269965645,2171,"DG_s11",5.812,6.422,7.89,7.89,10,10,8,8,1.468,"Left",8,8,0,0,0,0,0,2,2
"79",3,"RAC3-RAC4",0.0863684845,0.0801798855,0.2086525815,0.2020143275,0.1351416205,0.0289399405,0.0492085675,0.1928726975,0.1633224545,0.1541279065,0.1565678075,0.0821979255,2171,"DG_s11",5.812,6.422,7.89,7.89,10,10,8,8,1.468,"Left",8,8,0,0,0,0,0,2,2
"80",3,"ROF5-ROF6",-0.130864838,-0.147144477,-0.183577797,-0.279831555,-0.137902495,-0.104967336,-0.052889496,-0.00545004899999998,-0.148900305,-0.162918737,-0.028393861,0.055615392,2171,"DG_s11",5.812,6.422,7.89,7.89,10,10,8,8,1.468,"Left",8,8,0,0,0,0,0,2,2
"81",3,"RAM6-RAM7",-0.445632632,-0.293256302,-0.147424915,-0.130227826,-0.094432871,-0.246813969,-0.218165009,-0.08799173,-0.248791387,-0.129214167,-0.103748591,-0.308895682,2171,"DG_s11",5.812,6.422,7.89,7.89,10,10,8,8,1.468,"Left",8,8,0,0,0,0,0,2,2
"82",3,"RTH8-RTH9",-0.1816985385,-0.0810272355,-0.2169131285,-0.144576896,-0.1256905197,-0.2946724002,-0.2971517097,-0.2045749867,-0.1435136045,-0.0270055924,-0.1198281414,-0.1501731695,2171,"DG_s11",5.812,6.422,7.89,7.89,10,10,8,8,1.468,"Left",8,8,0,0,0,0,0,2,2
"83",3,"RHH9-RHH10",0.06364735785,0.18982945885,0.24731774985,0.16106478585,0.16177331865,0.31738340165,0.19885515085,-0.03801907015,-0.05521282915,-0.00660992815,0.03816253355,0.03122469855,2171,"DG_s11",5.812,6.422,7.89,7.89,10,10,8,8,1.468,"Left",8,8,0,0,0,0,0,2,2
"84",3,"ROF4-ROF5",-0.1388085657,-0.1007563557,0.00887257229999999,0.0742646253,0.0185125083,-0.1425739997,-0.0939216017,-0.1762502477,-0.3015284027,-0.1960749927,0.0541417643,0.0480502403,2171,"DG_s11",5.812,6.422,7.89,7.89,10,10,8,8,1.468,"Left",8,8,0,0,0,0,0,2,2
"85",3,"RTH7-RTH8",0.0364222927,0.1724634593,0.0936770993,0.0955220653,0.0335550353,-0.1511478347,-0.00927001470000001,0.2126526333,0.1243855633,-0.0135811637,0.1763073195,0.2260054487,2171,"DG_s11",5.812,6.422,7.89,7.89,10,10,8,8,1.468,"Left",8,8,0,0,0,0,0,2,2
"86",3,"RTH6-RTH7",0.321270821,0.254057003,0.031376203,0.050321,0.15355907,0.172571781,0.138883733,0.061518178,-0.0404011286,-0.1183514926,-0.042107326,-0.089161397,2171,"DG_s11",5.812,6.422,7.89,7.89,10,10,8,8,1.468,"Left",8,8,0,0,0,0,0,2,2
"87",3,"RIN1-RIN2",-0.1433673616,-0.2702472706,-0.2564620536,-0.1991651446,-0.2133268886,-0.1707060176,-0.2183472546,-0.2665599996,-0.0765027186,-0.00704578360000002,-0.0728308436,-0.1248965494,2171,"DG_s11",5.812,6.422,7.89,7.89,10,10,8,8,1.468,"Left",8,8,0,0,0,0,0,2,2
"88",3,"RIN7-RIN8",0.0793334285,0.2127752485,0.2873703365,0.1622440065,0.0827180025,0.0926689765,0.2117248445,0.1845730885,0.0752462539,0.0558438249,-0.0374425035,-0.0019293885,2171,"DG_s11",5.812,6.422,7.89,7.89,10,10,8,8,1.468,"Left",8,8,0,0,0,0,0,2,2
"89",3,"RAM9-RAM10",0.18739074135,0.29656417535,0.42085921935,0.23465999935,0.25077810535,0.27407836535,0.20027481535,0.15573070735,0.14560261315,0.27026242115,0.19950579335,-0.07457409665,2171,"DG_s11",5.812,6.422,7.89,7.89,10,10,8,8,1.468,"Left",8,8,0,0,0,0,0,2,2
"90",3,"LIN7-LIN8",-0.024821066,-0.042039944,0.0349248943,-0.0475871217,-0.185455183,-0.198597221,0.021705032,0.053607909,-0.018702624,0.128386896,0.123793846,0.114521507,2171,"DG_s11",5.812,6.422,7.89,7.89,10,10,8,8,1.468,"Left",8,8,0,0,0,0,0,2,2
"91",3,"RIN6-RIN7",0.101198187,0.386869218,0.4140525822,0.0608767425,0.1103836183,0.198476888,0.013646148,0.081355318,0.027170402,-0.075713251,-0.018041481,0.01924231,2171,"DG_s11",5.812,6.422,7.89,7.89,10,10,8,8,1.468,"Left",8,8,0,0,0,0,0,2,2
"92",3,"RAC6-RAC7",0.2489065065,0.6277206665,0.4062746755,0.1158258935,0.1656238645,0.3683649465,0.4128291165,0.3410170145,0.1131799915,0.1662030435,0.5600462165,0.5166526665,2171,"DG_s11",5.812,6.422,7.89,7.89,10,10,8,8,1.468,"Left",8,8,0,0,0,0,0,2,2
"93",3,"LOF3-LOF4",0.089911422,0.117444457,0.195328412,-0.059265265,-0.097850192,0.15439622,0.165448509,-0.04597073,-0.165824746,-0.082864053,0.090325638,0.170491584,2171,"DG_s11",5.812,6.422,7.89,7.89,10,10,8,8,1.468,"Left",8,8,0,0,0,0,0,2,2
"94",3,"RAC5-RAC6",0.2671213793,0.2297022913,0.1228980593,0.2510687153,0.1379922773,0.0744675853,0.1084125643,0.3700011053,0.3892470613,0.4428497413,0.5515341833,0.4144539733,2171,"DG_s11",5.812,6.422,7.89,7.89,10,10,8,8,1.468,"Left",8,8,0,0,0,0,0,2,2
"95",3,"RHH8-RHH9",0.272386086,0.276777895,0.492672021,0.380176264,0.032875264,-0.0977339119,-0.0927958119,-0.015223468,0.093050163,0.084137959,0.1925370748,0.3192057568,2171,"DG_s11",5.812,6.422,7.89,7.89,10,10,8,8,1.468,"Left",8,8,0,0,0,0,0,2,2
"96",3,"RHH7-RHH8",-0.00328310109999999,0.1777610855,0.4003886755,0.1832952475,0.01376696665,0.00119816465,-0.0114598895,0.0948444395,0.1257683325,0.1846012645,0.1654567925,-0.0141212485,2171,"DG_s11",5.812,6.422,7.89,7.89,10,10,8,8,1.468,"Left",8,8,0,0,0,0,0,2,2
"97",4,"RIN7-RIN8",-0.09874397955,-0.07099496605,0.14835616495,0.24778482345,0.05449796145,0.13037505645,0.07248467345,-0.16086721055,0.06628947945,0.24387694145,0.37930599145,0.53279230645,2172,"DG_s11",8.89,9.5,10.922,10.922,10,10,28,4,1.422,"Right",28,4,24,0,24,0,-24,-18,6
"98",4,"RHH7-RHH8",-0.0993009145,-0.0545418475,-0.1786788575,-0.1130433795,-0.0204792715,-0.0872802936,0.0083875704,-0.0344339455,-0.1259641535,-0.1126288605,0.1566823155,0.2610095935,2172,"DG_s11",8.89,9.5,10.922,10.922,10,10,28,4,1.422,"Right",28,4,24,0,24,0,-24,-18,6
"99",4,"RTH8-RTH9",-0.0862535428,0.0194978522,0.0462752655,-0.0116382455,0.000646536499999999,-0.2110034445,-0.2190929145,0.0720220555,0.000944552499999998,-0.1470023275,-0.0362272675,-0.0143632185,2172,"DG_s11",8.89,9.5,10.922,10.922,10,10,28,4,1.422,"Right",28,4,24,0,24,0,-24,-18,6
"100",4,"RIN2-RIN3",0.093551929,-0.013126511,0.087620553,0.0697992681,-0.0515125799,-0.132029235,-0.0963769286,0.1956055204,0.087912286,-0.122572728,0.0484527133,0.2442560283,2172,"DG_s11",8.89,9.5,10.922,10.922,10,10,28,4,1.422,"Right",28,4,24,0,24,0,-24,-18,6
"101",4,"RAM9-RAM10",-0.1182993909,-0.021763999,0.030778076,-0.1337675945,-0.1128641355,0.145287094,0.187967989,0.0186527588,-0.1202206842,-0.002832237,0.138691361,0.077727801,2172,"DG_s11",8.89,9.5,10.922,10.922,10,10,28,4,1.422,"Right",28,4,24,0,24,0,-24,-18,6
"102",4,"RAC6-RAC7",-0.1700271545,-0.0702719195,0.0168866065,0.1320316385,0.2536302614,0.0256867344,-0.0860349045,-0.0143058645,0.0444128675,-0.0042995195,0.0781709585,0.1304343275,2172,"DG_s11",8.89,9.5,10.922,10.922,10,10,28,4,1.422,"Right",28,4,24,0,24,0,-24,-18,6
"103",4,"RIN6-RIN7",0.0055130325,0.0325767475,0.1671680395,0.33710865581,0.41041644581,0.2700360645,0.1733303615,0.1556773765,0.1729166495,0.3196720495,0.1869322485,0.23118173844,2172,"DG_s11",8.89,9.5,10.922,10.922,10,10,28,4,1.422,"Right",28,4,24,0,24,0,-24,-18,6
"104",4,"RAM6-RAM7",-0.064520562,0.069210608,0.121112769,-0.0300183482,-0.1253281902,-0.233256587,-0.136691065,-0.03859283,-0.10531245,-0.085852548,-0.115368622,-0.157511118,2172,"DG_s11",8.89,9.5,10.922,10.922,10,10,28,4,1.422,"Right",28,4,24,0,24,0,-24,-18,6
"105",4,"RAC3-RAC4",0.0075019115,0.1130021585,0.0274032385,-0.0227962345,-0.0262924905,-0.0482235125,0.1925047705,0.2873198255,0.0779321885,-0.1556859965,-0.1766043825,-0.0614905135,2172,"DG_s11",8.89,9.5,10.922,10.922,10,10,28,4,1.422,"Right",28,4,24,0,24,0,-24,-18,6
"106",4,"RTH7-RTH8",-0.14112583685,-0.11069107385,-0.00584431685,-0.02304102665,-0.12473785465,-0.09215567585,-0.12903197685,-0.06000671685,0.04487757815,-0.15826386885,-0.14768146285,-0.16506265095,2172,"DG_s11",8.89,9.5,10.922,10.922,10,10,28,4,1.422,"Right",28,4,24,0,24,0,-24,-18,6
"107",4,"RAC4-RAC5",-0.228709045,-0.396354645,-0.3362118641,-0.2081637896,-0.2914680925,-0.237835517,-0.064563445,-0.117459075,-0.143178065,-0.117923701,-0.093900572,-0.093131523,2172,"DG_s11",8.89,9.5,10.922,10.922,10,10,28,4,1.422,"Right",28,4,24,0,24,0,-24,-18,6
"108",4,"RAC2-RAC3",-0.19692839345,-0.16745427445,-0.01330680745,-0.18342713345,-0.36187728745,-0.43777766245,-0.39722623845,-0.26174327225,-0.19936731825,-0.22102039345,-0.24781638245,-0.29814171245,2172,"DG_s11",8.89,9.5,10.922,10.922,10,10,28,4,1.422,"Right",28,4,24,0,24,0,-24,-18,6
"109",4,"LOF5-LOF6",-0.1107545215,-0.1359479895,-0.1273372575,-0.1478437424,-0.1264914634,0.0346694265,-0.0517218355,-0.2622046705,-0.0711439055,-0.0286692455,-0.0103155085,0.2020235215,2172,"DG_s11",8.89,9.5,10.922,10.922,10,10,28,4,1.422,"Right",28,4,24,0,24,0,-24,-18,6
"110",4,"RAM7-RAM8",-0.3721360465,-0.2247650465,0.1740056595,0.2445679355,-0.00912418450000002,-0.1189821255,-0.1723710355,-0.20971310306,-0.22254969606,-0.1634898535,-0.1936737875,-0.2514328538,2172,"DG_s11",8.89,9.5,10.922,10.922,10,10,28,4,1.422,"Right",28,4,24,0,24,0,-24,-18,6
"111",4,"ROF3-ROF4",0.1205295625,-0.0980543505,-0.1820007925,0.0533116665,0.0416513275,-0.1007396985,0.0763948435,0.0764951625,-0.1171932645,0.0390563195,0.1435950865,0.0930432555,2172,"DG_s11",8.89,9.5,10.922,10.922,10,10,28,4,1.422,"Right",28,4,24,0,24,0,-24,-18,6
"112",4,"RHH9-RHH10",-0.1071739801,-0.123393063,-0.159837199,-0.080323637,-0.0146324072,-0.1111813952,0.005631646,0.204493272,0.009942237,0.020899781,0.147688023,-0.118490031,2172,"DG_s11",8.89,9.5,10.922,10.922,10,10,28,4,1.422,"Right",28,4,24,0,24,0,-24,-18,6
"113",4,"RTH6-RTH7",-0.1350708868,-0.0746995494,-0.1046945394,-0.1614108695,-0.1435660637,-0.1309109896,-0.3261577054,-0.1214902384,-0.0023306344,-0.10169833279,-0.09101880179,-0.2999423134,2172,"DG_s11",8.89,9.5,10.922,10.922,10,10,28,4,1.422,"Right",28,4,24,0,24,0,-24,-18,6
"114",4,"LIN6-LIN7",0.0145951751,-0.1478791209,-0.0886190409,-0.0459787409,-0.0269105479,0.0483509178,-0.1214240272,-0.2609593429,-0.2157498049,-0.0514226049,0.1179665191,0.0734066119,2172,"DG_s11",8.89,9.5,10.922,10.922,10,10,28,4,1.422,"Right",28,4,24,0,24,0,-24,-18,6
"115",4,"LOF2-LOF3",0.010498642,-0.00214452799999999,0.035435679,0.137721565,0.074150295,0.379159139,0.306300755,-0.0418377405,-0.0806718035,0.070502289,0.131495270624,0.187002456824,2172,"DG_s11",8.89,9.5,10.922,10.922,10,10,28,4,1.422,"Right",28,4,24,0,24,0,-24,-18,6
"116",4,"RAC5-RAC6",-0.193812047,-0.320877591,-0.194826642,0.085229124,-0.015506456,-0.150079005,-0.167890449,-0.168436671,-0.055835976,-0.066188755,-0.1198344794,-0.1723043554,2172,"DG_s11",8.89,9.5,10.922,10.922,10,10,28,4,1.422,"Right",28,4,24,0,24,0,-24,-18,6
"117",4,"RAM5-RAM6",0.05843038625,0.07922689025,0.19661796725,0.11043488525,-0.02555060075,0.07555109925,0.21542101625,0.23528186125,0.03289769025,-0.06682304175,0.12823880825,0.05433479725,2172,"DG_s11",8.89,9.5,10.922,10.922,10,10,28,4,1.422,"Right",28,4,24,0,24,0,-24,-18,6
"118",4,"LIN8-LIN9",-0.0465145755,-0.1446372615,-0.1201451315,-0.0754028255,-0.0956624215,-0.1120472005,-0.0315419658,-0.05694240539,-0.08665970809,-0.1036368345,-0.2102734715,-0.2105622555,2172,"DG_s11",8.89,9.5,10.922,10.922,10,10,28,4,1.422,"Right",28,4,24,0,24,0,-24,-18,6
"119",4,"ROF1-ROF2",-0.157804297,0.00417312,0.140254046,0.129390079,0.170489369,0.273838449,0.170866508,-0.089890428,0.020121922,0.2970397928,0.1159217728,-0.047012956,2172,"DG_s11",8.89,9.5,10.922,10.922,10,10,28,4,1.422,"Right",28,4,24,0,24,0,-24,-18,6
"120",4,"LOF4-LOF5",-0.0672555059,0.1002619611,0.000300562599999998,-0.1020184944,-0.0681931029,-0.0426652129,-0.1449458559,-0.1522041819,-0.0132757629,-0.0412347946,-0.1593313546,-0.2144043369,2172,"DG_s11",8.89,9.5,10.922,10.922,10,10,28,4,1.422,"Right",28,4,24,0,24,0,-24,-18,6
"121",4,"RHH8-RHH9",-0.08798604175,-0.08032142595,0.05131393305,-0.02103459475,-0.01613978275,0.00297016025,0.06154060925,0.12311838225,0.08995069625,-0.00656334675,0.16891682735,0.23210839035,2172,"DG_s11",8.89,9.5,10.922,10.922,10,10,28,4,1.422,"Right",28,4,24,0,24,0,-24,-18,6
"122",4,"RIN1-RIN2",-0.1774597116,-0.04727446256,-0.10366265156,-0.0690315996,-0.1268164506,-0.1584290166,-0.0328677766,0.0330877374,-0.1420627726,-0.2569620616,-0.0987329396,0.0302750964,2172,"DG_s11",8.89,9.5,10.922,10.922,10,10,28,4,1.422,"Right",28,4,24,0,24,0,-24,-18,6
"123",4,"ROF4-ROF5",0.0265429193,-0.0988823209,0.0222943748,0.06668689,-0.22735394,-0.250924224,-0.011721946,0.174204873,0.061830593,-0.223492607,-0.387338715,-0.3419171604,2172,"DG_s11",8.89,9.5,10.922,10.922,10,10,28,4,1.422,"Right",28,4,24,0,24,0,-24,-18,6
"124",4,"ROF5-ROF6",-0.32074147345,-0.20305792165,-0.22914100165,-0.22575185645,-0.25160176645,-0.38766231745,-0.29030536845,-0.32827985945,-0.11190628845,0.01433501655,-0.21304702239,-0.15102715839,2172,"DG_s11",8.89,9.5,10.922,10.922,10,10,28,4,1.422,"Right",28,4,24,0,24,0,-24,-18,6
"125",4,"LIN7-LIN8",-0.012401556,0.230665664,0.208021294,0.109686478,0.107078888,0.017662385,-0.116504793,-0.100607718,0.054109283,0.038297766,-0.138714847,-0.2126988749,2172,"DG_s11",8.89,9.5,10.922,10.922,10,10,28,4,1.422,"Right",28,4,24,0,24,0,-24,-18,6
"126",4,"RTH5-RTH6",-0.062970067525,-0.017600539525,0.00505347647499998,-0.00388953352500002,-0.167984057525,-0.304305623525,-0.330039624525,-0.094961378525,0.115550111475,-0.049138001525,-0.105642888525,-0.123051562525,2172,"DG_s11",8.89,9.5,10.922,10.922,10,10,28,4,1.422,"Right",28,4,24,0,24,0,-24,-18,6
"127",4,"LOF3-LOF4",0.00795321100000002,0.052115466,0.109011847,-0.021278974,-0.025548624,-0.036343951,-0.247961981,-0.2596142042,-0.1460946562,-0.064155298,0.007276696,0.01536621546,2172,"DG_s11",8.89,9.5,10.922,10.922,10,10,28,4,1.422,"Right",28,4,24,0,24,0,-24,-18,6
"128",4,"RAC1-RAC2",0.1889475645,-0.0757768255,-0.2416703055,-0.2493995755,-0.2210933255,-0.2755438555,-0.1613442615,-0.0105111309,-0.0383627949,0.00216723549999999,-0.0125263357,-0.0516246847,2172,"DG_s11",8.89,9.5,10.922,10.922,10,10,28,4,1.422,"Right",28,4,24,0,24,0,-24,-18,6
"129",5,"LOF2-LOF3",-0.1173162558,-0.1826398228,-0.03635377,0.182311629,0.225615807,0.043696497,-0.043049631,0.054306549,0.074498092,0.105538369,0.174690034,0.0515671942,2173,"DG_s11",11.922,12.531,13.968,13.968,10,10,22,6,1.437,"Left",22,6,16,0,16,0,-16,-12,4
"130",5,"RIN2-RIN3",0.15717903255,0.25207924425,0.23578199325,0.20599295925,0.14861059825,0.12798686325,0.13209244725,0.12032922935,0.11472698465,0.06006399055,0.01801169535,0.33170295335,2173,"DG_s11",11.922,12.531,13.968,13.968,10,10,22,6,1.437,"Left",22,6,16,0,16,0,-16,-12,4
"131",5,"LOF5-LOF6",0.148297007,-0.02012719,-0.047951508,-0.056869962,-0.096506155,0.199173941,0.199480572,0.004603019,-0.073623519,-0.131125915,-0.156721962,-0.1666996026,2173,"DG_s11",11.922,12.531,13.968,13.968,10,10,22,6,1.437,"Left",22,6,16,0,16,0,-16,-12,4
"132",5,"RIN1-RIN2",0.1013322355,0.1975727255,0.0616409865,-0.0910164355,-0.0282963655,0.1979440875,0.4132402735,0.3521362745,0.0909716185,0.0015157075,0.1090465409,0.3087553509,2173,"DG_s11",11.922,12.531,13.968,13.968,10,10,22,6,1.437,"Left",22,6,16,0,16,0,-16,-12,4
"133",5,"ROF1-ROF2",-0.1100226857,-0.2841836977,-0.176562721,0.074438624,0.128304522,0.15575373,0.190205772,0.026209802,-0.113304714,0.014694116,0.147222301,0.265815108,2173,"DG_s11",11.922,12.531,13.968,13.968,10,10,22,6,1.437,"Left",22,6,16,0,16,0,-16,-12,4
"134",5,"RTH5-RTH6",0.053855086,-0.085958376,-0.195443746,0.009264344,0.063685247,0.057887246,0.051877095,0.196543306,0.170211268,-0.099790568,-0.094752838,-0.140872022,2173,"DG_s11",11.922,12.531,13.968,13.968,10,10,22,6,1.437,"Left",22,6,16,0,16,0,-16,-12,4
"135",5,"RAC6-RAC7",0.07109261419,0.22999712359,0.16381002559,-0.11851739861,-0.05255017461,-0.01059020541,-0.10040690041,-0.05228909541,-0.01586925541,0.04848957459,0.18721696459,0.19403697459,2173,"DG_s11",11.922,12.531,13.968,13.968,10,10,22,6,1.437,"Left",22,6,16,0,16,0,-16,-12,4
"136",5,"RAC4-RAC5",0.3220612145,0.2905275935,0.1366583385,0.0965501185,0.2134992464,0.3729772604,0.3953427565,0.1756020825,0.0402212095,0.1951253585,0.22527349247,0.13573661347,2173,"DG_s11",11.922,12.531,13.968,13.968,10,10,22,6,1.437,"Left",22,6,16,0,16,0,-16,-12,4
"137",5,"LOF3-LOF4",0.0653570984,-0.0842033019,-0.0335832959,-0.0159762786,-0.0720667576,-0.0257219626,-0.0025611856,-0.0953022276,-0.0854357106,-0.0266508386,0.1053308309,0.0775341999,2173,"DG_s11",11.922,12.531,13.968,13.968,10,10,22,6,1.437,"Left",22,6,16,0,16,0,-16,-12,4
"138",5,"RAM5-RAM6",0.142494234,-0.031872709,-0.120980313,-0.16798552,-0.241697536,-0.15824365,-0.059974539,-0.043000794,-0.120096975,-0.143355056,-0.044722277,-0.0108092274,2173,"DG_s11",11.922,12.531,13.968,13.968,10,10,22,6,1.437,"Left",22,6,16,0,16,0,-16,-12,4
"139",5,"RTH8-RTH9",0.0715230175,0.1361800132,0.3883319872,0.1758130975,0.0732603225,0.1977282695,0.0496393685,-0.0975773085,0.0965683905,0.0992069395,-0.0477414925,0.0130451095,2173,"DG_s11",11.922,12.531,13.968,13.968,10,10,22,6,1.437,"Left",22,6,16,0,16,0,-16,-12,4
"140",5,"RTH6-RTH7",-0.1001045355,-0.1668721383,-0.1072055863,0.1113502085,0.1686734925,-0.0395310545,-0.2624018905,-0.1036871385,-0.2067109725,-0.2973375885,-0.0384965785,-0.1500686225,2173,"DG_s11",11.922,12.531,13.968,13.968,10,10,22,6,1.437,"Left",22,6,16,0,16,0,-16,-12,4
"141",5,"ROF4-ROF5",0.0565775043,0.1387986543,0.2743583577,0.0555440477,-0.1698147927,-0.0885369485,-0.0218655485,-0.1403798817,-0.1200904418,-0.1223172558,-0.2237714675,-0.2806923715,2173,"DG_s11",11.922,12.531,13.968,13.968,10,10,22,6,1.437,"Left",22,6,16,0,16,0,-16,-12,4
"142",5,"LIN6-LIN7",-0.0868429445,-0.2999552935,-0.1855725105,0.0217290416,-0.1262768614,-0.2828570385,-0.193463195,-0.260395562,-0.1874079395,-0.0569125025,-0.2065511065,-0.1816515895,2173,"DG_s11",11.922,12.531,13.968,13.968,10,10,22,6,1.437,"Left",22,6,16,0,16,0,-16,-12,4
"143",5,"LOF4-LOF5",-0.11782428485,-0.14812379185,-0.05832753185,-0.07582880886,0.08255882614,0.18270277115,-0.00348235885,-0.21071729085,-0.06478196585,0.08777242415,0.12773173115,0.15547892355,2173,"DG_s11",11.922,12.531,13.968,13.968,10,10,22,6,1.437,"Left",22,6,16,0,16,0,-16,-12,4
"144",5,"LIN7-LIN8",0.1444047403,0.0583920273,0.1040105427,-0.1057545863,-0.1713298723,-0.0391607993,0.0619425537,0.0374478187,0.0531279467,0.0756934617,0.0879190337,0.1739580357,2173,"DG_s11",11.922,12.531,13.968,13.968,10,10,22,6,1.437,"Left",22,6,16,0,16,0,-16,-12,4
"145",5,"RAC2-RAC3",-0.0309757465,0.0842795455,0.2340578175,0.0728323175,-0.0067866125,-0.1558931738,-0.1578166498,-0.0298932515,0.0074461985,0.0454748015,0.2180733375,0.1862026635,2173,"DG_s11",11.922,12.531,13.968,13.968,10,10,22,6,1.437,"Left",22,6,16,0,16,0,-16,-12,4
"146",5,"RTH7-RTH8",-0.226630135,-0.194079342,-0.071499856,-0.0689147302,-0.1292878162,-0.098929405,-0.123619515,-0.220416865,-0.076516065,-0.08111194,-0.10276934,-0.120154815,2173,"DG_s11",11.922,12.531,13.968,13.968,10,10,22,6,1.437,"Left",22,6,16,0,16,0,-16,-12,4
"147",5,"RAC1-RAC2",-0.2199376863,-0.0993537583,-0.1356411403,-0.3542726403,-0.2562411973,0.00185540270000001,0.0017846617,-0.2410141083,-0.3126794913,-0.1184282083,-0.0250950143,-0.1256572683,2173,"DG_s11",11.922,12.531,13.968,13.968,10,10,22,6,1.437,"Left",22,6,16,0,16,0,-16,-12,4
"148",5,"RAM9-RAM10",0.35101486,0.4013001597,0.1928496477,-0.000348845,-0.0895807115,-0.0159460985,-0.0239924929,-0.2272436729,-0.185798242,-0.055365082,0.014977728,-0.050290321,2173,"DG_s11",11.922,12.531,13.968,13.968,10,10,22,6,1.437,"Left",22,6,16,0,16,0,-16,-12,4
"149",5,"RAC5-RAC6",0.2216465092,0.2416191135,0.1042691705,-0.0668414775,-0.0313564125,0.2300001065,0.2076841215,0.1198178048,0.1391021118,0.0730456025,0.0381311835,0.0885315245,2173,"DG_s11",11.922,12.531,13.968,13.968,10,10,22,6,1.437,"Left",22,6,16,0,16,0,-16,-12,4
"150",5,"RAM7-RAM8",-0.2218243135,-0.1741696975,-0.2559717895,-0.1799337455,-0.1162779675,-0.0773848415,0.1069942805,-0.0113083505,-0.0549841705,0.0105399915,-0.1508310795,-0.2029915855,2173,"DG_s11",11.922,12.531,13.968,13.968,10,10,22,6,1.437,"Left",22,6,16,0,16,0,-16,-12,4
"151",5,"RAM6-RAM7",-0.0183464631,0.1072728269,0.1369485419,-0.1638693491,-0.0851950591,-0.0729762881,-0.09235104929,-0.06683555929,-0.2490647581,-0.1974580921,-0.1232529121,-0.1991609181,2173,"DG_s11",11.922,12.531,13.968,13.968,10,10,22,6,1.437,"Left",22,6,16,0,16,0,-16,-12,4
"152",5,"LIN8-LIN9",-0.0311299372,0.088622452,-0.13681561,-0.182793676,-0.163951256,-0.16596099,-0.075179849,-0.080912335,0.05130844,-0.001624513,-0.032518968,0.161071191,2173,"DG_s11",11.922,12.531,13.968,13.968,10,10,22,6,1.437,"Left",22,6,16,0,16,0,-16,-12,4
"153",5,"ROF5-ROF6",0.04483148763,0.09443126863,0.09351038483,0.13814395583,0.29056927563,0.12401493063,-0.05576383537,-0.01732136637,0.15866524763,0.19128168663,0.10446252963,0.08954149563,2173,"DG_s11",11.922,12.531,13.968,13.968,10,10,22,6,1.437,"Left",22,6,16,0,16,0,-16,-12,4
"154",5,"RHH7-RHH8",0.13224519335,-0.05017926965,-0.12483911165,-0.20347116565,-0.20047628665,-0.14052201665,-0.11836471865,-0.24419675865,-0.13138231265,0.11575779735,-0.14064134265,-0.27521703665,2173,"DG_s11",11.922,12.531,13.968,13.968,10,10,22,6,1.437,"Left",22,6,16,0,16,0,-16,-12,4
"155",5,"RIN7-RIN8",0.01947059195,0.31742369195,0.37943507095,0.11312706695,0.02994756695,0.06994181195,-0.07584774005,-0.12415097005,0.15128777495,0.32136951495,0.25583264995,0.16978962195,2173,"DG_s11",11.922,12.531,13.968,13.968,10,10,22,6,1.437,"Left",22,6,16,0,16,0,-16,-12,4
"156",5,"RHH8-RHH9",-0.34696881594,-0.25939919954,-0.11522752754,-0.26087612794,-0.31080884894,-0.17353178194,-0.11214771294,-0.17201559084,-0.22703110284,-0.02277583194,-0.03092710394,-0.20049474494,2173,"DG_s11",11.922,12.531,13.968,13.968,10,10,22,6,1.437,"Left",22,6,16,0,16,0,-16,-12,4
"157",5,"RAC3-RAC4",0.027530425,0.016792279,0.074553668,-0.050912533,-0.16013211,-0.056097892,0.088300241,0.014663318,0.147503693,0.25875104918,0.04091274018,-0.04893996,2173,"DG_s11",11.922,12.531,13.968,13.968,10,10,22,6,1.437,"Left",22,6,16,0,16,0,-16,-12,4
"158",5,"RIN6-RIN7",0.017731069,-0.049901291,0.0387383375,0.1521416435,0.226993686,0.224800385,0.0536799525,0.1582995435,0.309276374,0.354150068,0.470640959,0.595606002,2173,"DG_s11",11.922,12.531,13.968,13.968,10,10,22,6,1.437,"Left",22,6,16,0,16,0,-16,-12,4
"159",5,"RHH9-RHH10",-0.21712911365,-0.34364107665,-0.32530770465,-0.14369802005,-0.11167667105,-0.32953142815,-0.38222666615,-0.24021997865,-0.26686755765,-0.37808315315,-0.21560067095,-0.21395759045,2173,"DG_s11",11.922,12.531,13.968,13.968,10,10,22,6,1.437,"Left",22,6,16,0,16,0,-16,-12,4
"160",5,"ROF3-ROF4",-0.030857941,-0.026870062,0.10723941,0.272761627,0.188724746,0.0224572586,-0.0270767754,0.025111802,0.011063918,0.027772057,0.032751547,-0.041383145,2173,"DG_s11",11.922,12.531,13.968,13.968,10,10,22,6,1.437,"Left",22,6,16,0,16,0,-16,-12,4
"161",6,"RAM5-RAM6",-0.04573266985,0.06094306291,0.29777878191,0.33995210515,0.27976719415,0.21423456065,0.15305157165,0.12150079515,0.11774481515,0.02951815915,0.00244967115,0.13308018715,2174,"DG_s11",14.984,15.593,16.828,16.843,10,10,30,15,1.235,"Right",30,15,15,0,15,0,-15,-20,-5
"162",6,"LOF2-LOF3",-0.1069549044,-0.1457526964,-0.155724395,-0.27381358,-0.229093653,-0.054179813,-0.0704145948,-0.1521082308,-0.1636115449,0.0161645231,0.809858611,0.868812231,2174,"DG_s11",14.984,15.593,16.828,16.843,10,10,30,15,1.235,"Right",30,15,15,0,15,0,-15,-20,-5
"163",6,"RAM9-RAM10",0.0649869405,-0.1393499745,0.089897203,0.271378121,0.214023037,0.223720004,0.141755828,-0.011048935,-0.066380594,-0.058755866,-0.000330786999999992,0.168982095,2174,"DG_s11",14.984,15.593,16.828,16.843,10,10,30,15,1.235,"Right",30,15,15,0,15,0,-15,-20,-5
"164",6,"RAC5-RAC6",-0.068114138715,0.00885950828500001,-0.100327495715,-0.120042365715,-0.196989779715,-0.206870350715,0.083640897285,0.291011091285,0.273431061285,0.171578567285,-0.015369589715,-0.140591960715,2174,"DG_s11",14.984,15.593,16.828,16.843,10,10,30,15,1.235,"Right",30,15,15,0,15,0,-15,-20,-5
"165",6,"RIN2-RIN3",-0.2320051525,-0.2134261595,-0.3105988285,-0.1730928315,-0.0166658375,-0.0145487275,-0.1058616315,-0.0740842145,-0.0283058325,-0.1280656795,-0.1297956025,-0.1927545775,2174,"DG_s11",14.984,15.593,16.828,16.843,10,10,30,15,1.235,"Right",30,15,15,0,15,0,-15,-20,-5
"166",6,"RAM6-RAM7",0.02776026,-0.006569426,0.244622211,0.3263507817,0.0259147017,0.017863324,0.138613244,0.0740048707,0.0851323237,0.132678585,0.132326792,-0.047648317,2174,"DG_s11",14.984,15.593,16.828,16.843,10,10,30,15,1.235,"Right",30,15,15,0,15,0,-15,-20,-5
"167",6,"RTH8-RTH9",-0.1416260308,-0.057103035,0.074014341,0.06234609,0.0912506184,0.3018395024,0.347066252,0.2208106,0.07636445,0.095971062,0.330625272,0.260839187,2174,"DG_s11",14.984,15.593,16.828,16.843,10,10,30,15,1.235,"Right",30,15,15,0,15,0,-15,-20,-5
"168",6,"RAC2-RAC3",-0.2684729915,-0.3133165185,-0.3453617025,-0.2925444225,-0.3475186755,-0.1890576925,-0.0941654472,-0.1663880632,-0.00553978350000001,-0.0598685015,-0.1368693815,-0.1217499305,2174,"DG_s11",14.984,15.593,16.828,16.843,10,10,30,15,1.235,"Right",30,15,15,0,15,0,-15,-20,-5
"169",6,"RTH5-RTH6",-0.07433511195,-0.18971671185,0.02823731655,0.10593729825,0.10253876785,0.12023332185,0.00764394025,-0.14055068265,-0.14534619265,-0.11459327745,-0.14341251145,-0.09807518655,2174,"DG_s11",14.984,15.593,16.828,16.843,10,10,30,15,1.235,"Right",30,15,15,0,15,0,-15,-20,-5
"170",6,"LOF4-LOF5",-0.2279224056,-0.0060166626,-0.0139693786,-0.2656307286,-0.1639830566,0.0332778304,0.0264793934,-0.0442173999,-0.1348264429,-0.1806929795,-0.1713157998,-0.1958916809,2174,"DG_s11",14.984,15.593,16.828,16.843,10,10,30,15,1.235,"Right",30,15,15,0,15,0,-15,-20,-5
"171",6,"LIN7-LIN8",-0.1527189136,0.0321940674,0.026660307,-0.0333486063,0.0345783737,0.128654408,0.041029558,-0.166903074,0.118755716,0.374512486,0.128483675,0.086436534,2174,"DG_s11",14.984,15.593,16.828,16.843,10,10,30,15,1.235,"Right",30,15,15,0,15,0,-15,-20,-5
"172",6,"ROF3-ROF4",-0.1351795275,0.0372384793,0.0672878033,-0.0288784231,0.0428557419,0.0757556665,0.0888086785,0.2820239485,0.2650344755,0.0169471455,0.0403154945,0.2495465345,2174,"DG_s11",14.984,15.593,16.828,16.843,10,10,30,15,1.235,"Right",30,15,15,0,15,0,-15,-20,-5
"173",6,"ROF4-ROF5",0.2092475342,0.451640489,0.393941939,0.159143781,0.249833246,0.303744018,0.2588831796,0.3957914376,0.283720041,0.121246543,0.243878919,0.225422008,2174,"DG_s11",14.984,15.593,16.828,16.843,10,10,30,15,1.235,"Right",30,15,15,0,15,0,-15,-20,-5
"174",6,"RAC1-RAC2",-0.0105374942,-0.1247109742,0.0669851888,0.3283950388,0.1706825778,0.1176526278,0.1805627038,0.0643198208,0.0808056788,0.1348279158,0.3324532128,0.3288776178,2174,"DG_s11",14.984,15.593,16.828,16.843,10,10,30,15,1.235,"Right",30,15,15,0,15,0,-15,-20,-5
"175",6,"ROF5-ROF6",-0.1265845985,-0.0652029337,0.0289877113,-0.0278335265,-0.1554099145,-0.2046318645,-0.1498774232,-0.1756390752,-0.2443271245,-0.1381755315,0.1634288045,0.2561586535,2174,"DG_s11",14.984,15.593,16.828,16.843,10,10,30,15,1.235,"Right",30,15,15,0,15,0,-15,-20,-5
"176",6,"RAC3-RAC4",0.046801658,0.01018903,0.00580943199999999,-0.15117287,-0.22583787,-0.123266282,-0.225378262,-0.31962191,-0.218972701,-0.080804574,-0.0315780674,0.0449710686,2174,"DG_s11",14.984,15.593,16.828,16.843,10,10,30,15,1.235,"Right",30,15,15,0,15,0,-15,-20,-5
"177",6,"RAC4-RAC5",-0.0192946593,-0.0611922423,-0.1303414913,0.0819652547,0.1384453467,0.0458356037,0.1785005127,0.1809192457,0.0796974217,0.0580146217,0.2129000897,0.1873303797,2174,"DG_s11",14.984,15.593,16.828,16.843,10,10,30,15,1.235,"Right",30,15,15,0,15,0,-15,-20,-5
"178",6,"RAM7-RAM8",0.187781706,0.1573586813,0.0415529633,0.142743329,0.065362344,0.24509646,0.168534799,-0.1397019138,-0.0137924383,0.1311934055,0.001815694,0.069447176,2174,"DG_s11",14.984,15.593,16.828,16.843,10,10,30,15,1.235,"Right",30,15,15,0,15,0,-15,-20,-5
"179",6,"RIN7-RIN8",-0.1915727535,-0.0644863735,-0.1442086365,-0.1500911755,-0.0306575085,-0.1045443855,-0.1435215645,-0.0449014745,-0.0577667495,-0.0572607825,0.1946126235,0.1899303275,2174,"DG_s11",14.984,15.593,16.828,16.843,10,10,30,15,1.235,"Right",30,15,15,0,15,0,-15,-20,-5
"180",6,"RHH8-RHH9",-0.19291718375,-0.21638710515,-0.18435051715,-0.14997587515,-0.34618419115,-0.33902919815,-0.31603023215,-0.17621034815,-0.16626956515,-0.26868720505,-0.27810181805,-0.34552559215,2174,"DG_s11",14.984,15.593,16.828,16.843,10,10,30,15,1.235,"Right",30,15,15,0,15,0,-15,-20,-5
"181",6,"RHH9-RHH10",0.164358656,0.191370727,0.023010784,0.037173684,0.052738484,0.027640343,-0.02986107,0.02735349,0.163599592,0.156180727,0.11860061,0.1839177939,2174,"DG_s11",14.984,15.593,16.828,16.843,10,10,30,15,1.235,"Right",30,15,15,0,15,0,-15,-20,-5
"182",6,"ROF1-ROF2",-0.217225731,-0.1145680375,-0.1736275355,-0.199838127,-0.029655329,-0.22711057,-0.4473729856,-0.3490208236,-0.241027439,-0.194273431,0.11242209,0.2929179,2174,"DG_s11",14.984,15.593,16.828,16.843,10,10,30,15,1.235,"Right",30,15,15,0,15,0,-15,-20,-5
"183",6,"RIN1-RIN2",0.147894394,0.190779195,-0.132213463,-0.194060724,-0.144594801,0.035801126,0.021928861,-0.0875173897,-0.1600666937,-0.187046564,-0.22982548,-0.257034915,2174,"DG_s11",14.984,15.593,16.828,16.843,10,10,30,15,1.235,"Right",30,15,15,0,15,0,-15,-20,-5
"184",6,"LOF3-LOF4",0.046382643,0.17836703,-0.148824788,-0.122962654,0.035177664,-0.040818922,-0.2061794656,-0.2018318406,-0.069480917,-0.049751038,-0.02679167,-0.162878302,2174,"DG_s11",14.984,15.593,16.828,16.843,10,10,30,15,1.235,"Right",30,15,15,0,15,0,-15,-20,-5
"185",6,"RTH6-RTH7",0.045087704,-0.073551584,0.065483973,0.118440001,-0.159967787,-0.178990836,-0.122611937,-0.221155588,-0.233455625,-0.163459968,-0.177233861,-0.145883762,2174,"DG_s11",14.984,15.593,16.828,16.843,10,10,30,15,1.235,"Right",30,15,15,0,15,0,-15,-20,-5
"186",6,"LIN8-LIN9",0.115632236,0.005619215,-0.062730335,-0.118986312,0.027729115,0.140369095,-0.127687962,0.169851708,0.347378576,0.12510601,-0.005750628,0.128648255,2174,"DG_s11",14.984,15.593,16.828,16.843,10,10,30,15,1.235,"Right",30,15,15,0,15,0,-15,-20,-5
"187",6,"LIN6-LIN7",-0.0469467506,-0.194854476,-0.152723279,-0.120538296,-0.027168591,-0.008156301,-0.161049347,-0.173242757,0.139226323,0.124750615,-0.1409995794,-0.0660199544,2174,"DG_s11",14.984,15.593,16.828,16.843,10,10,30,15,1.235,"Right",30,15,15,0,15,0,-15,-20,-5
"188",6,"RTH7-RTH8",0.0665783495,0.1307022705,0.0743759498,-0.0854826352,-0.1003261965,-0.1140864915,-0.1940509035,-0.1128352175,-0.0182061915,0.0215998397,-0.00644790379999999,-0.063944109,2174,"DG_s11",14.984,15.593,16.828,16.843,10,10,30,15,1.235,"Right",30,15,15,0,15,0,-15,-20,-5
"189",6,"RAC6-RAC7",0.2813497038,0.2553731238,0.2104280688,0.0810682888,0.0939043078,0.2321871078,0.4103063538,0.3323506788,0.1278859548,0.0811656768,0.1097616198,0.1153860968,2174,"DG_s11",14.984,15.593,16.828,16.843,10,10,30,15,1.235,"Right",30,15,15,0,15,0,-15,-20,-5
"190",6,"RIN6-RIN7",-0.0601062155,-0.0408365415,-0.1666620325,-0.3085599685,-0.1167860465,-0.0953692957,-0.0904517697,0.0096854515,-0.0526307908,-0.0587841678,0.148805331,0.198524595,2174,"DG_s11",14.984,15.593,16.828,16.843,10,10,30,15,1.235,"Right",30,15,15,0,15,0,-15,-20,-5
"191",6,"LOF5-LOF6",-0.3199298806,-0.2213966016,-0.046106539,0.00955808599999999,-0.140486872,-0.0357254,-0.173182707,-0.332332948,-0.1520630357,-0.1875254147,-0.214949332,-0.258547859,2174,"DG_s11",14.984,15.593,16.828,16.843,10,10,30,15,1.235,"Right",30,15,15,0,15,0,-15,-20,-5
"192",6,"RHH7-RHH8",-0.0168594558,-0.0545503908,-0.1527770928,-0.15032530174,-0.12954336274,-0.0618581468,-0.1447566038,-0.2207068408,-0.2054603598,-0.1536241348,-0.0343488458,-0.0296666858,2174,"DG_s11",14.984,15.593,16.828,16.843,10,10,30,15,1.235,"Right",30,15,15,0,15,0,-15,-20,-5
"193",7,"RAC5-RAC6",0.1765594065,0.1293010515,0.1278338285,0.0869125245,0.0781743775,-0.0570020835,-0.1174878255,0.1447466755,0.254161011,0.22145795,0.1385162835,-0.0869031315,2175,"DG_s11",17.843,18.453,19.593,19.593,10,10,28,4,1.14,"Right",28,4,24,0,24,0,-24,-18,6
"194",7,"RIN1-RIN2",0.0894368419,0.257911989,0.291698184,0.167039148,-0.013789136,-0.184000313,-0.1606381331,-0.0386915581,0.12838013,0.254913755,0.305589251,0.211590173,2175,"DG_s11",17.843,18.453,19.593,19.593,10,10,28,4,1.14,"Right",28,4,24,0,24,0,-24,-18,6
"195",7,"RAM5-RAM6",0.085769748,0.306657293,0.131670051,0.022899937,-0.105378851,-0.173930805,0.205445827,0.329462022,0.29845618,0.157802568,-0.023735463,0.078927105,2175,"DG_s11",17.843,18.453,19.593,19.593,10,10,28,4,1.14,"Right",28,4,24,0,24,0,-24,-18,6
"196",7,"LOF5-LOF6",0.11740388365,-0.04484603835,-0.16672799935,-0.09299271335,0.02260399565,-0.07688420735,-0.13387282535,0.12575740465,0.39747871565,0.44694940565,0.21598161965,0.08188412265,2175,"DG_s11",17.843,18.453,19.593,19.593,10,10,28,4,1.14,"Right",28,4,24,0,24,0,-24,-18,6
"197",7,"RAC6-RAC7",0.2550198435,0.1794879325,0.0967099617,0.1731552127,0.1342255325,0.2321324695,0.3463097525,0.2948752135,0.2484929105,0.1512402825,0.095319202,0.102015161,2175,"DG_s11",17.843,18.453,19.593,19.593,10,10,28,4,1.14,"Right",28,4,24,0,24,0,-24,-18,6
"198",7,"RAM6-RAM7",0.0027312862,0.1060417405,0.1364898085,0.1400887125,0.0542155845,-0.0322413465,0.1355011115,0.2685660525,0.2187163705,0.2174547785,0.1599617645,-0.0625939145,2175,"DG_s11",17.843,18.453,19.593,19.593,10,10,28,4,1.14,"Right",28,4,24,0,24,0,-24,-18,6
"199",7,"LOF3-LOF4",0.1726331315,0.0843986215,0.0275703945,-0.0701909475,-0.2004594515,0.0391532775,0.0591747825,0.0606145655,0.14307180664,-0.01091420336,-0.0508131095,-0.0549400515,2175,"DG_s11",17.843,18.453,19.593,19.593,10,10,28,4,1.14,"Right",28,4,24,0,24,0,-24,-18,6
"200",7,"RAC1-RAC2",0.074061422,-0.195348818,-0.024796184,0.021368907,0.176678653,0.2518185283,0.0991774053,0.162615129,-0.009136088,-0.088573523,-0.016178757,0.015405948383,2175,"DG_s11",17.843,18.453,19.593,19.593,10,10,28,4,1.14,"Right",28,4,24,0,24,0,-24,-18,6
"201",7,"RAM7-RAM8",-0.0131785565,-0.3433938155,-0.1635612345,-0.0888783935,-0.1556599205,-0.0965969175,-0.2923722605,-0.3341358945,-0.2293232555,-0.0501782025,-0.1378180465,-0.3174691395,2175,"DG_s11",17.843,18.453,19.593,19.593,10,10,28,4,1.14,"Right",28,4,24,0,24,0,-24,-18,6
"202",7,"RHH9-RHH10",-0.0535422695,-0.0985799915,-0.0300863995,0.0384432545,0.0420498883,0.0293493094,0.0265673936,-0.0659263115,-0.1708013365,0.0103931455,0.1995552005,0.0378820095,2175,"DG_s11",17.843,18.453,19.593,19.593,10,10,28,4,1.14,"Right",28,4,24,0,24,0,-24,-18,6
"203",7,"RAC3-RAC4",-0.038921959883,0.086815443117,0.231491289397,0.173831297397,0.405259721117,0.368190960117,0.064943837117,0.135980507117,0.203831080117,0.300329796117,0.102586236117,-0.036767315883,2175,"DG_s11",17.843,18.453,19.593,19.593,10,10,28,4,1.14,"Right",28,4,24,0,24,0,-24,-18,6
"204",7,"ROF5-ROF6",-0.0961979665,0.0829394569,0.0568337419,0.0738167545,0.0700770195,0.0674594695,0.0193680695,-0.0296415065,0.1740016635,0.0668428917,-0.0961974523,0.0607654575,2175,"DG_s11",17.843,18.453,19.593,19.593,10,10,28,4,1.14,"Right",28,4,24,0,24,0,-24,-18,6
"205",7,"ROF3-ROF4",0.07670868405,-0.01274957295,0.10205094005,0.09932188805,-0.13238889695,0.01125869205,0.08535730205,-0.06611341195,0.02590622305,0.19626021705,0.10244029605,-0.05192363395,2175,"DG_s11",17.843,18.453,19.593,19.593,10,10,28,4,1.14,"Right",28,4,24,0,24,0,-24,-18,6
"206",7,"RTH8-RTH9",0.1235446559,0.2183039279,0.0863967179,-0.1607092698,-0.0878352518,-0.0433471061,-0.1087769831,-0.0322327101,-0.0577955931,-0.1130320711,0.0937203039,0.1422256639,2175,"DG_s11",17.843,18.453,19.593,19.593,10,10,28,4,1.14,"Right",28,4,24,0,24,0,-24,-18,6
"207",7,"LIN8-LIN9",-0.034052036,0.059249896,0.00274731700000001,0.010425941,0.081637325,-0.055936925,-0.238761495,-0.160624803,-0.034316116,-0.068598428,-0.04206574,0.055394167,2175,"DG_s11",17.843,18.453,19.593,19.593,10,10,28,4,1.14,"Right",28,4,24,0,24,0,-24,-18,6
"208",7,"RTH7-RTH8",0.1860402205,0.0555375005,0.0238792969,0.0778592209,0.1478673805,0.00572847650000001,0.0883355675,0.1717624405,-0.00871222749999999,-0.00160451939999999,0.0648329529,0.1000416578,2175,"DG_s11",17.843,18.453,19.593,19.593,10,10,28,4,1.14,"Right",28,4,24,0,24,0,-24,-18,6
"209",7,"RHH7-RHH8",0.03603105265,-0.07569397735,-0.15921423135,-0.14507421135,-0.02242152635,-0.12151148635,-0.29828452635,-0.28963578635,-0.16919531635,-0.03296267235,0.03003597765,0.01958881865,2175,"DG_s11",17.843,18.453,19.593,19.593,10,10,28,4,1.14,"Right",28,4,24,0,24,0,-24,-18,6
"210",7,"RIN6-RIN7",0.527549409585,0.421767155585,0.292380253585,0.203724960585,0.239265716585,0.260431083585,0.358657507585,0.388738306585,0.520813236585,0.588325967585,0.528738107585,0.503921049585,2175,"DG_s11",17.843,18.453,19.593,19.593,10,10,28,4,1.14,"Right",28,4,24,0,24,0,-24,-18,6
"211",7,"RHH8-RHH9",-0.2076079745,-0.0521133405,-0.1479813154,-0.2969309934,-0.2338330015,-0.0920860775,-0.1354123025,-0.3038622059,-0.1349475529,-0.1382312795,-0.1242272445,-0.0195227985,2175,"DG_s11",17.843,18.453,19.593,19.593,10,10,28,4,1.14,"Right",28,4,24,0,24,0,-24,-18,6
"212",7,"LOF4-LOF5",-0.12852422485,-0.12971227885,0.06689667515,-0.01317731485,-0.13683182065,-0.00265733865,0.06490349275,0.09572228795,0.12609492035,0.19847660815,0.05384232615,-0.16163511985,2175,"DG_s11",17.843,18.453,19.593,19.593,10,10,28,4,1.14,"Right",28,4,24,0,24,0,-24,-18,6
"213",7,"RAC2-RAC3",0.071031669,-0.014952333,0.084603157,0.079929197,-0.124919813,-0.116249041,-0.072433001,-0.070884298,0.00116691200000001,-0.087977668,-0.156965259,-0.048689231,2175,"DG_s11",17.843,18.453,19.593,19.593,10,10,28,4,1.14,"Right",28,4,24,0,24,0,-24,-18,6
"214",7,"LOF2-LOF3",-0.2356076335,-0.1095664647,-0.0146335647,0.2281750405,0.2791262165,0.3624836825,0.2944531515,0.0311613545,0.0214141295,0.3184124465,0.4117684325,-0.0184738175,2175,"DG_s11",17.843,18.453,19.593,19.593,10,10,28,4,1.14,"Right",28,4,24,0,24,0,-24,-18,6
"215",7,"RTH6-RTH7",-0.179643773,-0.108587005,-0.1836534179,-0.2505866939,-0.09863211,-0.121564951,-0.207033586,-0.233664217,-0.284214374,-0.117740847,-0.0890424438,-0.1291044478,2175,"DG_s11",17.843,18.453,19.593,19.593,10,10,28,4,1.14,"Right",28,4,24,0,24,0,-24,-18,6
"216",7,"ROF1-ROF2",0.186508725155,0.220981709155,0.200043718155,0.128167643155,-0.060250545845,0.231427029155,0.175588528155,-0.214633551845,-0.151048501845,0.077068253155,0.110760263155,-0.074202391845,2175,"DG_s11",17.843,18.453,19.593,19.593,10,10,28,4,1.14,"Right",28,4,24,0,24,0,-24,-18,6
"217",7,"RAC4-RAC5",-0.008785229,0.116756166,0.2117832505,0.1742348255,0.097615834,0.03560874,0.008424925,0.224696528,0.29228076,0.262852169,0.124380029,0.214194151,2175,"DG_s11",17.843,18.453,19.593,19.593,10,10,28,4,1.14,"Right",28,4,24,0,24,0,-24,-18,6
"218",7,"RIN7-RIN8",0.0866967115,0.0153321235,0.1203153295,0.1915412215,0.18401429936,0.20836270436,0.3861106205,0.3985086205,0.5000614205,0.8771036035,0.8460460735,0.7021596735,2175,"DG_s11",17.843,18.453,19.593,19.593,10,10,28,4,1.14,"Right",28,4,24,0,24,0,-24,-18,6
"219",7,"LIN7-LIN8",0.18763806889,-0.0226504615,0.0719913055,0.1258083015,0.1140573985,0.1502208825,0.1070884485,0.3012759385,0.2646836985,0.1638774555,0.3275857995,0.4758776225,2175,"DG_s11",17.843,18.453,19.593,19.593,10,10,28,4,1.14,"Right",28,4,24,0,24,0,-24,-18,6
"220",7,"LIN6-LIN7",0.0583771735,-0.0246027513,0.0170808457,0.0566879085,0.0368102595,0.0609215645,0.2477003645,0.1772563125,-0.0225896935,-0.0510081975,0.0212713705,0.3167562325,2175,"DG_s11",17.843,18.453,19.593,19.593,10,10,28,4,1.14,"Right",28,4,24,0,24,0,-24,-18,6
"221",7,"RIN2-RIN3",-0.097455638,-0.016652085,-0.062801604,-0.139259904,-0.170878899,-0.164733139,-0.141731715,-0.221940093,-0.283308813,-0.1823034062,0.0234115838,-0.0540696026,2175,"DG_s11",17.843,18.453,19.593,19.593,10,10,28,4,1.14,"Right",28,4,24,0,24,0,-24,-18,6
"222",7,"RTH5-RTH6",-0.105576545,0.033594884,0.099556764,-0.110656672,-0.047707372,0.152671733,0.056529501,-0.088204681,-0.126127632,-0.176748613,-0.14895346,-0.131905344,2175,"DG_s11",17.843,18.453,19.593,19.593,10,10,28,4,1.14,"Right",28,4,24,0,24,0,-24,-18,6
"223",7,"RAM9-RAM10",-0.197809557682,-0.169228116682,-0.096430258582,-0.310999020582,-0.236726768582,-0.192828458582,-0.218218369582,-0.243330594582,-0.296457091882,-0.329963786882,-0.283567864582,-0.243446523182,2175,"DG_s11",17.843,18.453,19.593,19.593,10,10,28,4,1.14,"Right",28,4,24,0,24,0,-24,-18,6
"224",7,"ROF4-ROF5",0.013077647,0.159890848,0.405980136,0.2463023887,-0.0773622683,0.106077744,0.473699051,0.365299882,0.028677279,0.024131634,0.22011434,0.230225729,2175,"DG_s11",17.843,18.453,19.593,19.593,10,10,28,4,1.14,"Right",28,4,24,0,24,0,-24,-18,6
"225",8,"LIN6-LIN7",0.1126165051,0.2117052531,0.3842649041,0.5412084741,0.6518715931,0.4568032191,0.5914267511,0.5965467589,0.5512732269,0.6646596131,0.5261021631,0.3832040731,2176,"DG_s11",20.593,21.203,22.312,22.312,10,10,4,4,1.109,"Left",4,4,0,0,0,0,0,6,6
"226",8,"RAC3-RAC4",0.2046748635,0.1606246355,0.081642953,0.047221735,-0.054983675,-0.105308069,0.066986636,0.165062978,0.187780524,0.452062678,0.446346142,0.228139113,2176,"DG_s11",20.593,21.203,22.312,22.312,10,10,4,4,1.109,"Left",4,4,0,0,0,0,0,6,6
"227",8,"RAM7-RAM8",0.19926923705,0.25709034105,0.09932086405,0.20284339585,0.31896870585,0.13394450205,0.14291298205,0.23510985165,0.00443084165,-0.21954531695,-0.04481810695,0.07958255805,2176,"DG_s11",20.593,21.203,22.312,22.312,10,10,4,4,1.109,"Left",4,4,0,0,0,0,0,6,6
"228",8,"ROF1-ROF2",0.193192422,0.232990132,-0.111439285,-0.16051607396,-0.11124777086,-0.0535601349,-0.079471923,-0.038043835,-0.027574292,0.10185511,0.393946709,0.227584599,2176,"DG_s11",20.593,21.203,22.312,22.312,10,10,4,4,1.109,"Left",4,4,0,0,0,0,0,6,6
"229",8,"RAC1-RAC2",-0.137692009,-0.054246988,0.071859201,-0.00848484200000001,-0.066472884,0.185943034,0.302871876,0.1552421737,0.0400616937,-0.0820795961,-0.2225745241,-0.216402522,2176,"DG_s11",20.593,21.203,22.312,22.312,10,10,4,4,1.109,"Left",4,4,0,0,0,0,0,6,6
"230",8,"RAC6-RAC7",0.339929262,0.573808902,0.522469663,0.174988293,0.042421288,0.155372543,0.1277122134,0.03700705,0.0544130716,0.119881608,0.040860792,0.050660674,2176,"DG_s11",20.593,21.203,22.312,22.312,10,10,4,4,1.109,"Left",4,4,0,0,0,0,0,6,6
"231",8,"ROF3-ROF4",-0.096567905,-0.020346999,0.058124319,0.096237166,-0.031235264,-0.18583258,-0.082276317,0.134173897,0.045731386,-0.090650028,0.072861402,0.27822865,2176,"DG_s11",20.593,21.203,22.312,22.312,10,10,4,4,1.109,"Left",4,4,0,0,0,0,0,6,6
"232",8,"RAM5-RAM6",-0.3130452769,-0.4544710129,-0.3776509789,-0.3294221789,-0.3783462329,-0.3010346789,-0.2172454249,-0.29394573055,-0.30771145455,-0.2461232629,-0.1715012129,-0.1835247699,2176,"DG_s11",20.593,21.203,22.312,22.312,10,10,4,4,1.109,"Left",4,4,0,0,0,0,0,6,6
"233",8,"RAM9-RAM10",-0.1895506808,-0.175907574,-0.055854892,-0.126157773,-0.100606295,0.0149941571,0.1365636171,0.146116482,0.14191170893,0.15705880393,0.148976941,0.252021695,2176,"DG_s11",20.593,21.203,22.312,22.312,10,10,4,4,1.109,"Left",4,4,0,0,0,0,0,6,6
"234",8,"RTH8-RTH9",-0.10839113,-0.170761222,-0.14251668,-0.014562115,0.102125139,0.19953124,0.1580402,-0.081342477,-0.177138937,-0.1732472895,-0.0663715125,-0.064310285,2176,"DG_s11",20.593,21.203,22.312,22.312,10,10,4,4,1.109,"Left",4,4,0,0,0,0,0,6,6
"235",8,"LIN7-LIN8",-0.0285583145,0.1117469335,0.1299375575,0.0082567975,0.3586165885,0.3241699485,0.2675269585,0.5447316785,0.2201759185,-0.0261515875,0.0591638225,0.0766024505,2176,"DG_s11",20.593,21.203,22.312,22.312,10,10,4,4,1.109,"Left",4,4,0,0,0,0,0,6,6
"236",8,"RIN1-RIN2",-0.2142153138,-0.1581457708,0.0239938592,-0.00994329179999999,0.0790982782,0.0792096912,0.0859248712,0.0401319792,-0.08526680811,-0.09255078711,-0.0684565198,-0.0211722328,2176,"DG_s11",20.593,21.203,22.312,22.312,10,10,4,4,1.109,"Left",4,4,0,0,0,0,0,6,6
"237",8,"RIN7-RIN8",-0.219027405,-0.037258111,0.019955724,-0.023997787,-0.00869840699999999,-0.06356315,0.01497301,0.13532865,0.35879512,0.35273499,0.23157377,0.113927427,2176,"DG_s11",20.593,21.203,22.312,22.312,10,10,4,4,1.109,"Left",4,4,0,0,0,0,0,6,6
"238",8,"RHH8-RHH9",0.03691282945,0.17443376545,0.01971998845,0.06638309245,0.09557911625,0.04463229325,-0.13147085355,-0.22688922055,0.00160302645,0.16433915185,0.09651501385,0.03899657745,2176,"DG_s11",20.593,21.203,22.312,22.312,10,10,4,4,1.109,"Left",4,4,0,0,0,0,0,6,6
"239",8,"RIN6-RIN7",-0.211633818,-0.00518088999999999,0.123186312,0.082710537,0.004979434,-0.021040137,0.224481554,0.652309052,0.710759412,0.591519512,0.388795932,0.157095813,2176,"DG_s11",20.593,21.203,22.312,22.312,10,10,4,4,1.109,"Left",4,4,0,0,0,0,0,6,6
"240",8,"RIN2-RIN3",-0.229175932,-0.223674866,-0.2880673873,-0.0253253033,0.041619415,-0.059965505,-0.0760459545,-0.1804873115,-0.219385087,-0.261094595,-0.278849005,-0.2417992,2176,"DG_s11",20.593,21.203,22.312,22.312,10,10,4,4,1.109,"Left",4,4,0,0,0,0,0,6,6
"241",8,"RHH9-RHH10",0.2237333245,0.1285100315,-0.1104561245,-0.0919379935,-0.1159623915,-0.1859879995,-0.1344453865,-0.0955210685,-0.0156360585,0.1168928335,-0.0501881555,-0.1339883055,2176,"DG_s11",20.593,21.203,22.312,22.312,10,10,4,4,1.109,"Left",4,4,0,0,0,0,0,6,6
"242",8,"RAC4-RAC5",-0.079096579085,-0.048499269885,-0.149096242885,-0.172705534585,0.120055576415,0.322085260115,0.275483796115,0.047279355115,-0.113190640885,-0.145716552885,-0.134181588885,-0.121001981885,2176,"DG_s11",20.593,21.203,22.312,22.312,10,10,4,4,1.109,"Left",4,4,0,0,0,0,0,6,6
"243",8,"RAM6-RAM7",-0.129256806,-0.325164225,-0.221348495,-0.137730362,-0.076379679,-0.100494986,-0.107956064,-0.00596266699999999,-0.1137216578,-0.3044825548,-0.094913139,0.008654391,2176,"DG_s11",20.593,21.203,22.312,22.312,10,10,4,4,1.109,"Left",4,4,0,0,0,0,0,6,6
"244",8,"LOF4-LOF5",-0.15582767365,-0.21038501625,-0.27975389625,-0.19177727465,-0.01942921865,-0.18273606265,-0.04220701865,-0.01886908965,-0.22621809715,0.00040313585,0.15290262335,0.02478385765,2176,"DG_s11",20.593,21.203,22.312,22.312,10,10,4,4,1.109,"Left",4,4,0,0,0,0,0,6,6
"245",8,"LOF5-LOF6",-0.2330361683,-0.1601245753,0.0418614507,0.1887747391,0.2916147191,0.2916317867,0.3351812337,0.2896046447,0.0300220987,-0.0201770763,0.2816495227,0.2688891647,2176,"DG_s11",20.593,21.203,22.312,22.312,10,10,4,4,1.109,"Left",4,4,0,0,0,0,0,6,6
"246",8,"LIN8-LIN9",-0.06118454595,0.09938368875,0.09504645035,0.12163108865,0.11159214205,0.02464586335,0.03507819735,-0.06596910605,-0.02986376705,0.08237386405,-0.03449489395,-0.17389684295,2176,"DG_s11",20.593,21.203,22.312,22.312,10,10,4,4,1.109,"Left",4,4,0,0,0,0,0,6,6
"247",8,"RAC2-RAC3",0.0969786815,0.0494606845,0.2184373585,0.3264890285,0.2255565655,0.2234479165,0.1435247195,0.0514768743,-0.0290862227,-0.1331443485,-0.1216372915,-0.0340202115,2176,"DG_s11",20.593,21.203,22.312,22.312,10,10,4,4,1.109,"Left",4,4,0,0,0,0,0,6,6
"248",8,"LOF2-LOF3",0.51793376,0.322754071,-0.123417607,-0.051940912,-0.118450724,-0.11986131,0.28415728,0.2481542,-0.074115753,0.162798517,0.231777354,0.322135244,2176,"DG_s11",20.593,21.203,22.312,22.312,10,10,4,4,1.109,"Left",4,4,0,0,0,0,0,6,6
"249",8,"RAC5-RAC6",0.15467735695,0.37592029295,0.38225521295,0.29122989199,0.32105917199,0.42163284295,0.15229108895,-0.05765542505,-0.05480086105,-0.01532661805,0.10978116095,0.09531018195,2176,"DG_s11",20.593,21.203,22.312,22.312,10,10,4,4,1.109,"Left",4,4,0,0,0,0,0,6,6
"250",8,"LOF3-LOF4",0.1786041795,0.1030146696,0.0955939716,0.0982531695,0.0134162555,-0.0313604815,-0.0688781415,0.0122251475,-0.0771607625,0.0740447875,0.1710856415,0.0590490215,2176,"DG_s11",20.593,21.203,22.312,22.312,10,10,4,4,1.109,"Left",4,4,0,0,0,0,0,6,6
"251",8,"ROF4-ROF5",0.135236088,0.011265565,-0.245338875,-0.1903564524,-0.0677313854,-0.135617385,-0.051345088,0.196705842,0.268582028,0.1028862,-0.093741737,-0.054293549,2176,"DG_s11",20.593,21.203,22.312,22.312,10,10,4,4,1.109,"Left",4,4,0,0,0,0,0,6,6
"252",8,"RTH5-RTH6",-0.17934210645,-0.06945400545,0.15212602355,0.08891070535,0.29231264335,0.43297263155,0.25361868255,0.23676197255,0.15409508555,-0.03949750845,-0.04678564445,0.09734178955,2176,"DG_s11",20.593,21.203,22.312,22.312,10,10,4,4,1.109,"Left",4,4,0,0,0,0,0,6,6
"253",8,"ROF5-ROF6",0.02751200575,-0.06875590525,-0.17211401625,-0.21128862225,-0.15518311725,-0.10175033925,-0.24860738425,-0.27574246955,-0.07341095055,0.09038435875,0.09098983975,0.05697083875,2176,"DG_s11",20.593,21.203,22.312,22.312,10,10,4,4,1.109,"Left",4,4,0,0,0,0,0,6,6
"254",8,"RHH7-RHH8",0.08163354535,0.13308458535,-0.09414442465,-0.09301579165,-0.05038347435,0.05330787165,0.12520762035,-0.01808934665,-0.00724404165,0.10986314135,0.12229148735,0.12189340735,2176,"DG_s11",20.593,21.203,22.312,22.312,10,10,4,4,1.109,"Left",4,4,0,0,0,0,0,6,6
"255",8,"RTH7-RTH8",0.1104762115,0.2692764015,0.2436715935,0.0905989257,0.1556959237,0.1808456601,0.1758814331,0.1780108875,0.0785832326,-0.0527675634,0.1393895585,0.2050170135,2176,"DG_s11",20.593,21.203,22.312,22.312,10,10,4,4,1.109,"Left",4,4,0,0,0,0,0,6,6
"256",8,"RTH6-RTH7",0.0309132205,0.3651723915,0.3259526805,0.0696620945,0.1222979225,0.2273150535,0.3241782785,0.3809959835,0.2269437415,0.1121593325,0.2715830725,0.3195440825,2176,"DG_s11",20.593,21.203,22.312,22.312,10,10,4,4,1.109,"Left",4,4,0,0,0,0,0,6,6
"257",9,"LIN6-LIN7",0.175380543,0.076339638,-0.006447205,0.079778832,0.022883126,0.005783824,-0.032063769,-0.028521057,0.403112335,0.441507011,0.0184531691,0.0803130801,2177,"DG_s11",23.328,23.937,25.031,25.047,10,10,13,7,1.094,"Right",13,7,6,0,6,0,-6,-3,3
"258",9,"RAM7-RAM8",-0.0470534575,0.0362424375,-0.0110395855,-0.0262121355,-0.1147882725,-0.2244991155,-0.1736975825,-0.2309729745,-0.0960739305,0.1612731745,0.0868711475,-0.1063450831,2177,"DG_s11",23.328,23.937,25.031,25.047,10,10,13,7,1.094,"Right",13,7,6,0,6,0,-6,-3,3
"259",9,"ROF1-ROF2",-0.3909037783,-0.15161971,-0.080474603,-0.270436497,-0.319261408,-0.404854702,-0.221594591,-0.2038109305,-0.2050998075,0.05886334,0.146246144,-0.18178781,2177,"DG_s11",23.328,23.937,25.031,25.047,10,10,13,7,1.094,"Right",13,7,6,0,6,0,-6,-3,3
"260",9,"LOF4-LOF5",-0.0220898549,-0.1199975109,-0.177703143,-0.239265268,-0.170917276,-0.220021056,-0.207288626,-0.19278708,-0.229485955,-0.236182719,-0.464659963,-0.480319164,2177,"DG_s11",23.328,23.937,25.031,25.047,10,10,13,7,1.094,"Right",13,7,6,0,6,0,-6,-3,3
"261",9,"RIN1-RIN2",-0.20518402765,-0.19351504465,-0.01560027465,0.04801145635,0.08134349335,0.29118240335,0.15562325235,-0.06753279165,-0.11627238265,-0.14982737665,0.11989075835,0.34753339635,2177,"DG_s11",23.328,23.937,25.031,25.047,10,10,13,7,1.094,"Right",13,7,6,0,6,0,-6,-3,3
"262",9,"ROF5-ROF6",-0.0525202996,-0.0406212506,0.0696277516,0.1064207116,0.0809441226,0.0629771726,0.0259250236,0.1373774996,0.1476563416,0.1003893026,0.1078030196,0.0776829546,2177,"DG_s11",23.328,23.937,25.031,25.047,10,10,13,7,1.094,"Right",13,7,6,0,6,0,-6,-3,3
"263",9,"RAC6-RAC7",0.0459965146,-0.055979247,0.000274833000000002,0.098635257,-0.125320303,-0.2621314463,-0.3090265063,-0.256595089,-0.252706279,-0.2038271822,-0.0393189002,-0.029554257,2177,"DG_s11",23.328,23.937,25.031,25.047,10,10,13,7,1.094,"Right",13,7,6,0,6,0,-6,-3,3
"264",9,"RAM6-RAM7",0.0047910702,0.162054148,0.0822899834,0.0731610294,0.018117003,0.128178327,0.178257291,0.110609251,0.0926469381,-0.0239311499,0.19181491,0.273700948,2177,"DG_s11",23.328,23.937,25.031,25.047,10,10,13,7,1.094,"Right",13,7,6,0,6,0,-6,-3,3
"265",9,"RTH8-RTH9",0.2704464965,0.1836708415,0.00800822949999999,-0.0466020045,0.14584553633,0.16595798533,0.1360673935,-0.0229600845,-0.0376673593,0.1766235637,0.2124998026,0.2742705816,2177,"DG_s11",23.328,23.937,25.031,25.047,10,10,13,7,1.094,"Right",13,7,6,0,6,0,-6,-3,3
"266",9,"LIN7-LIN8",-0.0264825192,-0.0223373208,0.0882554742,0.2138396152,0.2042184032,-0.0654858468,-0.0927763618,0.0296479872,0.0488258942,0.2305273852,0.1182405802,0.0936157712,2177,"DG_s11",23.328,23.937,25.031,25.047,10,10,13,7,1.094,"Right",13,7,6,0,6,0,-6,-3,3
"267",9,"RAC3-RAC4",-0.394292052,-0.585809988,-0.466597888,-0.338844619,-0.215980769,-0.276976168,-0.417388027,-0.363397402,-0.256096233,-0.165564418,-0.241494496,-0.383855821,2177,"DG_s11",23.328,23.937,25.031,25.047,10,10,13,7,1.094,"Right",13,7,6,0,6,0,-6,-3,3
"268",9,"RAM9-RAM10",0.2399448815,0.0910316535,0.0306637385,0.2472836045,0.0347808805,-0.1034279015,0.1189131175,0.0399263835,0.0296559235,0.2232996235,0.1399395275,-0.0794409325,2177,"DG_s11",23.328,23.937,25.031,25.047,10,10,13,7,1.094,"Right",13,7,6,0,6,0,-6,-3,3
"269",9,"RAM5-RAM6",-0.184039841,-0.205552707,0.048961096,-0.020260594,-0.125311577,0.039684729,-0.069122165,-0.192981733,-0.191018174,-0.271910111,-0.107382376,0.00571890899999999,2177,"DG_s11",23.328,23.937,25.031,25.047,10,10,13,7,1.094,"Right",13,7,6,0,6,0,-6,-3,3
"270",9,"LOF2-LOF3",-0.275625006,-0.182767167,-0.107051296,-0.229985949,0.06067625,0.016114203,-0.151596063,0.066891444,0.112189365,0.00361867899999999,0.093920954,0.17187872,2177,"DG_s11",23.328,23.937,25.031,25.047,10,10,13,7,1.094,"Right",13,7,6,0,6,0,-6,-3,3
"271",9,"ROF3-ROF4",-0.209958166,-0.068639982,0.136046499,0.044955806,-0.003761775,0.201361694,0.224953253,0.1422814,0.050980052,-0.042805655,-0.117718022,-0.18516379,2177,"DG_s11",23.328,23.937,25.031,25.047,10,10,13,7,1.094,"Right",13,7,6,0,6,0,-6,-3,3
"272",9,"LOF3-LOF4",-0.303192326,-0.116181734,-0.112373037,-0.306447264,-0.3068426596,-0.1531236406,-0.068216694,-0.14411941,-0.106039469,-0.154814651,-0.187641669,-0.381222151,2177,"DG_s11",23.328,23.937,25.031,25.047,10,10,13,7,1.094,"Right",13,7,6,0,6,0,-6,-3,3
"273",9,"RTH7-RTH8",0.3599839484,0.4243997134,0.2550236945,0.1307664305,0.1375027645,0.3068541685,0.2611037235,-0.0274228975,0.1225566285,0.3541707395,0.3320939335,0.3449927735,2177,"DG_s11",23.328,23.937,25.031,25.047,10,10,13,7,1.094,"Right",13,7,6,0,6,0,-6,-3,3
"274",9,"RHH8-RHH9",0.17902679292,0.10668445062,0.128808249,0.154442417,0.070414267,-0.053650955,0.056842625,0.046158004,0.145387374,0.245414768,0.031378598,-0.015752904,2177,"DG_s11",23.328,23.937,25.031,25.047,10,10,13,7,1.094,"Right",13,7,6,0,6,0,-6,-3,3
"275",9,"RAC1-RAC2",0.000266711500000016,-0.1358307066,-0.1493144626,-0.3361529245,-0.3979013425,-0.2626538825,-0.2256678015,-0.2135247415,-0.1678111625,-0.2063957885,-0.1645567585,0.0567906475,2177,"DG_s11",23.328,23.937,25.031,25.047,10,10,13,7,1.094,"Right",13,7,6,0,6,0,-6,-3,3
"276",9,"LOF5-LOF6",-0.142190692,-0.0101680696,-0.0071224026,-0.0030988501,0.2299938489,0.199968208,0.252034558,0.415004924,0.238637181,0.077404285,0.086614942,0.06789213,2177,"DG_s11",23.328,23.937,25.031,25.047,10,10,13,7,1.094,"Right",13,7,6,0,6,0,-6,-3,3
"277",9,"RIN6-RIN7",-0.111698655,-0.073543972,0.13608219,0.059132887,0.294228075,0.249276265,-0.206607735,0.0468799395,0.1919913645,0.243888243,0.509532218,0.374939318,2177,"DG_s11",23.328,23.937,25.031,25.047,10,10,13,7,1.094,"Right",13,7,6,0,6,0,-6,-3,3
"278",9,"RHH9-RHH10",-0.2442263466,-0.0657382034,-0.0670078354,-0.2304936534,-0.2225638654,-0.1732374594,-0.0772547874,-0.1013314434,-0.0579008194,-0.0849590414,-0.1870306024,-0.0935765523,2177,"DG_s11",23.328,23.937,25.031,25.047,10,10,13,7,1.094,"Right",13,7,6,0,6,0,-6,-3,3
"279",9,"LIN8-LIN9",0.0600384235,0.1506176525,0.173621818,0.005345864,-0.005612666,0.192689712,0.127040771,-0.159815424,-0.12227856,0.124450105,0.173631296,0.175068737,2177,"DG_s11",23.328,23.937,25.031,25.047,10,10,13,7,1.094,"Right",13,7,6,0,6,0,-6,-3,3
"280",9,"RHH7-RHH8",0.004402257,0.071352059,-0.0675213173,-0.0984251805,0.1614966265,0.0657960102,-0.1031789058,-0.0690262103,0.0169730057,-0.0342403603,-0.0960293793,0.0722858997,2177,"DG_s11",23.328,23.937,25.031,25.047,10,10,13,7,1.094,"Right",13,7,6,0,6,0,-6,-3,3
"281",9,"RIN2-RIN3",0.31658484715,0.05762006015,0.16331667755,0.25265654555,0.40491043315,0.53412573615,0.26932063875,0.15197005475,0.05836986115,0.06666815405,0.11701059505,0.30044234885,2177,"DG_s11",23.328,23.937,25.031,25.047,10,10,13,7,1.094,"Right",13,7,6,0,6,0,-6,-3,3
"282",9,"RTH6-RTH7",0.158860247835,0.162597746835,0.121180749835,0.098807736835,-0.001398980165,0.207211429835,0.283643719835,0.053400359835,0.071560533835,0.206445029835,0.319867279835,0.392029383835,2177,"DG_s11",23.328,23.937,25.031,25.047,10,10,13,7,1.094,"Right",13,7,6,0,6,0,-6,-3,3
"283",9,"RIN7-RIN8",0.250589058,0.152817179,0.000966216999999991,0.147997977,0.284426847,0.1437867511,0.0012446971,0.142082398,0.070289822,0.062712667,0.443249287,0.460680927,2177,"DG_s11",23.328,23.937,25.031,25.047,10,10,13,7,1.094,"Right",13,7,6,0,6,0,-6,-3,3
"284",9,"RAC4-RAC5",-0.009374506,-0.085036206,-0.108440734,-0.250399851,-0.127500441,0.102292397,0.24411648,0.119212502,0.121736456,0.356438849,0.1449812471,0.0554223241,2177,"DG_s11",23.328,23.937,25.031,25.047,10,10,13,7,1.094,"Right",13,7,6,0,6,0,-6,-3,3
"285",9,"RAC2-RAC3",-0.1059467625,-0.1055399435,-0.1087594835,-0.1064958155,-0.2368988795,-0.3005159765,-0.3367470605,-0.1876581145,-0.0734517565,-0.0791954935,-0.0861587815,-0.1272754335,2177,"DG_s11",23.328,23.937,25.031,25.047,10,10,13,7,1.094,"Right",13,7,6,0,6,0,-6,-3,3
"286",9,"RAC5-RAC6",0.3838270618,0.2407512518,0.205902007,0.2604458824,0.2171113234,0.026865918,0.082880146,0.265047116,0.313434046,0.400478286,0.167808214,-0.075708206,2177,"DG_s11",23.328,23.937,25.031,25.047,10,10,13,7,1.094,"Right",13,7,6,0,6,0,-6,-3,3
"287",9,"RTH5-RTH6",0.082806033,-0.077129243,-0.12858375,-0.04918882,-0.011645951,-0.0255471507,0.0590655213,0.038608815,0.094492345,0.203648109,0.241074999,0.28033638,2177,"DG_s11",23.328,23.937,25.031,25.047,10,10,13,7,1.094,"Right",13,7,6,0,6,0,-6,-3,3
"288",9,"ROF4-ROF5",-0.0719871634,-0.0911583661,-0.0910436837,-0.06799291943,0.13694535057,0.32299281,0.2392654232,0.2435679532,0.0287183438,-0.0932230162,0.075323787,-0.009859817,2177,"DG_s11",23.328,23.937,25.031,25.047,10,10,13,7,1.094,"Right",13,7,6,0,6,0,-6,-3,3
"289",10,"LIN8-LIN9",-0.075796119,0.093262252,0.09444877,0.076274706,0.1158667,0.16357495,0.210103063,0.197894603,0.144008927,0.021360553,0.113434063,0.271234396,2178,"DG_s11",26.047,26.656,27.703,27.718,10,10,10,26,1.047,"Left",10,26,16,0,16,16,0,0,-16
"290",10,"LOF3-LOF4",-0.335798729378,-0.197356657378,-0.139811196,-0.301554734,-0.279595914,0.144405084,0.212340084,-0.082712646,-0.226596871,-0.335231435,-0.180515037,-0.041389605,2178,"DG_s11",26.047,26.656,27.703,27.718,10,10,10,26,1.047,"Left",10,26,16,0,16,16,0,0,-16
"291",10,"RAC1-RAC2",-0.13510892485,0.01774087115,-0.06067694685,-0.05801292985,0.05102335915,-0.07910800785,-0.27389499785,-0.23925200485,-0.09016982385,0.11270305515,0.24515452415,0.21203309465,2178,"DG_s11",26.047,26.656,27.703,27.718,10,10,10,26,1.047,"Left",10,26,16,0,16,16,0,0,-16
"292",10,"RIN2-RIN3",-0.1258391301,-0.3575503911,-0.334752414,-0.309589431,-0.160098541,-0.122200703,-0.2438208051,-0.2442409071,-0.19213735,-0.242675128,-0.287419745,-0.370085585,2178,"DG_s11",26.047,26.656,27.703,27.718,10,10,10,26,1.047,"Left",10,26,16,0,16,16,0,0,-16
"293",10,"LIN7-LIN8",-0.161598595,-0.04754917,-0.14307973,0.028239608,0.376328598,0.092015257,-0.231845349,-0.031243408,-0.246699125,-0.4353380459,-0.2489695799,-0.183898982,2178,"DG_s11",26.047,26.656,27.703,27.718,10,10,10,26,1.047,"Left",10,26,16,0,16,16,0,0,-16
"294",10,"LOF4-LOF5",0.1641841739,0.0550615869,0.3380147229,0.3585769759,0.2519907392,0.3223351052,0.2504670851,0.2188704081,0.283308944,0.067282084,-0.0964048051,0.0141526909,2178,"DG_s11",26.047,26.656,27.703,27.718,10,10,10,26,1.047,"Left",10,26,16,0,16,16,0,0,-16
"295",10,"RIN7-RIN8",-0.330272048,-0.119255985,-0.140975289,-0.248405399,-0.200152547,-0.281502964,-0.346884142,-0.288364331,-0.222918621,0.005813491,-0.129596891,-0.15185825,2178,"DG_s11",26.047,26.656,27.703,27.718,10,10,10,26,1.047,"Left",10,26,16,0,16,16,0,0,-16
"296",10,"RAM6-RAM7",0.213036562,0.329033349,0.127886864,-0.032129548,-0.028892587,0.086005476,0.02806444,0.0990808622,0.2577802652,0.2161536158,0.2096570338,0.148013422,2178,"DG_s11",26.047,26.656,27.703,27.718,10,10,10,26,1.047,"Left",10,26,16,0,16,16,0,0,-16
"297",10,"RAC3-RAC4",0.1017416235,0.1133666575,-0.1724990425,-0.2329354968,-0.0804496558,-0.00535810950000001,-0.0667091605,-0.2077656705,0.0336342315,0.2882492765,0.0578321455,-0.1022327665,2178,"DG_s11",26.047,26.656,27.703,27.718,10,10,10,26,1.047,"Left",10,26,16,0,16,16,0,0,-16
"298",10,"RIN1-RIN2",-0.102724841,-0.363775681,-0.305734229,-0.2307124273,-0.1637874932,-0.2813498279,-0.34748743078,-0.40749965778,-0.434353325,-0.319698385,-0.199887985,-0.390339525,2178,"DG_s11",26.047,26.656,27.703,27.718,10,10,10,26,1.047,"Left",10,26,16,0,16,16,0,0,-16
"299",10,"RAC6-RAC7",-0.063803582515,0.007075975485,-0.244843806515,-0.235522562515,-0.146188524515,-0.136166611515,-0.206746349515,-0.275511514515,-0.199358074515,-0.188273017515,-0.086003282515,-0.060753573515,2178,"DG_s11",26.047,26.656,27.703,27.718,10,10,10,26,1.047,"Left",10,26,16,0,16,16,0,0,-16
"300",10,"LIN6-LIN7",-0.4049197493,-0.1053878433,0.1003283265,-0.0361763525,-0.1192949995,-0.1475646305,-0.1709984815,-0.00972923150000005,-0.0614452097,-0.3707008647,-0.3184529575,-0.2807576525,2178,"DG_s11",26.047,26.656,27.703,27.718,10,10,10,26,1.047,"Left",10,26,16,0,16,16,0,0,-16
"301",10,"RAM9-RAM10",-0.087213180885,0.015867684515,0.027032471515,-0.178432995685,-0.215699591685,-0.214664865685,-0.252744773685,-0.226718931685,-0.176889563685,-0.226965866685,-0.065504376685,-0.046876405785,2178,"DG_s11",26.047,26.656,27.703,27.718,10,10,10,26,1.047,"Left",10,26,16,0,16,16,0,0,-16
"302",10,"LOF2-LOF3",-0.23451646925,-0.22154585135,-0.06328744535,0.11058081765,0.00155970964999999,0.21561080965,0.30926258865,-0.14053541925,-0.13533612225,0.07591174565,-0.000841853350000005,-0.08148331335,2178,"DG_s11",26.047,26.656,27.703,27.718,10,10,10,26,1.047,"Left",10,26,16,0,16,16,0,0,-16
"303",10,"RAC4-RAC5",-0.30074550225,-0.16473192925,-0.12570685225,-0.10821520175,0.20778609825,0.28275570175,0.15875989175,0.30622972875,0.58795772875,0.37630074275,0.02281301175,0.08933892075,2178,"DG_s11",26.047,26.656,27.703,27.718,10,10,10,26,1.047,"Left",10,26,16,0,16,16,0,0,-16
"304",10,"LOF5-LOF6",-0.148509419,-0.082431301,-0.044345455,-0.033883278,-0.083725196,0.154113606,0.161061087,-0.117341792,-0.1133996698,-0.0052751498,0.00332434699999999,-0.181239374,2178,"DG_s11",26.047,26.656,27.703,27.718,10,10,10,26,1.047,"Left",10,26,16,0,16,16,0,0,-16
"305",10,"RAC2-RAC3",-0.0823349807,0.1376294393,0.0631649923,0.0051867683,0.0258099753,0.1540425813,0.0987542913,-0.05011071506,0.00682352351,0.01528982187,0.1504669003,0.1740274143,2178,"DG_s11",26.047,26.656,27.703,27.718,10,10,10,26,1.047,"Left",10,26,16,0,16,16,0,0,-16
"306",10,"RIN6-RIN7",0.19690576775,0.09629970585,0.05890772285,0.12664515975,0.08918493075,0.13408121875,0.24786695775,0.24075528165,0.23539109165,0.26952490275,0.23291387205,0.17916237105,2178,"DG_s11",26.047,26.656,27.703,27.718,10,10,10,26,1.047,"Left",10,26,16,0,16,16,0,0,-16
"307",10,"RHH8-RHH9",0.6057441546,0.4335228865,0.1961842515,0.3464335285,0.1698894145,0.1204115965,0.2893063555,0.2020243765,-0.0052027135,0.0523872465,0.1335245011,0.1207009191,2178,"DG_s11",26.047,26.656,27.703,27.718,10,10,10,26,1.047,"Left",10,26,16,0,16,16,0,0,-16
"308",10,"RAM7-RAM8",0.0138484166,-0.2366370634,-0.2069709064,-0.0476533964,0.1702905616,0.1984010616,0.1735168036,0.12637078859,0.10537346859,0.0670404836,-0.1646932064,-0.0882596404,2178,"DG_s11",26.047,26.656,27.703,27.718,10,10,10,26,1.047,"Left",10,26,16,0,16,16,0,0,-16
"309",10,"RTH6-RTH7",-0.082182672,-0.040413583,0.043779558,-0.141125196,-0.14069688,-0.116862075,-0.221584621,-0.032405678,0.080482486,0.00644882500000001,0.089538657,0.048083988,2178,"DG_s11",26.047,26.656,27.703,27.718,10,10,10,26,1.047,"Left",10,26,16,0,16,16,0,0,-16
"310",10,"ROF3-ROF4",-0.11331759015,-0.09098732815,-0.12434726415,-0.10626416315,-0.14492682315,-0.13986324435,-0.17549009035,-0.22607939695,-0.14015193695,-0.03156825815,-0.09449162015,-0.08234459515,2178,"DG_s11",26.047,26.656,27.703,27.718,10,10,10,26,1.047,"Left",10,26,16,0,16,16,0,0,-16
"311",10,"RTH7-RTH8",-0.03899851025,-0.00712343835,0.08977267465,-0.13001110335,-0.22236854935,-0.05087399635,-0.13233539335,0.20018986365,0.30846968965,-0.07611464635,-0.07284442535,-0.04479235735,2178,"DG_s11",26.047,26.656,27.703,27.718,10,10,10,26,1.047,"Left",10,26,16,0,16,16,0,0,-16
"312",10,"RAC5-RAC6",-0.39706172245,-0.30097372645,-0.20396861545,-0.13440107745,-0.17380299045,-0.28803843145,-0.12433994845,0.11274188755,0.14390319955,-0.05776287845,-0.26565198945,-0.13063189445,2178,"DG_s11",26.047,26.656,27.703,27.718,10,10,10,26,1.047,"Left",10,26,16,0,16,16,0,0,-16
"313",10,"RTH5-RTH6",-0.1873995915,-0.1353866605,-0.0618709025,-0.1904238165,-0.3069063415,-0.1544898345,-0.1191322115,-0.2141054942,-0.3812191522,-0.3124446935,-0.0802442535,-0.1504766425,2178,"DG_s11",26.047,26.656,27.703,27.718,10,10,10,26,1.047,"Left",10,26,16,0,16,16,0,0,-16
"314",10,"RAM5-RAM6",0.1734127425,0.2206914285,0.3382943715,0.4361069475,0.2934434595,0.1145342805,0.0289500085,0.3589024065,0.6196129565,0.3623977345,0.0996830995,0.1252245825,2178,"DG_s11",26.047,26.656,27.703,27.718,10,10,10,26,1.047,"Left",10,26,16,0,16,16,0,0,-16
"315",10,"RTH8-RTH9",0.05359523455,0.12516013255,0.12927098155,-0.15879592845,-0.24407827845,-0.20067988845,-0.20753397945,0.01497143055,0.37984443155,0.22564029255,-0.00156767745,0.13199557155,2178,"DG_s11",26.047,26.656,27.703,27.718,10,10,10,26,1.047,"Left",10,26,16,0,16,16,0,0,-16
"316",10,"ROF1-ROF2",0.1117478338,0.3915085668,0.2385792328,0.1008795028,0.1474513878,0.1429413708,0.2755325028,0.2295877098,0.0162512538,0.2370265538,0.3582100178,0.0510893348,2178,"DG_s11",26.047,26.656,27.703,27.718,10,10,10,26,1.047,"Left",10,26,16,0,16,16,0,0,-16
"317",10,"ROF4-ROF5",-0.0723428665,0.1132085755,-0.025751854,-0.146591582,-0.067152897,0.035229481,0.071968832,-0.158920473,-0.157399517,-0.023914761,-0.044254753,-0.106448384,2178,"DG_s11",26.047,26.656,27.703,27.718,10,10,10,26,1.047,"Left",10,26,16,0,16,16,0,0,-16
"318",10,"RHH9-RHH10",-0.0053704025,-0.0463518515,-0.0631769838,-0.088235007,0.07111302011,0.23330901831,0.1983086945,0.1314091385,0.0011008205,0.0645491675,0.1800353605,0.1170416265,2178,"DG_s11",26.047,26.656,27.703,27.718,10,10,10,26,1.047,"Left",10,26,16,0,16,16,0,0,-16
"319",10,"ROF5-ROF6",-0.03181533925,-0.12860018225,-0.16265919615,-0.15139854515,-0.25715748765,-0.28234617565,-0.04934325565,0.03700253835,0.20567368835,0.04326460535,-0.04943406965,0.20435518635,2178,"DG_s11",26.047,26.656,27.703,27.718,10,10,10,26,1.047,"Left",10,26,16,0,16,16,0,0,-16
"320",10,"RHH7-RHH8",0.5422776115,0.3710761625,0.1123264025,0.1349105605,0.0645972845,0.1252547325,0.2831503785,0.3434162985,0.1900552345,0.0350411545,0.0714115825,0.1311889405,2178,"DG_s11",26.047,26.656,27.703,27.718,10,10,10,26,1.047,"Left",10,26,16,0,16,16,0,0,-16
"321",11,"LOF4-LOF5",-0.030099502,0.197560637,0.04557738,0.073683679,0.096762589,-0.0165629,-0.046421246,-0.045671069,-0.192797246,-0.291188711,-0.251969971,0.086841614,2179,"DG_s11",28.718,29.328,30.156,30.172,10,10,13,22,0.828,"Left",13,22,9,0,9,9,0,-3,-12
"322",11,"RTH7-RTH8",-0.02271451795,0.02459195418,-0.09268388942,-0.00220392555,0.12989184485,0.06285297485,0.06123337155,0.08158193755,0.10151789875,0.17970369375,0.28179648385,0.25636163785,2179,"DG_s11",28.718,29.328,30.156,30.172,10,10,13,22,0.828,"Left",13,22,9,0,9,9,0,-3,-12
"323",11,"RAC4-RAC5",0.1471826943,0.4456291343,0.5440992743,0.3347263923,0.1131426923,0.2901273483,0.2479878473,0.3216873873,0.5113721183,0.2567821053,0.3206815753,0.2459186345,2179,"DG_s11",28.718,29.328,30.156,30.172,10,10,13,22,0.828,"Left",13,22,9,0,9,9,0,-3,-12
"324",11,"ROF5-ROF6",0.12417807215,0.02644383115,0.25791372115,0.31247411115,0.03944732115,-0.08279504385,-0.05362365485,-0.11265783285,-0.17595750985,-0.14802506385,0.08701596235,0.22090420835,2179,"DG_s11",28.718,29.328,30.156,30.172,10,10,13,22,0.828,"Left",13,22,9,0,9,9,0,-3,-12
"325",11,"RAC5-RAC6",0.118552994,0.146715845,0.234407806,0.043588687,0.118004257,0.282726896,0.024309407,0.005386791,0.173927661,0.253537535,0.3522224655,0.1365490045,2179,"DG_s11",28.718,29.328,30.156,30.172,10,10,13,22,0.828,"Left",13,22,9,0,9,9,0,-3,-12
"326",11,"RAM6-RAM7",0.255089109,0.070393973,0.2721358482,0.1918625652,0.13992025,0.326947924205,0.221560569305,0.0789876081,0.149142953,0.134468813,0.186078806,0.223961196,2179,"DG_s11",28.718,29.328,30.156,30.172,10,10,13,22,0.828,"Left",13,22,9,0,9,9,0,-3,-12
"327",11,"LOF2-LOF3",-0.4450279126,-0.36805105,-0.506311178,-0.551116222,-0.459682866,-0.306185844,-0.349794145,-0.546726827,-0.515911543,-0.471037785,-0.482268218,-0.373701532,2179,"DG_s11",28.718,29.328,30.156,30.172,10,10,13,22,0.828,"Left",13,22,9,0,9,9,0,-3,-12
"328",11,"RAC2-RAC3",0.169745149,0.062498229,-0.124936357,-0.239438196,-0.169863214,0.006682005,0.235456949,0.077472319,-0.110009059,0.100926311,-0.037425543,-0.124437269,2179,"DG_s11",28.718,29.328,30.156,30.172,10,10,13,22,0.828,"Left",13,22,9,0,9,9,0,-3,-12
"329",11,"RIN1-RIN2",-0.4022712319,-0.3624052709,-0.3980180239,-0.3269350239,-0.0523556779,-0.1013855859,-0.2540897159,-0.4422577979,-0.6192147979,-0.4920427739,-0.2252936139,-0.2453437869,2179,"DG_s11",28.718,29.328,30.156,30.172,10,10,13,22,0.828,"Left",13,22,9,0,9,9,0,-3,-12
"330",11,"LIN6-LIN7",0.057411692,-0.150959936,-0.235930393,-0.22381838,-0.211109004,-0.164382393,-0.308554934,-0.20507913,0.051856761,0.020393113,-0.08841967,0.13678398,2179,"DG_s11",28.718,29.328,30.156,30.172,10,10,13,22,0.828,"Left",13,22,9,0,9,9,0,-3,-12
"331",11,"RAM9-RAM10",0.2369562293,0.0887233493,-0.0650458487,-0.2335707867,-0.2669951847,-0.0256694207,0.1907971693,0.2206785083,0.1495695483,0.0408198353,-0.0719124338,-0.2345133938,2179,"DG_s11",28.718,29.328,30.156,30.172,10,10,13,22,0.828,"Left",13,22,9,0,9,9,0,-3,-12
"332",11,"LOF5-LOF6",-0.0768111016,0.0413114996,0.0779900167,-0.0144783955,-0.0576350925,0.1289263215,0.1675752105,-0.0790471225,-0.1715782285,-0.0690133925,0.0079010425,0.0428741571,2179,"DG_s11",28.718,29.328,30.156,30.172,10,10,13,22,0.828,"Left",13,22,9,0,9,9,0,-3,-12
"333",11,"RTH5-RTH6",0.101146460987,-0.016707866413,0.190557169587,0.119945186887,-0.130162036213,-0.003508518313,0.170069544787,0.064256351787,-0.129460163213,0.124840392787,0.384344707787,0.135747647787,2179,"DG_s11",28.718,29.328,30.156,30.172,10,10,13,22,0.828,"Left",13,22,9,0,9,9,0,-3,-12
"334",11,"RTH6-RTH7",-0.2218344635,-0.2609112495,-0.2454632315,-0.2468076524,-0.2011729874,-0.1552516825,-0.0722342435,-0.1464636255,-0.2467334185,-0.0445581125,-0.00329025379999998,0.00144804620000002,2179,"DG_s11",28.718,29.328,30.156,30.172,10,10,13,22,0.828,"Left",13,22,9,0,9,9,0,-3,-12
"335",11,"RAC1-RAC2",0.44531073095,0.39001558195,0.08356241695,0.02991442995,0.16095782095,0.22092860895,0.46785342135,0.64426654335,0.42610230295,0.25269578595,0.19146673595,0.40677343295,2179,"DG_s11",28.718,29.328,30.156,30.172,10,10,13,22,0.828,"Left",13,22,9,0,9,9,0,-3,-12
"336",11,"LIN8-LIN9",-0.0811423424,-0.1936701885,-0.2368931375,-0.1204672605,-0.1575363435,-0.3003240225,-0.2780126915,-0.0911827504,-0.0838905594,-0.1107650495,-0.1823777545,-0.1803971415,2179,"DG_s11",28.718,29.328,30.156,30.172,10,10,13,22,0.828,"Left",13,22,9,0,9,9,0,-3,-12
"337",11,"LOF3-LOF4",0.162535404,0.092303691,-0.162108375,-0.197765842,-0.151747476,-0.023252096,0.1043517038,0.00168718780000002,-0.181628288,-0.308751532,-0.2502878704,0.0965950906,2179,"DG_s11",28.718,29.328,30.156,30.172,10,10,13,22,0.828,"Left",13,22,9,0,9,9,0,-3,-12
"338",11,"RAM5-RAM6",0.23883302955,0.42341249955,0.15472638955,0.03378769955,-0.14235004045,0.05331879155,0.22526694155,0.09347523255,0.06785293255,-0.11993660645,-0.28860090645,-0.000417688550000003,2179,"DG_s11",28.718,29.328,30.156,30.172,10,10,13,22,0.828,"Left",13,22,9,0,9,9,0,-3,-12
"339",11,"RHH8-RHH9",0.2967467125,0.2101248525,-0.1067545505,-0.0124124432503,0.1084455547497,0.1454023175,0.1709221275,-0.00232094552,-0.10101779152,-0.0658564255,-0.1415691795,-0.0585567425,2179,"DG_s11",28.718,29.328,30.156,30.172,10,10,13,22,0.828,"Left",13,22,9,0,9,9,0,-3,-12
"340",11,"ROF4-ROF5",0.011602252,0.00229156400000001,0.160618984,0.139682268,0.046844047,-0.06325667,-0.0874336322,-0.0491986452,0.096566153,0.118930215,0.0492282411,-0.0457372189,2179,"DG_s11",28.718,29.328,30.156,30.172,10,10,13,22,0.828,"Left",13,22,9,0,9,9,0,-3,-12
"341",11,"RIN2-RIN3",-0.1454912027,0.0841812906,0.0531456866,-0.1174566547,-0.1147402437,-0.0042869141,0.0438984469,-0.0911494857,-0.1003789207,0.0164841613,0.1941300843,0.2308867243,2179,"DG_s11",28.718,29.328,30.156,30.172,10,10,13,22,0.828,"Left",13,22,9,0,9,9,0,-3,-12
"342",11,"RIN7-RIN8",-0.040666751955,0.065306832045,0.029308157555,0.304536667555,0.452327262045,0.209471711045,-0.004058762155,-0.172223007155,-0.080339884355,-0.139298485355,-0.146870878955,0.022831666045,2179,"DG_s11",28.718,29.328,30.156,30.172,10,10,13,22,0.828,"Left",13,22,9,0,9,9,0,-3,-12
"343",11,"RAC6-RAC7",-0.0670791895,0.0007629295,0.1150514359,0.0250259389,0.1104331955,0.2264813075,0.2344111375,0.0250165685,0.0092020885,0.1446344255,0.0295386945,0.0946600375,2179,"DG_s11",28.718,29.328,30.156,30.172,10,10,13,22,0.828,"Left",13,22,9,0,9,9,0,-3,-12
"344",11,"ROF3-ROF4",0.129434858,-0.011556707,0.032824585,0.259001554,0.344862938,0.299841127,0.00522115,0.012129288,-0.013873912,-0.189911592,-0.0894406881,0.2768172739,2179,"DG_s11",28.718,29.328,30.156,30.172,10,10,13,22,0.828,"Left",13,22,9,0,9,9,0,-3,-12
"345",11,"RTH8-RTH9",0.03667093985,0.27114977785,0.13504779385,0.00914679655,0.08263276055,0.08107372485,0.03657427685,-0.12435435715,-0.08923315315,0.02211746885,0.00939838285,0.02673068185,2179,"DG_s11",28.718,29.328,30.156,30.172,10,10,13,22,0.828,"Left",13,22,9,0,9,9,0,-3,-12
"346",11,"ROF1-ROF2",-0.334359298,-0.1986631973,0.0732097727,0.16748083158,0.10019730158,0.218834126,0.194849366,-0.12575054,-0.158424136,-0.081787361,-0.205739878,-0.081659697,2179,"DG_s11",28.718,29.328,30.156,30.172,10,10,13,22,0.828,"Left",13,22,9,0,9,9,0,-3,-12
"347",11,"LIN7-LIN8",-0.00852878949999997,-0.1541914295,-0.0839410195,0.0767770605,-0.1635736735,-0.2756187815,-0.2772936555,-0.1730913285,-0.3331793005,-0.3791199875,-0.2656539115,-0.1936962735,2179,"DG_s11",28.718,29.328,30.156,30.172,10,10,13,22,0.828,"Left",13,22,9,0,9,9,0,-3,-12
"348",11,"RHH9-RHH10",0.140450672,0.115014092,-0.004666217,-0.0258788188,0.0952046402,0.071342897,-0.133678308,-0.187468151,-0.055592257,0.037788202,0.226277684,0.196003823,2179,"DG_s11",28.718,29.328,30.156,30.172,10,10,13,22,0.828,"Left",13,22,9,0,9,9,0,-3,-12
"349",11,"RAC3-RAC4",-0.16455596795,-0.11656515495,-0.06096915895,0.03175248105,0.27557956405,0.13604136005,0.03174905005,0.21663179405,-0.00875074195,-0.26534134945,-0.13722370345,-0.17610705695,2179,"DG_s11",28.718,29.328,30.156,30.172,10,10,13,22,0.828,"Left",13,22,9,0,9,9,0,-3,-12
"350",11,"RAM7-RAM8",-0.0831240585,-0.0185308315,0.2549264525,0.2255793379,0.0217582419,0.0517423305,-0.0871530925,-0.1189923615,-0.0906820895,0.0462355895,0.1547939838,-0.0109251162,2179,"DG_s11",28.718,29.328,30.156,30.172,10,10,13,22,0.828,"Left",13,22,9,0,9,9,0,-3,-12
"351",11,"RIN6-RIN7",0.0820069035,-0.0112146505,0.1428864025,0.6803123565,0.4813515625,0.1131287125,0.2537482065,0.1674554515,-0.0474839795,-0.0354090885,0.0018679795,-0.0258925045,2179,"DG_s11",28.718,29.328,30.156,30.172,10,10,13,22,0.828,"Left",13,22,9,0,9,9,0,-3,-12
"352",11,"RHH7-RHH8",0.01817902815,-0.16099907985,-0.25532191185,-0.08634553185,-0.09787719085,-0.14513959085,0.14281364115,0.31962672115,-0.02094340052,-0.06848334052,0.11862587115,0.13754594115,2179,"DG_s11",28.718,29.328,30.156,30.172,10,10,13,22,0.828,"Left",13,22,9,0,9,9,0,-3,-12
"353",12,"RAC6-RAC7",-0.12435496875,-0.10438280975,-0.12093081275,0.06668498525,-0.04198375275,-0.21780101255,-0.15242094455,-0.04814765475,0.08157674525,0.18492381525,0.05878568925,-0.16542509645,2180,"DG_s11",31.172,31.781,33.125,33.14,10,10,16,4,1.344,"Right",16,4,12,0,12,0,-12,-6,6
"354",12,"LOF3-LOF4",0.11109471645,0.14850987045,-0.05279237955,-0.08314727455,0.38485305845,0.43758147645,-0.01305913055,-0.08575307825,-0.08790803125,-0.16816703455,-0.14233601455,-0.24562553955,2180,"DG_s11",31.172,31.781,33.125,33.14,10,10,16,4,1.344,"Right",16,4,12,0,12,0,-12,-6,6
"355",12,"RTH8-RTH9",0.0554011219,0.0619263864,0.0373260386,0.0511139266,0.0229179646,-0.0425988714,-0.0358389274,0.0484666986,0.0844689346,-0.0396040964,-0.0459333917,0.0994627133,2180,"DG_s11",31.172,31.781,33.125,33.14,10,10,16,4,1.344,"Right",16,4,12,0,12,0,-12,-6,6
"356",12,"RAM9-RAM10",-0.05108251595,0.01478802405,0.06606419005,0.19655460105,-0.05004750395,-0.13258173955,-0.10445746755,-0.05003517295,0.02682239245,-0.06633204755,-0.24711187495,-0.19529217925,2180,"DG_s11",31.172,31.781,33.125,33.14,10,10,16,4,1.344,"Right",16,4,12,0,12,0,-12,-6,6
"357",12,"LOF2-LOF3",0.1307390399,0.2144355449,0.1681159849,0.000149863900000003,0.4953929929,0.8359666389,0.2265882979,0.1655214679,0.1703727699,-0.0633070661,-0.0145806961,0.0931961819,2180,"DG_s11",31.172,31.781,33.125,33.14,10,10,16,4,1.344,"Right",16,4,12,0,12,0,-12,-6,6
"358",12,"RAM7-RAM8",-0.1887322697,-0.2088824267,-0.1920745117,0.3445017153,0.3591814553,0.0282417303,0.2657533203,0.2497751953,-0.0916930277,-0.0160358177,0.000410235300000006,-0.1298358947,2180,"DG_s11",31.172,31.781,33.125,33.14,10,10,16,4,1.344,"Right",16,4,12,0,12,0,-12,-6,6
"359",12,"RIN6-RIN7",-0.111860274,-0.07044198,-0.05810164,-0.064515301,0.08318138,0.0594861945,-0.0794502765,-0.070866074,0.00333646600000001,0.243166359,0.335339992,0.233528243,2180,"DG_s11",31.172,31.781,33.125,33.14,10,10,16,4,1.344,"Right",16,4,12,0,12,0,-12,-6,6
"360",12,"RAM6-RAM7",-0.2991881295,-0.2427621502,-0.1992678532,0.1109722375,0.1186788495,-0.1553117065,-0.2590252415,-0.1671490955,0.000276640500000008,-0.0059470455,-0.0221544605,-0.0888345155,2180,"DG_s11",31.172,31.781,33.125,33.14,10,10,16,4,1.344,"Right",16,4,12,0,12,0,-12,-6,6
"361",12,"RAC4-RAC5",-0.1901596265,-0.0292547595,0.0024742085,-0.00565444850000001,0.1046650545,0.0424847325,-0.1479969411,0.0620206739,0.2200298755,0.1335032325,0.0622939615,0.0280154775,2180,"DG_s11",31.172,31.781,33.125,33.14,10,10,16,4,1.344,"Right",16,4,12,0,12,0,-12,-6,6
"362",12,"LIN7-LIN8",0.13918672355,0.13477680355,0.11047870255,0.01005405955,-0.07893358145,-0.000681932450000006,-0.11411079345,-0.13321175745,0.04329846355,0.26710999355,0.35178697555,0.19448354355,2180,"DG_s11",31.172,31.781,33.125,33.14,10,10,16,4,1.344,"Right",16,4,12,0,12,0,-12,-6,6
"363",12,"RIN2-RIN3",-0.1013602095,-0.0226673796,0.0441582035,0.1915906455,0.1945229055,0.1384579675,0.2373739815,0.0807711185,-0.0296998575,0.0323681235,0.1223689935,0.1549416755,2180,"DG_s11",31.172,31.781,33.125,33.14,10,10,16,4,1.344,"Right",16,4,12,0,12,0,-12,-6,6
"364",12,"RAC5-RAC6",0.00386099705,-0.00181473895,0.00729324805,0.02898201505,0.03943092505,-0.03634164195,-0.29133072095,-0.03313490405,0.23587955385,0.33653951695,0.29059358805,0.12063273805,2180,"DG_s11",31.172,31.781,33.125,33.14,10,10,16,4,1.344,"Right",16,4,12,0,12,0,-12,-6,6
"365",12,"RHH9-RHH10",-0.323679792135,-0.154735204135,-0.199294323135,-0.267541959135,-0.271757864135,-0.145630894135,0.085475944865,0.020514925865,-0.211202189135,-0.211141594135,-0.249106215135,-0.279212283135,2180,"DG_s11",31.172,31.781,33.125,33.14,10,10,16,4,1.344,"Right",16,4,12,0,12,0,-12,-6,6
"366",12,"RTH6-RTH7",0.4799607645,0.3732921331,0.0716716131,0.0383407195,0.2009650995,0.2249164265,0.1866946955,0.2460261915,0.1623264485,0.0841792082,-0.0208563578,-0.1231206375,2180,"DG_s11",31.172,31.781,33.125,33.14,10,10,16,4,1.344,"Right",16,4,12,0,12,0,-12,-6,6
"367",12,"RTH7-RTH8",0.146498125,-0.048535095,0.008176323,0.008014573,0.0590612844,0.2604164344,0.086192516,0.067889926,0.080693795,0.111926195,0.172918254,0.0781897644,2180,"DG_s11",31.172,31.781,33.125,33.14,10,10,16,4,1.344,"Right",16,4,12,0,12,0,-12,-6,6
"368",12,"ROF5-ROF6",-0.01170261047295,-0.11238263247295,-0.08867129047295,-0.03716205247295,-0.09960099247295,-0.14048969747295,-0.29523514747295,-0.17304199647295,0.10686548252705,0.01414954652705,-0.14572553847295,-0.09561097047295,2180,"DG_s11",31.172,31.781,33.125,33.14,10,10,16,4,1.344,"Right",16,4,12,0,12,0,-12,-6,6
