"","trial","time_1","time_2","time_3","time_4","time_5","time_6","time_7","time_8","time_9","time_10","time_11","time_12","time_13","time_14","time_15","time_16","time_17","time_18","time_19","time_20","time_21","time_22","time_23","time_24","time_25","time_26","time_27","time_28","time_29","time_30","time_31","time_32","time_33","time_34","time_35","time_36","time_37","time_38","time_39","time_40","time_41","time_42","time_43","electrodes","X","SID","newround_time","choice_time","buttonpress_time","reveal_time","self_payoff","other_payoff","self_foregone","other_foregone","RT","side_chosen","self_var_payoff","other_var_payoff","ineq_var_abs","ineq_choice_abs","ineq_foregone_abs","ineq_disadvent","ineq_advent","ineq_disadvent_choice","ineq_advent_choice","ineq_choice","chose_equality","self_diff","other_diff","L_self","R_self","L_other","R_other"
"1",1,-0.321178648199449,-0.0735687558193288,0.189972063773483,0.204775340245294,-0.0861900637719906,-0.498151619418937,-0.746232865231867,-0.714713673511123,-0.478720363241941,-0.342734748433001,-0.453593163158884,-0.77225570200652,-1.19469462192602,-1.29379840948008,-1.03034714716804,-0.906239758544404,-1.06563422269069,-1.53711266553509,-2.0058653838386,-2.1583248801643,-2.07435023185719,-1.69706546463217,-0.896553418684097,-0.173345784051454,0.221310201164648,0.281395131965614,0.119458017531713,-0.0138711604016635,0.00189807510229745,0.0974914207020872,0.175295657740208,0.172497800937224,0.111858586439019,0.0516602567786757,0.0116804622881759,-0.0294643603232121,-0.201707579655571,-0.491258335229918,-0.890857329505423,-1.46932920522099,-1.81067886642104,-1.71021176633399,-1.52984832193163,"LOF3-LOF4",2397,"DG_s12",-0.703,0,0.75,0.75,10,18,10,10,0.75,"Right",10,18,8,8,0,8,0,8,0,-8,"Disadvent",0,8,10,10,10,18
"2",1,-0.0364588007699886,-0.134729221761546,0.010346579420057,0.160841443111478,0.159634952043973,-0.212411608684564,-0.986127029031393,-1.54262032420831,-1.28257941508727,-0.549637193800107,0.162166904204435,0.582611476913664,0.860793057018057,1.04728250027659,1.01931604912959,0.675548113312239,0.0656910142166414,-0.523004461234508,-0.625634400714668,-0.468264717508376,-0.431786002503477,-0.320451328029934,0.0660556329455098,0.475973814855593,0.605422140999728,0.366187228902623,-0.107081741482386,-0.641041381703223,-1.17216848011568,-1.42889669185337,-1.03744030523549,-0.604676138011484,-0.476212982356786,-0.728945261120896,-1.20379254086544,-1.70078330346327,-2.00455644112221,-1.46952289659212,-0.838505918599741,-0.325929453737535,0.0180953092905964,0.119075744665761,-0.0328668165538408,"RIN3-RIN4",2397,"DG_s12",-0.703,0,0.75,0.75,10,18,10,10,0.75,"Right",10,18,8,8,0,8,0,8,0,-8,"Disadvent",0,8,10,10,10,18
"3",1,0.272531066464516,0.252226064606742,-0.122411204018491,-0.402345927052769,-0.213743687242475,0.0725387388239422,0.210966219754706,0.10034977718508,0.00238512460133933,0.252962141612596,0.713632801003618,1.07399787762234,1.30108784593918,1.37921521113864,1.23447112728899,0.818437791032865,0.430361851716812,0.724269006316145,1.28871196664397,1.74345350523855,2.05792240469916,2.2413203704236,2.29838183094649,2.19541441209518,1.84054873732101,1.17372339976153,0.439660474647191,0.177894533258216,0.0309413780814332,-0.197016545862045,-0.309825264992217,-0.34453687544543,-0.637670858190374,-1.25115467412815,-1.43819405951849,-1.28031265793803,-1.26030234706493,-1.50108473874191,-1.45835748476675,-1.27557532748708,-1.63604876526967,-1.77870523944826,-0.870837580303211,"RIN2-RIN3",2397,"DG_s12",-0.703,0,0.75,0.75,10,18,10,10,0.75,"Right",10,18,8,8,0,8,0,8,0,-8,"Disadvent",0,8,10,10,10,18
"4",1,0.31321641374716,0.0754857705043932,-0.0640895744235426,-0.324612609828007,-0.807815596832409,-1.35503634748952,-1.682310284858,-2.03624194594713,-2.69354061479303,-3.47857215776909,-3.38717699226448,-2.59840088553437,-2.09415606740398,-1.8215830883302,-1.32021926446131,-0.850127900751614,-0.600075754787062,-0.284027113006816,0.22566987555494,0.608087994022107,0.731789898833824,0.690473789738578,0.698924040266924,0.794622857900565,0.859172276159196,0.795618675549081,0.614967863221576,0.350620772152251,-0.0377222615160431,-0.51125333243829,-0.994201796874886,-1.36665719776069,-1.48073830429638,-1.64942433667599,-2.11578489117339,-2.75224897387943,-2.97191928825116,-3.01167853337933,-2.45118278058572,-1.54998052125277,-0.936025672299611,-0.691159972511809,-0.765322972867498,"RAM7-RAM8",2397,"DG_s12",-0.703,0,0.75,0.75,10,18,10,10,0.75,"Right",10,18,8,8,0,8,0,8,0,-8,"Disadvent",0,8,10,10,10,18
"5",1,0.428640693563841,-0.146092780150056,-0.325584760341174,0.0430368469273876,0.281390657672075,0.190361240410461,-0.218469406572442,-0.462101993674622,0.408421711661525,1.46659845566215,2.21580429097975,2.62355887406466,2.75533473018871,2.77666866726726,2.81538221486409,2.76301186455661,2.58462231236601,2.4365228468205,2.40872880478744,2.48858518326417,2.533183213502,2.43273591844637,2.21121402684242,2.14772656812532,2.29269609699089,2.34148567240571,2.11812131367148,1.63380895529455,1.0073038166872,0.578681778566178,0.475606455858937,0.290038365657198,-0.229127027432863,-0.948983230693818,-1.1357735374963,-0.611770397135714,-0.171010333738645,-0.0253765687628604,-0.171300883606309,-0.437114606785867,-0.301911942825226,0.159217281568043,0.304858839678204,"RAM6-RAM7",2397,"DG_s12",-0.703,0,0.75,0.75,10,18,10,10,0.75,"Right",10,18,8,8,0,8,0,8,0,-8,"Disadvent",0,8,10,10,10,18
"6",1,0.773192005029021,0.284210166682374,-0.235817278393156,-0.821584893318239,-1.66236018005557,-2.65216231546083,-2.37527876241334,-1.35943198158961,-0.763132336389822,-0.392392296625305,-0.0357139270963858,0.247136695538832,0.480478179157876,0.677857263294725,0.795255179190423,0.867276264729858,0.973239242727719,1.00380423234243,0.798842140691456,0.30229521523921,-0.392186781981663,-1.06552999215138,-1.50165302219398,-1.60261920195207,-1.68875978524285,-1.91511147788264,-1.76140737540652,-1.54967382018037,-1.14918317636007,-0.393900695951415,0.348578889683398,0.875311546842192,1.23732368339984,1.54014733889053,1.77238495883315,1.86710877933975,1.80761455804223,1.62456397219152,1.32586683950906,0.808423982743932,-0.00736855086554034,-0.92417221087106,-1.18978919439962,"LOF5-LOF6",2397,"DG_s12",-0.703,0,0.75,0.75,10,18,10,10,0.75,"Right",10,18,8,8,0,8,0,8,0,-8,"Disadvent",0,8,10,10,10,18
"7",1,0.750968522063401,0.213387423257386,-0.292995111889308,-0.671360833431477,-0.989539147413929,-1.30312900538021,-1.23615194275579,-0.582374169496164,0.290375233570748,1.12365351344789,1.76917203345819,2.12753382798517,2.12255970155616,1.71572698341022,1.08328274853595,0.827257995954859,1.09403302734214,1.42522988576444,1.57251090215586,1.54347440410693,1.43860443805753,1.30863772085862,1.10752698546153,1.06982585917534,1.3052142038208,1.53745845365883,1.61251560907735,1.55735078856676,1.36175904371281,0.983141578249041,0.439343355872532,-0.204043666380182,-0.629359831855675,-0.529031058060491,-0.215707880673358,0.0562331260174531,0.195913911089423,0.206284019286002,0.0609176567483942,-0.291135876119158,-0.901722390581972,-1.71092478560612,-2.07064100898112,"RAM5-RAM6",2397,"DG_s12",-0.703,0,0.75,0.75,10,18,10,10,0.75,"Right",10,18,8,8,0,8,0,8,0,-8,"Disadvent",0,8,10,10,10,18
"8",1,0.0488349426710615,-0.097288031623826,0.0159607112746345,0.0324923776781292,-0.263697266491051,-0.912675920411067,-1.46802442460206,-1.43984471250334,-1.13728730204671,-0.879440387956313,-0.847127479166808,-1.07380001058735,-1.26218716428212,-1.3640689304212,-1.41260932030749,-1.33847678356117,-1.34741812337753,-1.40652350029834,-1.37705264639633,-1.07327936068201,-0.578609256925916,-0.0853033247521662,0.312785335365097,0.486829356844853,0.304018745846223,-0.250969625007539,-0.940463931585422,-1.33282457729422,-1.26778754980525,-1.13699356356976,-0.990207658914159,-0.792849486446544,-0.727598494805533,-0.807177213519821,-0.952547692915127,-0.849866402917564,-0.482622083591648,-0.260201353960303,-0.312035811619007,-0.665571413423858,-1.24706428026879,-1.40566931044543,-1.26370469950441,"LOF4-LOF5",2397,"DG_s12",-0.703,0,0.75,0.75,10,18,10,10,0.75,"Right",10,18,8,8,0,8,0,8,0,-8,"Disadvent",0,8,10,10,10,18
"9",1,0.559105738829814,0.353063230818243,-0.153155091365312,-0.759013878282746,-0.971353635446947,-0.904144558142491,-0.900444983501087,-0.936931317807764,-0.914242544324278,-0.829957822057358,-0.600418385838703,-0.284664822651452,-0.165664345394019,-0.388789600622676,-0.982256785439988,-1.80383367996057,-1.51286185258915,-0.412224702438376,0.360182552431842,0.745990363975304,0.789047374425921,0.543095104493414,0.140827559036952,-0.259399361268446,-0.711063029458002,-1.35376072718207,-2.04633181555133,-2.38991508878528,-2.51333744760446,-2.54879358909336,-2.0118960749744,-1.41709623295769,-1.06034454991907,-0.776735218198672,-0.548330733497469,-0.34850125744312,-0.104048342999045,0.161206069393472,0.349134638747278,0.485483088429396,0.544822842307118,0.483114233923127,0.256924965804577,"RIN1-RIN2",2397,"DG_s12",-0.703,0,0.75,0.75,10,18,10,10,0.75,"Right",10,18,8,8,0,8,0,8,0,-8,"Disadvent",0,8,10,10,10,18
"10",1,0.608863751482193,0.252021582329125,-0.247150399268161,-0.613734934543156,-0.845339455489694,-0.787777843136719,-0.229876772757093,0.234604463978501,0.463709421492496,0.570590360822651,0.599583532329365,0.462611525682306,0.152639663740534,0.263749681889621,0.931722226177081,1.48327216921659,1.73587741274365,1.68994535472932,1.39238835413677,0.909159304694189,0.264732000239731,-0.436345862387148,-0.690127182883665,-0.317553689457421,0.0339950918744361,0.117016883416932,-0.00538752308575319,-0.236632562881324,-0.41146674710566,-0.319472922353615,-0.124135767433752,-0.0449848492759344,-0.119602995672242,-0.327428925263392,-0.491173106494692,-0.0805259847681485,0.504806433056764,0.881678327284474,0.972521314600879,0.773949691192451,0.350269537611061,-0.125849112169195,-0.491173106494692,"LIN1-LIN2",2397,"DG_s12",-0.703,0,0.75,0.75,10,18,10,10,0.75,"Right",10,18,8,8,0,8,0,8,0,-8,"Disadvent",0,8,10,10,10,18
"11",2,1.20968718247717,0.0598179788380389,-0.776358089974888,-0.493147071340321,0.0867668226577667,0.405821908221137,1.07513677713408,1.54377256402231,1.82668863080113,1.96754567461734,2.05627946595544,2.07474178702413,1.91182904165342,1.60990501355865,1.49331245423334,1.40999873735886,1.24946982991412,1.71889206034543,2.96356009310123,4.12189401115928,4.92862287951544,5.50918084831992,6.0004322430594,6.43717260792069,6.71840806178274,6.77176547236573,6.65652499754158,6.57053837126953,6.65524742305557,6.75709472213213,6.6646630494911,6.31553989075004,5.72384326968115,4.98413899112638,4.22269797502092,3.43477233137673,2.79829142378066,2.84893216919506,2.95143623113056,2.71392914225676,2.51927622171221,3.00022804307356,3.41644453309842,"RAM7-RAM8",2398,"DG_s12",1.75,2.453,3.375,3.375,12,12,10,10,0.922,"Left",12,12,0,0,0,0,0,0,0,0,"Equal",2,2,12,10,12,10
"12",2,0.0556151370231159,0.109164732351418,0.0213253101364437,-0.186105179510978,-0.51094541957492,-0.868766878906053,-0.969488695035869,-0.791261657088514,-0.595766459349104,-0.603376751209725,-0.724091443783053,-0.47060879958774,0.0128406964278049,0.230076722736344,0.0473850394964401,-0.462118555987985,-0.759287484554065,-0.300770593977683,0.346519516918429,0.880104549727351,1.2274247950479,1.32952310786348,1.12232631271441,0.641393000359731,0.307891998986134,0.579555966682321,1.00649938704289,1.35634755138384,1.59842925854648,1.7018035936201,1.5937434583343,1.26277391928394,0.846521325123177,0.55754082163042,0.51099465673555,0.643374804449499,0.791257811806842,0.802373325712882,0.663950012574361,0.493721137315175,0.317412301382243,0.081628418667961,-0.177540300452534,"RIN1-RIN2",2398,"DG_s12",1.75,2.453,3.375,3.375,12,12,10,10,0.922,"Left",12,12,0,0,0,0,0,0,0,0,"Equal",2,2,12,10,12,10
"13",2,-1.30522014918653,-0.575328796780419,0.478418965929334,1.40212998003761,1.98014181672657,2.20698877020008,2.18248685330822,1.98020089568562,1.87783569921703,1.99387200953848,2.08690156569127,2.10557599911848,2.12758549514018,2.11970337837769,2.01736998080578,1.83327088884769,1.56952343199867,1.12435753827876,0.453388117797795,-0.0429030858224575,-0.226091670151923,-0.281805630535645,-0.102021137033365,0.401249956641294,0.910475538774536,1.13633935670832,1.10631653496551,0.995737706985722,0.997664824646593,1.15967942929166,1.36472780463932,1.60013851545096,1.79944955934026,1.79583317532449,1.52059964051561,1.1090166984744,0.774296371134298,0.518326001659739,0.447195471870545,0.673513793822794,1.04771065525015,1.30120257031982,1.33445037449004,"RIN2-RIN3",2398,"DG_s12",1.75,2.453,3.375,3.375,12,12,10,10,0.922,"Left",12,12,0,0,0,0,0,0,0,0,"Equal",2,2,12,10,12,10
"14",2,0.114248413074666,0.0228437759630244,-0.0125775732238553,-0.124514615813833,-0.209987932724842,-0.272866420712095,-0.560640485252621,-1.11281850074211,-1.40581650552151,-0.997978939619281,-0.347222083155147,0.0813263724752709,0.205062668622604,0.127803841879642,-0.0792029331332786,-0.248467763745517,-0.43775277940565,-0.641398975972209,-0.492257019491266,0.109395934272355,0.77137026947152,1.35624604929036,1.83208407294943,2.25306457640817,2.50881636896935,2.48132322838916,2.26839726096848,2.32124533634832,2.83362296635917,3.37669572833323,3.67271465607407,3.6801588591858,3.43035183334153,2.97003993376442,2.34996873352254,1.68587872961221,1.18995833455087,0.927216941941635,0.710827596251104,0.440113147478646,0.131555614531832,-0.111709839081422,-0.220364217022469,"RAM5-RAM6",2398,"DG_s12",1.75,2.453,3.375,3.375,12,12,10,10,0.922,"Left",12,12,0,0,0,0,0,0,0,0,"Equal",2,2,12,10,12,10
"15",2,-0.09021140018372,-0.140492133911938,-0.00302964592553057,0.233733180021189,0.304098628056202,0.181201771437386,0.090516605742466,0.0768887841116062,0.313936711426379,0.659708290093866,0.738446018278564,0.471426897660656,-0.139047394917563,-0.843137476947636,-0.346544393512661,0.697617610027795,1.43251634683852,1.76337059115551,1.75905308195781,1.59444686796392,1.60873189758052,1.87711344089171,2.11285598519149,2.22142797470427,2.21571717701676,2.11149207406292,1.94803681490872,1.88134385696027,1.94615232006196,1.96366462459204,1.79002139597158,1.44656559678166,1.18917793445178,1.08135154155838,0.951885125539217,0.745425377054103,0.627416849758108,0.74024536823,0.920177339602763,0.992003582490456,0.875866168666258,0.538674548107283,0.000453779090861417,"LOF4-LOF5",2398,"DG_s12",1.75,2.453,3.375,3.375,12,12,10,10,0.922,"Left",12,12,0,0,0,0,0,0,0,0,"Equal",2,2,12,10,12,10
"16",2,0.78461234967102,0.101798176581927,-0.671746600245611,-0.214663926007337,0.73121753730529,1.42750403141326,1.89020653833273,2.02943320680961,1.85148453103591,1.4992827346157,1.2739186746832,1.2942080366237,1.36925968110322,1.22579518097162,0.856228127866788,0.940824171574032,1.75430956165471,2.38420538939948,2.75088498677587,3.10256641017674,3.53295585783996,3.88099861006276,4.0136265158619,3.91129525014937,3.60305005102413,3.16888872946232,2.79143165089791,2.93529772556282,3.34266877602143,3.6046997626988,3.58367441015671,3.21336511693435,2.626650524646,2.39468923191096,2.6717881495886,2.8890297749893,2.87393059034927,2.62830510675494,2.25249887622814,1.92930596372282,1.70221744080009,1.34940362040252,0.833253245037794,"LOF5-LOF6",2398,"DG_s12",1.75,2.453,3.375,3.375,12,12,10,10,0.922,"Left",12,12,0,0,0,0,0,0,0,0,"Equal",2,2,12,10,12,10
"17",2,0.37719666656219,-0.256012276989565,-0.185455157284638,0.0642707677120145,-0.125232819774319,-0.491534495769621,-0.343895180463671,-0.168855010763017,-0.309937692147165,-0.697335808728738,-0.736578963692277,-0.389530304828959,-0.0387854505980005,0.109603771498478,-0.0199063115195557,-0.28276252274426,-0.252756553251785,0.066886921522352,0.140012908188637,0.374567984006988,1.02724731993876,1.5691132630994,1.77541062431854,1.63339995900774,1.24769826094824,0.854649070457154,0.818801332258574,1.03459093284413,1.16129711589268,1.08733365060951,0.806868564112718,0.37889807063064,0.0120834552670583,0.0671771832437065,0.625147039646198,1.27417337035978,1.71980171029203,1.92976160259115,1.96301454268603,1.90082221972945,1.84608475714722,1.86696598646225,1.8515085323841,"LIN1-LIN2",2398,"DG_s12",1.75,2.453,3.375,3.375,12,12,10,10,0.922,"Left",12,12,0,0,0,0,0,0,0,0,"Equal",2,2,12,10,12,10
"18",2,-1.03509581240912,-0.258494655847323,0.436901804424804,0.856688663831639,0.985333159074656,0.761596730736827,0.667112247793424,0.826845427485233,0.687162852289143,0.222922927760157,-0.39281519301859,-0.359556610763525,0.0312657331832016,0.226726935607875,0.290462838584668,0.27576674360573,-0.0120874903339514,-0.363333148654796,0.491965942529957,1.74818984062375,2.70363648746713,3.33978009581721,3.82171748593242,4.18439845393136,4.39717058159972,4.42950088492785,4.36789006140115,4.48224860058389,4.80743349502037,5.04990486511986,5.04961405472619,4.74874083111669,4.09688026958678,3.17203147275653,2.2825845279119,1.54856714495934,0.88054009580603,0.706595564422936,1.06322202143355,1.18767536264132,1.05927177365769,1.32533922427598,1.90765124324035,"RAM6-RAM7",2398,"DG_s12",1.75,2.453,3.375,3.375,12,12,10,10,0.922,"Left",12,12,0,0,0,0,0,0,0,0,"Equal",2,2,12,10,12,10
"19",2,-0.824254883216187,-0.214747838994762,0.347543082101415,0.691459640109535,0.78804841692607,0.685918500390418,0.530899237167979,0.552932688574984,0.773618778772347,0.98704833674736,1.06951338243852,1.01518976734593,0.925764979839103,0.967176964215536,1.06619491003719,0.974457559231682,0.561892061378044,-0.137367426869399,-0.739957812936624,-0.675679012995456,-0.548211624085151,-0.701418251372852,-0.649182415049507,-0.166922273618148,0.23449445256387,0.343882979192751,0.215393811645268,0.060773946020519,0.133084232644533,0.285659905134187,0.319634868420163,0.22953929505207,0.060571143286043,-0.25380402697906,-0.745755455772699,-1.15087992961658,-0.891396369843761,-0.13007639501419,0.489449764802774,0.896920573995018,1.11909696472916,1.16368946334976,1.04828782735685,"RIN3-RIN4",2398,"DG_s12",1.75,2.453,3.375,3.375,12,12,10,10,0.922,"Left",12,12,0,0,0,0,0,0,0,0,"Equal",2,2,12,10,12,10
"20",2,-0.421064253945081,0.0426073445545283,0.230360546328012,0.148096363062541,-0.077749221934007,-0.358735557377465,-0.63570639165922,-0.750536335940156,-0.581924817753505,-0.263998969897743,-0.0457568171227951,-0.122062948753362,-0.630318525348304,-1.66446276097444,-2.82115984409103,-1.9306295362978,-0.945276084323261,-0.448854917987962,-0.440219105104041,-0.858500294728056,-1.23774653326669,-1.1496440406912,-0.747618913086967,-0.250782190688817,0.108613486575596,0.262551363874612,0.311292413336635,0.462190143567446,0.748916409421823,0.977582956583096,1.02735309650881,0.836911247493725,0.320326234959862,-0.56172073913373,-1.70336505778758,-2.94204886640026,-3.9839567570057,-4.32032606531639,-4.32538205297385,-4.57332985719156,-4.5673475395569,-3.82521403401602,-3.05860104333959,"LOF3-LOF4",2398,"DG_s12",1.75,2.453,3.375,3.375,12,12,10,10,0.922,"Left",12,12,0,0,0,0,0,0,0,0,"Equal",2,2,12,10,12,10
"21",3,0.135386179023295,0.227574622170374,-0.0331280877226252,-0.329832713471042,-0.23931953197678,-0.0351734703468658,0.0102625990067349,-0.0241176576861433,-0.0831753471775363,-0.339761352585508,-0.723469680776257,-0.518588014988781,0.203171628407373,0.823096579039131,1.3956853138069,1.94791961836956,2.3366817180582,2.51757190266888,2.47919134218693,2.18330437097288,1.63922676489197,0.970131451646453,0.583597463053718,0.658996924473868,0.729107739062162,0.626350907225988,0.426693218210403,0.318837810178676,0.161636222083255,-0.221720462302278,-0.78217994702939,-1.39214946260287,-1.12793242608839,-0.550370183529925,0.0443424641937034,0.676814238666477,1.18858126047799,1.39919784032607,1.29332055287079,1.02729311738673,0.850451570116753,0.871796331382635,0.93061099795383,"LOF5-LOF6",2399,"DG_s12",4.375,5.078,5.969,5.984,10,10,8,8,0.891,"Left",8,8,0,0,0,0,0,0,0,0,"10-10",2,2,10,8,10,8
"22",3,0.102325925682555,0.0807432538345285,-0.0478851020885553,-0.13518407742853,-0.142359661848095,-0.17608452221976,-0.336238366067427,-0.639553093158861,-0.983169520988067,-1.21864810005345,-1.1015938549683,-0.746800024094259,-0.558936689023511,-0.669006864357698,-1.08101063798707,-1.5389330982822,-1.53729225926319,-1.16356703502685,-0.866200902893658,-0.861416982574241,-1.13959932944614,-1.43348135423403,-1.41727512796611,-1.20014363504611,-0.994538064481912,-0.916370107730385,-1.07027605541575,-1.47642656451031,-1.96062717027085,-2.08381443715944,-1.74660755311908,-1.60981104594238,-1.84418181780781,-2.22381239001456,-2.11226583568228,-1.78808244727395,-1.74422983079789,-2.09943195094295,-2.84182322504615,-3.64202591918698,-4.14504758153503,-4.41234520866858,-3.76387145165506,"RAM6-RAM7",2399,"DG_s12",4.375,5.078,5.969,5.984,10,10,8,8,0.891,"Left",8,8,0,0,0,0,0,0,0,0,"10-10",2,2,10,8,10,8
"23",3,0.445173843353305,0.106074763114537,-0.251905960019418,-0.299342646448424,-0.243125705760287,-0.244682521372124,0.323357964933252,1.14538968681391,1.91179187618192,2.54545483631968,3.03590814969307,3.36801291017896,3.65430048950867,3.9850503342536,4.3301588662626,4.63335237641748,4.83601800092752,4.90983420733999,4.84078546524935,4.59815378000675,4.17608091952674,3.59866690895865,2.99575463631312,2.84622290234215,3.05570827948987,3.12260104519971,3.10051831518808,3.12540020727932,3.15799840199552,3.13438603544572,2.95682027833766,2.47835525609114,1.84844167827748,1.69447195235619,2.20008624203443,2.75335027588876,3.09092016111936,3.13956679766666,2.87998329898446,2.2911391343003,1.57333421178663,1.23389375603649,1.06181183887714,"LOF3-LOF4",2399,"DG_s12",4.375,5.078,5.969,5.984,10,10,8,8,0.891,"Left",8,8,0,0,0,0,0,0,0,0,"10-10",2,2,10,8,10,8
"24",3,0.578003574257849,0.264875415610666,-0.191021540208101,-0.651857449660413,-0.780650906025303,-0.280825109490201,0.463363254022705,1.17808637911274,1.77125643008383,2.19420848877446,2.45900308822947,2.68579006702371,3.03019222022651,3.53133995690594,4.03266153637848,4.42921856181684,4.65690337663452,4.70028322349848,4.5546564349696,4.18400716527813,3.55355149402227,2.79502232925659,2.63701697687871,2.95919920273347,2.95153193346027,2.57968559973397,2.12556967072456,1.91640389028636,1.97877860915136,2.09757987302496,1.99234233590753,1.47055340734427,0.798501844727432,1.07522462393287,2.03318400559084,2.87760518675352,3.40502480431116,3.57718669080033,3.44570572826529,3.07519094130104,2.54585736836857,1.96522494079547,1.38956437247229,"LOF4-LOF5",2399,"DG_s12",4.375,5.078,5.969,5.984,10,10,8,8,0.891,"Left",8,8,0,0,0,0,0,0,0,0,"10-10",2,2,10,8,10,8
"25",3,-0.4288336681863,-0.388102254322956,0.182214752974117,0.634721169535137,0.806618899147868,0.792031021228423,0.736680369175772,0.657765353080535,0.509678286342361,0.534068918464971,0.922348118095959,1.3773560104153,1.73020831972975,1.92815779225786,1.92947661869365,1.70158540648519,1.21894694420129,0.531649786174954,-0.340743889351241,-1.13332052029521,-1.4452216102132,-1.71032506323245,-2.14164706072718,-2.29060676011338,-1.77267002836433,-1.0625174556935,-0.67699285354195,-0.626000988714269,-0.723682976983076,-0.515512564151992,0.0517176910459956,0.538382177897574,0.723653302200658,0.594307498302372,0.547347103576481,1.12155258777299,1.8893636899518,2.39134732007252,2.54728582244324,2.40181141114798,2.05187404504446,1.63691353392735,1.15666557137623,"RIN1-RIN2",2399,"DG_s12",4.375,5.078,5.969,5.984,10,10,8,8,0.891,"Left",8,8,0,0,0,0,0,0,0,0,"10-10",2,2,10,8,10,8
"26",3,0.120453469895885,-0.0216886579305715,-0.0619591076963832,-0.0368057042689287,-0.0778798200715087,-0.247611163488921,-0.642948608977202,-1.2871642883941,-1.69115399035864,-1.28308158963027,-0.682463069378715,-0.319918016278859,-0.2306848136546,-0.127011869899059,0.257707333003808,0.702733663726836,1.02150165388984,1.21044278278577,1.24792239625067,1.13290626548847,0.903626199354058,0.661049067593416,0.513063635408088,0.435185148347367,0.378474523177408,0.309713672699946,0.134570160568826,-0.163165390181179,-0.519781630739443,-0.875519760271471,-0.976122121154142,-0.654339595886702,-0.382605300580151,-0.375017805977807,-0.54368380994825,-0.82394312916097,-1.15230418948295,-1.17831388614245,-0.735571417217874,-0.314813302380729,-0.155651808777201,-0.265337513274829,-0.547830178961297,"LIN1-LIN2",2399,"DG_s12",4.375,5.078,5.969,5.984,10,10,8,8,0.891,"Left",8,8,0,0,0,0,0,0,0,0,"10-10",2,2,10,8,10,8
"27",3,-0.0540421990358801,-0.0101358024661558,-0.00856445036679077,0.0727424518688249,0.186878912533103,0.148427291169291,-0.11345679477555,-0.544578636477077,-0.967159729900921,-1.24623650670493,-1.47513017654292,-1.79440805892194,-1.87505886417278,-1.38301288183463,-0.949768358778581,-0.9269853727988,-1.27218275376958,-1.53783888409954,-1.50860077117242,-1.62338829784901,-2.03153646375493,-2.42720900118694,-2.49895674107068,-2.30628576063873,-2.02016741016313,-1.92585734843362,-2.10690926353412,-2.3727559708483,-2.31396318308529,-1.93059055161288,-1.5335767572426,-1.31706255927354,-1.35670660360904,-1.68110401902904,-2.18842962823877,-2.62201089867656,-2.89079982581534,-3.10234761994628,-3.18218222103204,-3.39323117536064,-3.9219105354554,-4.31819163238515,-4.34562135357159,"RAM7-RAM8",2399,"DG_s12",4.375,5.078,5.969,5.984,10,10,8,8,0.891,"Left",8,8,0,0,0,0,0,0,0,0,"10-10",2,2,10,8,10,8
"28",3,0.69924387097644,0.100235362920623,-0.435808520380074,-0.363670713516988,0.487608672626742,1.29990334388795,1.89625165410848,2.24525122341215,2.30459781138611,2.19511831345216,2.15020156204098,2.22533915813202,2.15639058441469,1.8200910903477,1.2720242888532,0.810739749114002,0.441222948269832,0.0834772839054789,0.358212840175517,0.733024504571257,0.79178619617741,0.72982778538984,0.934379139479509,1.22107812576762,1.37705146925888,1.53872679418636,1.81077367237924,2.03018465779886,1.96527489569615,1.53472266123358,0.898865464288466,0.664872807345586,0.911602377330771,1.12823189387265,1.21496456960831,1.15447681972103,0.95589219925035,0.750174367249008,0.44580202414117,0.130055594881734,0.0341475551100947,0.150793911597316,0.50760285699616,"RIN2-RIN3",2399,"DG_s12",4.375,5.078,5.969,5.984,10,10,8,8,0.891,"Left",8,8,0,0,0,0,0,0,0,0,"10-10",2,2,10,8,10,8
"29",3,-0.0435398774377278,0.022485112735847,0.0148104779827376,0.00624428671914412,0.0874945256077329,0.152714039870571,0.0968660926173825,0.261878615382193,0.866641928370885,1.45673194926859,1.72925665385844,1.57650544351747,1.03287396326549,0.197297110299119,-0.49832906891365,-0.187745232175184,0.555250466431787,1.0672293820123,1.30759388717427,1.37437784235463,1.30171552769724,1.0263113306263,0.503614637810665,-0.0629785527715487,-0.220485640226293,0.0293422824619833,0.164248962809501,0.175511775959189,0.275793813450276,0.417888117325406,0.408355086218078,0.169778408122661,-0.245585660681093,-0.80130180807412,-1.46609213017718,-1.821257686789,-1.58145244546344,-1.40076603423787,-1.42664251103533,-0.907026090114954,-0.259171751839887,0.139345437499481,0.277149343797203,"RIN3-RIN4",2399,"DG_s12",4.375,5.078,5.969,5.984,10,10,8,8,0.891,"Left",8,8,0,0,0,0,0,0,0,0,"10-10",2,2,10,8,10,8
"30",3,0.390375685366882,0.13617691704189,-0.212338039879874,-0.3142145625289,-0.00780171413442154,0.212096958066834,0.128652000880518,-0.237787649371286,-0.816706892197864,-1.43171539026535,-1.51700767428069,-1.10197405086873,-0.832370643555008,-0.875455231269706,-1.08700298842253,-1.28635522596988,-1.54885824964606,-1.84097681895685,-1.74300805414117,-1.30336636693348,-1.20490929064302,-1.50991678506512,-1.67434601946318,-1.39357489290315,-1.12160041610447,-1.13017193783628,-1.39417055205482,-1.83531667293693,-1.84789948538452,-1.2048014315685,-0.677760516739166,-0.540699341486546,-0.790964050700193,-1.40164638397898,-2.2907977678656,-3.11497430627278,-3.5879378126143,-3.91245111507339,-4.18295496340935,-3.79308298817324,-3.15968816265293,-2.84463358749663,-2.82240783262188,"RAM5-RAM6",2399,"DG_s12",4.375,5.078,5.969,5.984,10,10,8,8,0.891,"Left",8,8,0,0,0,0,0,0,0,0,"10-10",2,2,10,8,10,8
"31",4,1.11323898954848,0.0012332924202747,-0.885156595535143,-0.229315686433612,0.577264920149354,0.547583658771879,-0.0422824613854482,0.555536385552878,1.70053857785347,2.69923350879264,3.33860386148072,3.67460548217466,3.71809998356535,3.28220557810994,2.2312503090141,1.43468159763609,2.42855135060829,3.2665775164046,3.44881058153883,2.99849389240729,2.44001270670596,3.37882954815009,4.41425663074014,4.92015551209039,4.90745990426065,4.53221439338604,4.34129510725836,4.61587150971962,4.84190331519065,4.83547360625737,4.65360163507835,4.68266432884165,5.06552285648144,5.34438069342544,5.23397262263808,4.72152696374378,3.90437604070545,3.25491791210769,2.99245964143125,2.9903040287232,3.12503760290533,3.01785746716497,3.25254266730442,"RAM7-RAM8",2400,"DG_s12",6.984,7.687,8.406,8.406,28,4,10,10,0.719,"Left",28,4,24,24,0,0,-24,0,-24,24,"Advent",18,-6,28,10,4,10
"32",4,0.194372598573622,0.127345768828084,-0.0781052536544369,-0.243613113747267,-0.184035450991384,0.310266051209782,0.883818510832365,1.20215224915032,1.16978646339503,0.798331502624025,0.314902386060583,0.0882464660348266,0.014252748991467,-0.226139400051407,-0.685941924528246,-1.24793898095231,-1.60598983159696,-1.47252949472676,-1.09503789895507,-0.72589178696585,-0.30211945221615,0.0985676188556557,0.376398418327836,0.585641542068942,0.744238292040427,0.800030118489843,0.697756701713478,0.342151829557244,-0.286029301534866,-0.79822816534962,-0.763906186934612,-0.599022836773141,-0.499776962724306,-0.191314438385996,0.179018421658119,0.387833440992926,0.466658102367806,0.434018762096011,0.22183588046396,-0.23999717386112,-0.628954112619867,-0.389202534018919,0.134839272123441,"RIN1-RIN2",2400,"DG_s12",6.984,7.687,8.406,8.406,28,4,10,10,0.719,"Left",28,4,24,24,0,0,-24,0,-24,24,"Advent",18,-6,28,10,4,10
"33",4,0.601660595026393,0.398517014894102,-0.165890260464132,-0.834287349456362,-1.16752500017327,-1.04059390172225,-0.745305756844186,-0.145812531226961,0.484880598662907,0.872089298421872,0.956839141588305,0.911577990061913,0.921393480527629,1.07043915232167,1.22872595385672,1.2070507622912,0.946940870727959,0.467186862216201,-0.0180885132133817,-0.0937873425829308,0.021280675217425,-0.0786140594053109,-0.278723511666057,-0.0420214084938983,0.586554139905941,1.15781678560062,1.57046819427342,1.83434019164553,1.89429173792041,1.73330320407346,1.45093634410077,1.23017224063426,1.22448217213914,1.29202409199277,1.16538389348136,0.717185342125695,0.134825143203295,-0.050558221165236,-0.00873258827566925,-0.0677752334456656,-0.141752041350654,-0.258193139961055,-0.580575927504338,"LOF5-LOF6",2400,"DG_s12",6.984,7.687,8.406,8.406,28,4,10,10,0.719,"Left",28,4,24,24,0,0,-24,0,-24,24,"Advent",18,-6,28,10,4,10
"34",4,0.0273936698151207,-0.00360563639093492,0.0597087099897973,-0.0834967434139831,-0.472376913203043,-0.85298330596062,-0.699418000789848,-0.318414691653027,-0.355632334977193,-0.884269611766867,-1.82863717131537,-2.01418863273285,-1.06859268256836,-0.243151803275341,0.237706817987149,0.461615001528042,0.600411480094991,0.789920161640731,0.966370997152508,1.02514945881382,1.0521789340757,1.20458654801288,1.45152997257918,1.67805655936863,1.8013409842439,1.77423829324311,1.61194542150824,1.34685501204041,1.0101644967638,0.667966854789926,0.442000664482897,0.3929024368996,0.454022192520565,0.566890880804868,0.727522675613105,0.868848780670042,0.83861599748221,0.552504903347746,0.176841474003053,0.068681333033906,0.295753720011664,0.486780723386326,0.356837341928324,"RIN2-RIN3",2400,"DG_s12",6.984,7.687,8.406,8.406,28,4,10,10,0.719,"Left",28,4,24,24,0,0,-24,0,-24,24,"Advent",18,-6,28,10,4,10
"35",4,-0.19079434115018,-0.111453195298291,0.0460766545278162,0.256170881920656,0.43776707826935,0.482867134820396,0.418407285636074,0.332182579633295,0.355321637514757,0.584199897253623,0.859806921377973,1.09709089629318,1.33805746879706,1.55088687500585,1.6596436530851,1.62366365536902,1.42010690558644,1.06192138734234,0.533237578715302,-0.202769963053841,-1.02533595464309,-1.37097631878636,-1.03346563653478,-0.556914287550527,-0.324859000518584,-0.317003585110512,-0.467561035594543,-0.753935633464772,-1.07169896085631,-1.19989354273059,-0.932977358267217,-0.616636666466245,-0.450205815068294,-0.259368898571632,-0.054956809105807,-0.0816618374282019,-0.436040152773765,-0.916054482941206,-1.09526284198755,-0.89816664799646,-0.509354365413498,-0.047684049776727,0.315096836204247,"LIN1-LIN2",2400,"DG_s12",6.984,7.687,8.406,8.406,28,4,10,10,0.719,"Left",28,4,24,24,0,0,-24,0,-24,24,"Advent",18,-6,28,10,4,10
"36",4,-0.163400280698489,0.108318776385473,0.078991710910465,-0.0239102065974501,0.299160412915461,1.18797756929459,2.03564281155249,2.51117110386404,2.59219380774997,2.43166560785229,2.25913569846083,2.19960129353366,2.19300967395145,2.13227884184716,2.01398935811986,2.2481567893666,2.81708278853037,3.25328264653761,3.4157498766158,3.2188132146447,2.60165394898392,1.6546034803924,1.29581306232757,1.9380670522359,2.36342309689,2.41322803621622,2.61072303140028,3.18634989376784,3.4944447033545,3.38450484515914,2.98035374501604,2.78626191787065,3.17918079248153,3.62923296108614,3.85887601543088,3.77247214551135,3.33744657882598,2.71731526508243,2.56443702577272,2.82277500778881,2.9061179601279,2.72022003420057,2.50606294232582,"RAM6-RAM7",2400,"DG_s12",6.984,7.687,8.406,8.406,28,4,10,10,0.719,"Left",28,4,24,24,0,0,-24,0,-24,24,"Advent",18,-6,28,10,4,10
"37",4,-0.0769473422894356,-0.290865260016812,-0.0208617022690625,0.38867430457531,1.00634566631284,1.61001425005584,1.87672578848159,1.74737516575475,1.34052549235296,0.950194549703392,0.681545032949247,0.466916557071378,0.715274062473888,1.29238792661904,1.80648871206169,2.08724184040859,2.07140638964709,1.77716271624666,1.21141048202595,0.379982924602187,-0.567319486911772,-1.05846434841088,-0.359102490215006,0.387881283122172,0.838248375998216,1.09243349437411,1.14479814510969,0.889421567096793,0.326256227149661,-0.306258059439988,-0.406901740930175,0.0688158351268031,0.426781559257659,0.627521622089427,0.761326101967024,0.745084977899396,0.598598347750069,0.793390464480084,1.21803292702755,1.42446999269229,1.2869681499975,0.862107111541752,0.700633215328563,"RIN3-RIN4",2400,"DG_s12",6.984,7.687,8.406,8.406,28,4,10,10,0.719,"Left",28,4,24,24,0,0,-24,0,-24,24,"Advent",18,-6,28,10,4,10
"38",4,-0.323370235000509,0.14040299768686,0.21433125917427,-0.031364021860619,-0.436697351619775,-0.490566937921194,0.0269943979770195,0.544642378534484,0.806019654320368,0.799954752927167,0.625187708527056,0.385728108542479,0.17413517587139,-0.0525258574734755,-0.426732669717773,-0.728737304854069,-0.491912115200363,-0.172547345265926,-0.000991797600064181,0.0312672608134825,0.254735354402172,0.540071752884162,0.643160646601324,0.589833262443226,0.45933419862795,0.403857573190597,0.631471276150294,0.963695340915941,1.19828235214573,1.29896504883219,1.25593064616508,1.01965664609044,0.592708701435869,0.104675497894507,-0.168038134139245,-0.0286441254700875,0.382596884614506,0.8414238961528,1.17023379784191,1.29189403759164,1.23063563731318,1.10782422860415,0.992393598224778,"LOF3-LOF4",2400,"DG_s12",6.984,7.687,8.406,8.406,28,4,10,10,0.719,"Left",28,4,24,24,0,0,-24,0,-24,24,"Advent",18,-6,28,10,4,10
"39",4,0.485205003503006,-0.155176081812511,-0.228408944346946,-0.101619977343549,-0.00752938826537086,-0.0475164766052707,0.153715063878058,0.699589655757608,1.08268736543538,1.14165439968599,1.18298923613694,1.35015704616814,1.50166406951617,1.68559689514283,2.07946360474993,2.43925497812255,2.55889211889063,2.42719207271403,2.11745687316665,1.72477987734663,1.28237975616392,0.73998464497094,0.38983540650467,0.774084250765556,1.33232487556851,1.47627156578364,1.19399347372796,0.890126919867109,1.12541832444834,1.44384449862735,1.71392885245411,2.33782770489699,2.93160622490903,3.27589672182348,3.38695826643588,3.19271201286116,2.73981512464463,2.36961397445605,2.54990011232713,2.89431907154977,2.95862604451756,2.728297440378,2.52788662546265,"RAM5-RAM6",2400,"DG_s12",6.984,7.687,8.406,8.406,28,4,10,10,0.719,"Left",28,4,24,24,0,0,-24,0,-24,24,"Advent",18,-6,28,10,4,10
"40",4,0.249643477010196,-0.180726499560869,-0.21662312967938,0.147706152230055,0.272478521841805,-0.0798056393784057,-0.869864766065785,-1.93117313291212,-2.22993708266972,-1.72825850959744,-1.50890495122571,-1.86255434994573,-2.15785613126351,-1.4476240782636,-0.569757429525189,-0.0919499626446951,-0.065550444636874,-0.0267352356340904,0.308807327946304,0.628822449557719,0.754326342847254,0.626220159069348,0.188764868508555,-0.241014106834842,0.100125786503755,0.911318111197049,1.59537631452963,1.97371527397944,2.10501743249922,2.09818550855618,1.98286069741759,1.76357770182649,1.52474492490447,1.36941095302103,1.21763858308763,0.885824291665948,0.339848365861295,-0.270317736800141,-0.63173442798893,-0.830279365997873,-0.922106088684287,-0.62858628803682,-0.200522431945293,"LOF4-LOF5",2400,"DG_s12",6.984,7.687,8.406,8.406,28,4,10,10,0.719,"Left",28,4,24,24,0,0,-24,0,-24,24,"Advent",18,-6,28,10,4,10
"41",5,0.042771375548444,-0.229158212896698,-0.16250038772066,0.348887225068914,1.00222683895002,1.52741879378793,1.7869670369705,1.78627430295265,1.58789378593751,1.25914713442161,0.880133998169091,0.427224285540067,-0.220271055078126,-0.804416436307246,-0.720435202321223,-0.463084812036309,-0.0392340629146677,0.607755967147407,0.949507894617788,1.01079112303469,1.08760661886339,1.41304622433909,1.80003861890271,2.01691231838392,1.96441646128238,1.63927157982985,1.12849055014623,0.614053806174434,0.264752074572412,0.108736836390437,0.287376921944577,0.824861358940002,1.2537848406414,1.37084635188224,1.19100640276509,0.778661578018795,0.209613794375294,-0.366597273855718,-0.643051050229301,-0.741525782710984,-0.88429653887548,-0.948975982909917,-0.725737491882354,"LOF5-LOF6",2401,"DG_s12",9.406,10.109,10.765,10.765,22,6,10,10,0.656,"Right",22,6,16,16,0,0,-16,0,-16,16,"Advent",12,-4,10,22,10,6
"42",5,0.402113972963658,0.0622535536817974,-0.154493900587257,-0.3098736260582,-0.581250689694428,-1.01943778032163,-1.44916194058786,-1.31153907334552,-1.13099068758152,-1.0823630589671,-0.829861325088321,-0.778610123852922,-0.834755987311921,-0.627885346102583,-0.0169002718556808,0.613744217538695,1.13230391356386,1.40768375538217,1.36890855868803,1.26521390940656,1.53447681595144,1.95514437412017,2.1696241388782,2.21762855304882,2.29045288420956,2.48382454943788,2.6430639878297,2.66536308748449,2.52999088984041,2.25633260912584,1.94322536496217,1.63307681107906,1.24215853582109,0.753708910409328,0.335188847144837,0.134765138493483,0.169160675216382,0.261823895078763,0.158836206967745,-0.174837693482742,-0.531558448708133,-0.403000671782656,-0.19954050931439,"RAM5-RAM6",2401,"DG_s12",9.406,10.109,10.765,10.765,22,6,10,10,0.656,"Right",22,6,16,16,0,0,-16,0,-16,16,"Advent",12,-4,10,22,10,6
"43",5,-0.558427010113729,-0.304054691690431,0.25747414567289,0.605007556131269,0.812130374292145,1.06129796630546,1.36011798901809,1.51928037523688,1.32632492234143,0.719652628333393,-0.177831114803402,-1.20971584973245,-1.58718007759855,-0.43542645616555,0.725185207121455,1.68119563128868,2.28266985423854,2.53883866098425,2.55185232288762,2.68771644528603,3.15401165645389,3.60527149385396,3.83563556049621,3.81544088469436,3.6089808345068,3.35615783487419,3.27639848871756,3.4141934378823,3.53670059073626,3.44878305318079,3.07946517346395,2.59267289659913,2.58761340269395,2.96621696106947,3.23577511938184,3.2920239400401,3.12116866383574,2.7106453556135,2.06951852188149,1.33901953659679,0.920654126357845,0.68089694395993,0.354080584910572,"RAM6-RAM7",2401,"DG_s12",9.406,10.109,10.765,10.765,22,6,10,10,0.656,"Right",22,6,16,16,0,0,-16,0,-16,16,"Advent",12,-4,10,22,10,6
"44",5,-0.181981849380483,-0.0954022893071933,0.135768084402626,0.141616054285048,-0.139041218121728,-0.285319042906163,0.146371262802226,0.680207549139615,0.863118560120576,0.658945541010397,0.79239072302234,1.39090220959861,1.73166219489646,1.98321775250248,2.41489914948931,2.95499900445107,3.45464446384764,3.83522768791113,4.04176824089397,4.12183256201107,4.20737315965524,4.31080324179612,4.36978890922697,4.3799917095063,4.42312437549594,4.54565781181562,4.6984818667375,4.77803878377724,4.67509243572009,4.33484456089989,3.78146236038678,3.26131844576145,2.93511584967207,2.60094658161497,2.24403423016513,1.95342704782331,1.60784632426598,1.31722994706917,1.40023900032913,1.39860772151868,1.05085714497089,0.503492864527944,0.338607276653359,"RAM7-RAM8",2401,"DG_s12",9.406,10.109,10.765,10.765,22,6,10,10,0.656,"Right",22,6,16,16,0,0,-16,0,-16,16,"Advent",12,-4,10,22,10,6
"45",5,-0.472177177036757,-0.0421444182955293,0.222022993802899,0.292298601529386,0.181982282560766,-0.0875017970313587,-0.318564923883128,-0.547074904540914,-1.01781085455448,-1.90630034009105,-2.89043579454191,-3.14020490989737,-2.89888975709666,-2.35730523176739,-1.70677446444484,-1.26087254291595,-0.781611222227602,-0.0760932344032055,0.527134166547447,0.766498791152643,0.69843672834403,0.47120965182382,0.195232596440603,0.112202047526745,0.46515973379921,0.908461657993044,1.14803539983824,1.11464702138077,0.84464169030959,0.524392686259658,0.301775167868941,0.166723732455932,0.111026756161205,0.0748947930841615,-0.171778828732139,-0.312112297407899,0.262188548063511,0.847792239286674,1.24112037319418,1.52815985290191,1.66283086588809,1.58004742024251,1.26426679402965,"LIN1-LIN2",2401,"DG_s12",9.406,10.109,10.765,10.765,22,6,10,10,0.656,"Right",22,6,16,16,0,0,-16,0,-16,16,"Advent",12,-4,10,22,10,6
"46",5,-0.621218386238318,-0.277465281784393,0.264039723714955,0.63464394430776,0.968159216749108,1.35402937547935,1.63470941281916,1.72047195445886,1.67416403398357,1.63398010177736,1.60130908873068,1.42073053615451,0.938600008844425,0.104762865911191,-0.748145806362833,-0.473435439782188,0.238618849944103,0.651767169697429,0.753106250906146,0.556957838563804,0.0903267289495275,-0.560739953934041,-0.891498433106717,-0.633399389510668,-0.417040453511602,-0.539630795281262,-0.794314423897141,-0.676116508221781,-0.309188514487552,-0.0913470431672465,-0.0619633491799245,-0.250923175628525,-0.608614505441837,-0.538184345695994,0.337250847964954,1.08086762476649,1.39233849364451,1.30392419056373,0.917359001651651,0.442169091557254,0.108507289661111,-0.113798088820696,-0.380313386601026,"RIN2-RIN3",2401,"DG_s12",9.406,10.109,10.765,10.765,22,6,10,10,0.656,"Right",22,6,16,16,0,0,-16,0,-16,16,"Advent",12,-4,10,22,10,6
"47",5,0.0191914504618493,-0.0880758193719062,-0.0798902347854664,0.148774603695522,0.391831913703027,0.430018994622476,0.239436529290022,-0.068233959051172,-0.00875559945638837,0.529150259349188,1.00853354127124,1.31387189843646,1.52863128329059,1.63818810406802,1.52137235415572,1.1354370131515,0.591590100222224,-0.0331259890846392,-0.565137286246389,-0.543385210220325,0.088448520308007,0.552024033629555,0.702194254243662,0.621355879613725,0.352855011313166,0.0394476174988654,0.072846227557875,0.487038178809679,0.80152142822862,0.802827378914492,0.545292925813881,0.0904247206332451,-0.247373716892172,0.114342407274038,0.699957012574075,1.07787364608877,1.22756969006245,1.219553725862,1.08065173610374,0.876342769153498,0.737011010003918,0.721468181759141,0.754395000266982,"RIN3-RIN4",2401,"DG_s12",9.406,10.109,10.765,10.765,22,6,10,10,0.656,"Right",22,6,16,16,0,0,-16,0,-16,16,"Advent",12,-4,10,22,10,6
"48",5,-0.508512586068641,-0.374873533434325,0.178431068492663,0.704955051010305,1.07979054599739,1.31484124857763,1.42239697178599,1.48114182468108,1.47291054683298,1.28577025434409,0.866695571086894,0.341233364262303,-0.0415497510657925,-0.408624380565979,-1.00894168068297,-1.49268938245456,-1.06660498714366,-0.535541258456561,0.0214365065157018,0.766662533429844,1.47010402816363,2.00581627088564,2.33669721533346,2.45852597175819,2.34107306526507,1.93605644799278,1.20826837163614,0.247378871275835,-0.215907252264487,0.118056671039963,0.359579021407944,0.348088487291437,0.268209121943552,0.227525764619879,0.421159362220529,0.796625901383095,1.07216069619654,1.09487779173561,0.877092476385322,0.51451445880605,0.153171482355405,0.0242717217647321,0.27900470372111,"LOF3-LOF4",2401,"DG_s12",9.406,10.109,10.765,10.765,22,6,10,10,0.656,"Right",22,6,16,16,0,0,-16,0,-16,16,"Advent",12,-4,10,22,10,6
"49",5,0.435928947067749,0.0332077705340641,-0.359341232402937,-0.109795485198877,0.476289825903017,0.912192567975376,1.0737585251383,0.977145925844573,0.768986253448734,0.762302295069995,0.893767257005397,0.856400025387492,0.510986669226609,-0.0361960868218762,-0.554269586814836,-1.01446409018152,-1.1509018639997,-1.06403247800808,-1.19158661971712,-1.27828616036454,-1.2236826495937,-1.34669402505195,-1.54095365748799,-1.40390526241057,-0.96482958833065,-0.437877449346415,0.0678633089065031,0.479531717058721,0.808578413841564,0.986300540129099,0.875969234361069,0.344212775094835,-0.696668227143615,-1.39705342424769,-0.405773018582369,0.273133876812988,0.43670706232613,0.194293601476719,-0.255129144735385,-0.497375294806092,-0.540695631330738,-0.657006576700278,-0.995324280311189,"RIN1-RIN2",2401,"DG_s12",9.406,10.109,10.765,10.765,22,6,10,10,0.656,"Right",22,6,16,16,0,0,-16,0,-16,16,"Advent",12,-4,10,22,10,6
"50",5,0.16457967151294,-0.12088333797264,-0.172684493118648,0.128988159578348,0.485930555792628,0.715395905496514,0.787875955695291,0.715170411099094,0.482065816682739,0.0956091491415236,-0.254264589709726,-0.296329021808094,-0.20672891117029,-0.314804488499804,-0.626740041803169,-0.958027530453381,-0.903101681152107,-0.328337802830441,0.314250458532866,0.894812211983746,1.37572320025152,1.74221236176928,1.97672852233174,2.03930190937126,1.85660350720067,1.36816911074935,0.602420693064149,-0.159337171785694,-0.389268208364114,-0.362689864650219,-0.574637658665859,-1.23859605602871,-2.30231126644694,-2.94319300614951,-2.13527136517503,-1.37168658664726,-1.02832094751088,-0.903215448089282,-0.94200391572038,-0.983614709334976,-0.798018779562449,-0.510736196998131,-0.278030395729945,"LOF4-LOF5",2401,"DG_s12",9.406,10.109,10.765,10.765,22,6,10,10,0.656,"Right",22,6,16,16,0,0,-16,0,-16,16,"Advent",12,-4,10,22,10,6
"51",6,-0.271025896211725,-0.176137115986968,0.0318197259091342,0.415343286289563,0.60201233713542,0.407291376218147,0.164854281084825,0.311561138649704,0.885841507572037,1.60787769798412,2.04458076276829,2.09510284035719,1.80965107186022,1.34815051465673,1.40501862745246,1.87622162233893,2.35819119349372,2.98863385401167,3.66499613513341,4.19844111232858,4.577887705431,4.83132571616436,4.98354195927652,5.09185391327159,5.2045866922984,5.28811557855657,5.24129001050046,4.9660990227534,4.43569069691754,3.72561600429013,3.09688614441276,2.5702142646317,1.8768859738657,1.24471637213506,1.38347707547986,1.90040720429025,2.43983410798698,2.90559071474396,3.27899378220989,3.49204317584294,3.49235528945482,3.27714980583752,2.87161027247833,"RAM7-RAM8",2402,"DG_s12",11.765,12.469,13.094,13.094,30,15,10,10,0.625,"Left",30,15,15,15,0,0,-15,0,-15,15,"Advent",20,5,30,10,15,10
"52",6,0.368821619992612,0.230478533782178,-0.0457166391290738,-0.553583514645715,-1.22593130729867,-1.55239954274175,-1.26671209689539,-0.907803945853301,-0.715145974432986,-0.714190418682684,-0.936223049258605,-1.36766941534689,-1.64781126342906,-1.63579218823387,-1.55552665068365,-1.41328344366993,-1.259394689757,-0.949080704283134,-0.398124790158442,0.0472174885132626,0.177854411657272,-0.0509627377494049,-0.566190700160615,-1.1446271606292,-1.4142115384906,-1.33285173635755,-1.21126031743911,-1.12644103893585,-0.926755038557939,-0.656764905449074,-0.447503362700249,-0.316034130181965,-0.310446702030041,-0.433725014378144,-0.479629149758587,-0.38130033172296,-0.3603518570723,-0.565244357703315,-0.911835724894622,-1.2306674336367,-1.58364805705842,-2.0495692052217,-2.23125662542141,"LOF4-LOF5",2402,"DG_s12",11.765,12.469,13.094,13.094,30,15,10,10,0.625,"Left",30,15,15,15,0,0,-15,0,-15,15,"Advent",20,5,30,10,15,10
"53",6,0.194209133125149,0.171348356927217,-0.0582568657869285,-0.307300624265435,-0.248110999647809,0.122441448896222,0.476259742138428,0.712286896294668,0.801601486649105,0.774004609956606,0.670000130439675,0.441106416436577,-0.0500659368013334,-0.594283945706167,-0.253343776748393,0.417721700579074,0.782326463991527,0.837581440223106,0.65109254020949,0.327179797085467,-0.00867763950873801,-0.18989628270158,-0.172737653808589,-0.235620235890908,-0.553060390330953,-0.821134262550318,-0.605434682430134,-0.300508539638088,-0.108541083098698,0.0036905641487337,-0.0301753902775346,-0.222169563547935,-0.464399069563914,-0.593367575341166,-0.576242832533485,-0.580410489858126,-0.543263542824106,-0.213242270203555,0.217528716202471,0.490053064270763,0.535446549185234,0.327405615025057,-0.103450786515641,"LIN1-LIN2",2402,"DG_s12",11.765,12.469,13.094,13.094,30,15,10,10,0.625,"Left",30,15,15,15,0,0,-15,0,-15,15,"Advent",20,5,30,10,15,10
"54",6,-0.0332811023490365,-0.184915184327952,0.0391639666178918,0.179032320059099,-0.0545576999807711,-0.591616105140147,-0.981838394065647,-0.918867507024201,-0.905950984686731,-1.13425457916988,-1.33246065311202,-1.20825632151973,-0.849918773335464,-0.60372952875511,-0.627640716390557,-1.02630326777009,-1.65468159687684,-1.96290270236987,-1.81696778652684,-1.42389195428897,-0.649306809699977,0.106022546484061,0.564841348519909,0.74292242293199,0.708406184963371,0.484138672455385,0.287930073047894,0.495321837856386,0.870179891835766,1.04700457405101,1.04552855902289,1.15196045665491,1.38248299932422,1.45793302838127,1.27083899496158,0.798035235687619,0.180777451186207,0.086514892146873,0.465996400247406,0.831365453011738,1.06492148508486,1.13543368416881,1.05209064877988,"RIN2-RIN3",2402,"DG_s12",11.765,12.469,13.094,13.094,30,15,10,10,0.625,"Left",30,15,15,15,0,0,-15,0,-15,15,"Advent",20,5,30,10,15,10
"55",6,-0.260775357209872,-0.221349917825659,0.141070427711887,0.341054847323645,0.177478338300026,-0.29116231431025,-0.510370588142756,-0.278607960440213,-0.182994790331917,-0.373970774234605,-0.850916290596615,-1.38042231365969,-1.49169971619613,-1.62911686875721,-1.93586816312204,-1.86566615724493,-1.01134006012023,-0.0927157183582334,0.597854454478913,0.979617749699012,1.10130141347933,1.09608897052114,1.12591148174245,1.24002431935526,1.38922868613831,1.50763262670181,1.508546942335,1.34973432566175,1.09864941310368,0.886448963503624,0.780595159596665,0.809047623589692,0.8703907611227,0.790080279983913,0.661510161513273,0.529087597231821,0.27284017987252,-0.271247060214463,-1.16270265601112,-1.89605069108291,-1.3714279766552,-0.449952731002108,0.0412607103013238,"LOF5-LOF6",2402,"DG_s12",11.765,12.469,13.094,13.094,30,15,10,10,0.625,"Left",30,15,15,15,0,0,-15,0,-15,15,"Advent",20,5,30,10,15,10
"56",6,1.09731010157057,0.18879316571401,-0.860862083523537,-0.425241183761047,0.631602934358344,1.13739985821003,1.00626623865086,0.561403547543052,0.415668064641078,0.617190896387807,0.838233618027171,1.09049197005104,1.29563253365243,1.28581874896759,0.97124728959368,0.9903336415805,1.70719413156555,2.61441375696707,3.4477109746984,4.17270205010624,4.73386533519674,5.06207516304951,5.15337986121603,5.05451587016644,4.91722017867204,4.90639162222083,4.95521729586241,4.8865845206417,4.55460510459495,3.93643026785876,2.96484925087207,2.34643351627417,3.50276674340751,4.56606259157721,5.33222944556571,5.92489698705134,6.36639305486115,6.56783174995816,6.4902707752556,6.16692236185069,5.66836760413483,5.07374968178833,4.49486792944096,"RAM6-RAM7",2402,"DG_s12",11.765,12.469,13.094,13.094,30,15,10,10,0.625,"Left",30,15,15,15,0,0,-15,0,-15,15,"Advent",20,5,30,10,15,10
"57",6,0.166415952169471,0.140278453479141,-0.0113234090329222,-0.29537099661569,-0.689029306678717,-1.04085739628793,-1.10780213597852,-0.952217128539699,-0.720464041158577,-0.506227153936548,-0.446957745478988,-0.666863619204086,-1.17680805624835,-1.84183601294481,-2.65577759074151,-3.95789629303408,-3.79598792227179,-2.18136542333932,-1.06804757248733,-0.429980044228426,-0.172941743036312,-0.259734698624992,-0.613480239043218,-1.14152102257013,-1.75529575382187,-2.25576740701506,-2.13221772528465,-1.58961064626044,-1.11403268572916,-0.721022267254636,-0.409325739225761,-0.205085024801443,-0.149337017938072,-0.239866880155675,-0.365812597820286,-0.429377341319526,-0.411872931869755,-0.346557625474238,-0.308016484315258,-0.389579230077002,-0.639215293606281,-1.00676223046186,-1.32615038910507,"LOF3-LOF4",2402,"DG_s12",11.765,12.469,13.094,13.094,30,15,10,10,0.625,"Left",30,15,15,15,0,0,-15,0,-15,15,"Advent",20,5,30,10,15,10
"58",6,-0.391600994972687,-0.125909094370159,0.186814750720368,0.330695338622479,0.424486402597488,0.707153321410656,1.06631293310521,1.30914914512119,1.37329866297416,1.35645402318952,1.42537525887287,1.63060736575268,1.79799800797373,1.77765629550978,1.51448582319856,1.06371072661044,0.772686083680048,0.806683947738136,0.872850349170746,0.769286282555436,0.524439915081907,0.385265689444206,0.680704760601501,1.07817635555033,1.36275321645534,1.57524920649194,1.7613732052571,1.85555025805326,1.83740156534204,1.72620570019374,1.50641489597642,1.20269128147608,0.887922907298861,0.569162581322587,0.207043825521509,0.0380057444400759,0.468650001082308,1.02227142695038,1.36984634309134,1.47202877346683,1.3693666117317,1.22520060240372,1.16331899195816,"RIN3-RIN4",2402,"DG_s12",11.765,12.469,13.094,13.094,30,15,10,10,0.625,"Left",30,15,15,15,0,0,-15,0,-15,15,"Advent",20,5,30,10,15,10
"59",6,0.159747244185104,-0.127678910159074,-0.211030851669992,0.178962517643963,1.01372136822809,1.73297031291529,2.05415046291272,2.10466966657747,1.98794748372666,1.90853526717175,2.30649095325778,2.5130342102309,2.24893129343811,1.69031146080345,1.37947952328275,1.60839015020953,2.07261158679898,2.92932401246728,3.73221366054696,4.41294820560797,4.95957618637353,5.33126033002232,5.56445863360239,5.63863563871938,5.59688020011483,5.49591110528765,5.23405685195537,4.902395465296,4.88106673432597,4.94996540937682,4.82255350484892,4.39488073411481,3.66485028284103,3.46047312439589,4.29258706238398,5.24037709771317,5.8711619812194,6.09662613517238,5.98810550795799,5.62914672013771,5.18341894121393,4.87452792413328,4.79645974681374,"RAM5-RAM6",2402,"DG_s12",11.765,12.469,13.094,13.094,30,15,10,10,0.625,"Left",30,15,15,15,0,0,-15,0,-15,15,"Advent",20,5,30,10,15,10
"60",6,-0.678321328964236,-0.311988511308071,0.311136320467584,0.679173519804721,0.720278326421791,0.491756504657468,0.020511266850777,-0.710268591307518,-1.41830438436121,-1.85850069855795,-1.63225284043594,-0.939650774301573,-0.416313134297528,-0.351182762784473,-0.653906882273102,-0.788097003575142,-0.580926998130035,-0.551077854201349,-0.970482460174225,-1.76817396596851,-1.92719854127746,-0.917832172674714,0.00680195254406613,0.633958644938129,0.957717026706014,0.926190111710042,0.569213735967972,0.314430224416226,0.795755459043384,1.35914749354456,1.67223794395542,1.71418532254764,1.48821408864795,1.05013407271948,0.705142080941368,0.834985416907955,0.990890443691091,0.864700256653888,0.649115182091297,0.71848583083583,0.818632238396271,0.883900636414536,1.13043741425604,"RIN1-RIN2",2402,"DG_s12",11.765,12.469,13.094,13.094,30,15,10,10,0.625,"Left",30,15,15,15,0,0,-15,0,-15,15,"Advent",20,5,30,10,15,10
"61",7,0.995847402796338,0.364627894455847,-0.35786011556081,-1.00261518169138,-1.13783130543826,-0.831039339708145,-0.2001234306562,0.404439825763102,0.714014033957707,0.708533087706268,0.493247782165328,0.12021990731785,-0.365988100100908,-0.905313906029605,-1.36709434385538,-1.43337063151927,-1.14686479053592,-1.05164460893169,-1.07955622731221,-1.05924863578368,-1.27877118133094,-1.40413891348498,-1.020411681495,-0.451081259791907,-0.201212301860661,-0.320454360871723,-0.781687895806221,-1.61464683389562,-2.89923539860198,-3.23462328401547,-2.12487121522212,-1.49300079620225,-1.38928005087721,-0.999335555195502,-0.324469631508999,0.138842333678799,0.169741145307974,-0.141447557753212,-0.620730448170867,-1.25239030908167,-2.28558781048053,-3.4263722499153,-3.91880036858905,"RAM5-RAM6",2403,"DG_s12",14.094,14.797,15.453,15.453,28,4,10,10,0.656,"Left",28,4,24,24,0,0,-24,0,-24,24,"Advent",18,-6,28,10,4,10
"62",7,0.190050429115862,0.232687090083653,0.0242639922028447,-0.44700151140236,-0.890880961298121,-0.753256437486858,-0.368473253140809,-0.214163990484008,-0.325681020315136,-0.488908696419655,-0.51061509045938,-0.20173317926461,0.189377770782235,0.488507867311606,0.888655538598985,1.27744891093324,1.4439894620383,1.31410659884879,0.851950699405768,0.0964851817532564,-0.623919686926742,-0.804640636833336,-0.776504833433449,-0.98647746264349,-1.38500040408867,-1.64551472942274,-1.8612679711176,-1.97146687964407,-1.56340975349578,-0.989936308896542,-0.450610601725656,-0.104924172256545,-0.0273565770671915,-0.257483083819955,-0.343387301197817,0.0915298415492032,0.500123167890601,0.749690232196838,0.806442386310248,0.547791356796141,-0.196001083210383,-1.58156476138393,-3.31670049976538,"LOF5-LOF6",2403,"DG_s12",14.094,14.797,15.453,15.453,28,4,10,10,0.656,"Left",28,4,24,24,0,0,-24,0,-24,24,"Advent",18,-6,28,10,4,10
"63",7,0.0830590601951213,-0.0895948813595089,0.0291669152637253,-0.0226310940993377,-0.283855819887985,-0.197193832028474,0.142439697171787,0.322409706400204,0.285194957384601,0.0389667795248752,-0.396057776652994,-0.772483463382803,-0.667822503223091,-0.344904184699486,-0.198994749345603,-0.242962475790446,-0.490392579169311,-0.746027197526174,-0.686751096916604,-0.011361637673752,0.833225601546053,1.44196088429977,1.80047918767134,1.90662709184625,1.75730195807663,1.38661375832682,0.856990238306878,0.380794249364167,0.204091456036967,0.0808938207089573,-0.24802664694979,-0.603988850001095,-0.43732888418262,-0.0952660436775528,-0.0488668983087219,-0.241764563437048,-0.32407596202223,0.23386711852569,0.966381153770607,1.4660418013219,1.69102511999401,1.64761647129392,1.35894717022286,"RIN3-RIN4",2403,"DG_s12",14.094,14.797,15.453,15.453,28,4,10,10,0.656,"Left",28,4,24,24,0,0,-24,0,-24,24,"Advent",18,-6,28,10,4,10
"64",7,0.17873696189079,0.0981308870610107,-0.0392541520908312,-0.237613696860969,-0.51535771863237,-0.490085154691226,0.0358513340047404,0.644318430017544,1.04714972641789,1.22639574935384,1.33680330071392,1.4732813071202,1.5444705521759,1.4227662504174,1.06224475856352,0.520575745683757,0.0799554173310062,0.11639433479937,0.490901635696569,0.827094789149187,0.96069652257492,0.928128569113796,0.832393052671502,0.778244972103203,0.809174912843983,0.865579332517137,0.89368522729976,0.936294857315535,1.03180499474419,1.08688442484361,0.981878759843664,0.699312575076326,0.284635430114174,-0.106336949268213,-0.224320371384868,-0.229616515004904,-0.510629170940374,-1.17880554599078,-1.61479765063347,-1.02821055955189,-0.294422740236061,0.174163454328702,0.404683297187963,"LIN1-LIN2",2403,"DG_s12",14.094,14.797,15.453,15.453,28,4,10,10,0.656,"Left",28,4,24,24,0,0,-24,0,-24,24,"Advent",18,-6,28,10,4,10
"65",7,0.290524854378202,0.0293996823816247,-0.0757486381164867,-0.244175898643341,-0.273587642324826,0.104793126928631,0.933866350889844,1.75284817581911,2.20520504677835,2.20272411763882,1.84105985789519,1.42109552741261,1.20695847521527,0.91682485052291,0.409684564719834,-0.170349806477238,-0.498579964733192,-0.235106027505264,0.445053725196416,1.09834475001612,1.46448420767095,1.54968576671973,1.44979884873535,1.25325536116504,1.00298585069194,0.754764414492368,0.662701269118341,0.898939097917247,1.28347926573147,1.55846468256244,1.58313739020328,1.31240807601081,0.833753829104643,0.529505020019065,0.825861631277184,1.27034489827185,1.643595697724,1.88603867871816,1.8955399378423,1.56581791681187,0.93107941670229,0.324326932075003,0.226213264998182,"RIN2-RIN3",2403,"DG_s12",14.094,14.797,15.453,15.453,28,4,10,10,0.656,"Left",28,4,24,24,0,0,-24,0,-24,24,"Advent",18,-6,28,10,4,10
"66",7,0.584337036800534,-0.0419929894953945,-0.261475751626794,-0.280868295678343,-0.330041655448269,-0.289281190275744,-0.0735141847673297,0.0425883178939799,-0.106518995178615,-0.466710550422643,-0.91863708945512,-1.22029269722835,-1.00774794000194,-0.377023403918439,0.108738175057425,0.191125587088537,-0.104975432100588,-0.720893966581742,-1.43424277529088,-1.62699146656748,-1.61766568945702,-1.25171260116151,-0.643584374669203,-0.160077784410532,0.146202521820623,0.219626254552765,0.00798799515979098,-0.246589936285902,-0.176632237077408,-0.0141961585109094,0.0214436696860592,-0.0163634592430633,-0.0968397554348215,-0.0512074096862669,0.342796956935381,0.756840504477255,1.00185752268048,1.13771152285595,1.15292778502651,0.887708104063453,0.256512110793064,-0.443683750621376,-0.877665602307409,"RAM6-RAM7",2403,"DG_s12",14.094,14.797,15.453,15.453,28,4,10,10,0.656,"Left",28,4,24,24,0,0,-24,0,-24,24,"Advent",18,-6,28,10,4,10
"67",7,-0.557754520673493,-0.169445473305694,0.18711908209775,0.540080911881438,0.829895232322223,0.964541452263992,0.873775250485342,0.541304452961524,-0.0382543274750518,-0.715581969090104,-1.0142358206521,-0.820734899585372,-0.599893801774269,-0.519805005841708,-0.526309043688866,-0.468073978901754,-0.23797002477778,0.00502478253723559,0.0891339943695151,-0.00910843455416543,-0.264392106448696,-0.319075655667262,0.343598323518121,1.10351587377458,1.59870568153097,1.79347635684726,1.69060199909788,1.33148383940594,0.774277575068939,0.0882478622778571,-0.504438381324094,-0.518423344865681,-0.332003871353087,-0.358032967788942,-0.322727178882477,0.0627001404416179,0.480241124445382,0.72957691482631,0.744960488894731,0.532150215447433,0.102415063464676,-0.543181159630761,-1.29824724159088,"LOF3-LOF4",2403,"DG_s12",14.094,14.797,15.453,15.453,28,4,10,10,0.656,"Left",28,4,24,24,0,0,-24,0,-24,24,"Advent",18,-6,28,10,4,10
"68",7,-0.158966444191397,0.123936601685522,0.099248232607704,-0.0642183901018285,-0.132003845012617,-0.0149817073608594,0.167285670914864,0.288924097321003,0.220579815744723,-0.014115250033826,-0.300751353877504,-0.469694880536654,-0.344732623490173,-0.113060914046672,0.252727607384496,0.802416751326466,1.21525493040015,1.30767667604993,1.06970080396011,0.603428849698531,0.116458975952577,-0.24789763375208,-0.36556100044686,-0.0759192505993189,0.260227188267017,0.376157998710951,0.174447839375143,-0.357317890661357,-1.05572791918037,-1.52497100816055,-1.30123904847396,-0.708844280821234,-0.219792865780905,0.0511740447401872,0.204927667422228,0.391818875851493,0.634513241192822,0.806046519377045,0.713402499978955,0.273924017466483,-0.493258712648805,-1.39559282303453,-2.0056018305928,"LOF4-LOF5",2403,"DG_s12",14.094,14.797,15.453,15.453,28,4,10,10,0.656,"Left",28,4,24,24,0,0,-24,0,-24,24,"Advent",18,-6,28,10,4,10
"69",7,1.16679638299751,0.487384665327808,-0.417811861868925,-1.23636918645639,-0.76652256156785,0.216175650426553,0.999068790408616,1.44350453080509,1.57739470000535,1.43828775336869,1.05154784352696,0.558368691525923,0.487011173878754,0.782420545615102,0.92261074980148,0.741581175051198,0.254755701792003,-0.187240683935388,0.26844492925135,1.19627765016516,1.94691057399059,2.39173681940272,2.53620842708839,2.38518124811872,1.934030409025,1.17105821424117,0.214276023652721,-0.199782345928432,0.191320025989144,0.588750937854455,0.630913296496832,0.200068168136097,-0.765459992503063,-2.05018830012155,-1.22536204956392,-0.0640551938856131,0.579662566168196,0.851416892274552,0.809521267442404,0.517387260540762,0.0679711169042037,-0.414010670861046,-0.877185519474018,"RIN1-RIN2",2403,"DG_s12",14.094,14.797,15.453,15.453,28,4,10,10,0.656,"Left",28,4,24,24,0,0,-24,0,-24,24,"Advent",18,-6,28,10,4,10
"70",7,-0.118855484874915,-0.1046431867734,0.00951692931470127,0.213981742333615,0.361183850203671,0.373987148134285,0.269997209455626,0.179424840130075,0.221380286771581,0.294604413401167,0.258717756726643,0.0161445465319048,-0.459436562890993,-1.17519070771437,-1.84348676298562,-2.01083181663244,-2.05289034392994,-2.25358171913525,-2.56620059534845,-2.60944456603249,-2.74823610561437,-2.5254059660885,-2.07065373418445,-1.91769460101723,-2.02698644307502,-2.31682293230763,-2.26838594028559,-1.65827863577455,-1.00381295973752,-0.428636250912689,-0.106581454887687,-0.238527057073249,-0.878841567661357,-1.35306534222739,-0.775623490364056,-0.176930691524539,-0.0402605174575381,-0.222582074251493,-0.679238376225229,-0.684529893816396,-0.298516929665359,-0.213283550560389,-0.541005959523821,"RAM7-RAM8",2403,"DG_s12",14.094,14.797,15.453,15.453,28,4,10,10,0.656,"Left",28,4,24,24,0,0,-24,0,-24,24,"Advent",18,-6,28,10,4,10
"71",8,-0.281497354267426,0.0936892091989812,0.194257996626087,-0.00644985155763855,-0.332995650705715,-0.502382261151187,-0.616540869248841,-0.77604909491166,-0.903781253489501,-0.975618669078569,-1.08174890895657,-1.31806924309346,-1.59221335375446,-1.69258144246049,-1.61159603692933,-1.5863387869263,-1.29804282641897,-0.556348293450974,0.323571046695244,0.944346847355485,1.29782046283467,1.46903399047071,1.51103903285559,1.56255845913019,1.72795886179077,1.91381223428127,1.96991311053121,1.81400797325836,1.5237591534842,1.23735426522579,0.998148837110742,0.757880441189615,0.51281738832963,0.259288992608893,-0.0770788108233571,-0.627816001754775,-1.29790121344699,-1.5996532965046,-1.50065091173697,-0.883648248319457,-0.201060529961797,0.212684427832247,0.323305184144617,"RAM5-RAM6",2404,"DG_s12",16.453,17.156,18.64,18.656,10,10,4,4,1.484,"Left",4,4,0,0,0,0,0,0,0,0,"10-10",6,6,10,4,10,4
"72",8,0.0190894725553594,-0.0265358372948574,-0.0329664086962893,0.0404127734357873,-0.0024249464765802,-0.300065070825363,-0.739167340978016,-0.808309043064813,-0.426799212915194,-0.16035210438231,-0.203188584389547,-0.47011495001161,-0.709502184806805,-0.774427897310931,-0.56665582647098,0.139164868948334,0.970402035159228,1.59252817746214,2.00210836132807,2.28614852999629,2.49635787307555,2.54129807487443,2.3190735788614,1.80371291950632,1.0882526297101,0.272696261572857,-0.857500800285419,-2.66358486966568,-2.13458986950788,-0.734473755856198,-0.0166649628943327,0.235915883468307,0.481864582976042,1.11439023884062,1.80658925245216,2.27382224861739,2.48575241783442,2.44967668856303,2.15611352648982,1.58955349275878,0.739797299848795,-0.352677190144123,-1.37911431603622,"LOF3-LOF4",2404,"DG_s12",16.453,17.156,18.64,18.656,10,10,4,4,1.484,"Left",4,4,0,0,0,0,0,0,0,0,"10-10",6,6,10,4,10,4
"73",8,-0.164902467183873,0.156316799360406,0.166474407625519,-0.157888739802053,-0.412735194384803,-0.0979131411001282,0.212269213204933,0.18780000879685,0.0145188875001478,-0.0654319126323104,0.123315588294201,0.438800939277187,0.749230434013298,0.906754211813914,0.809825233241713,0.786612303787186,1.05925456853833,1.22133690507125,1.59995788050666,2.11594807746861,2.26576231032355,2.13586639481475,2.38985204730322,2.92358230561121,3.25032774187523,3.33546673863181,3.3094702853405,3.2832872099215,3.27367538392918,3.20320078200504,3.07420069903253,2.92586001137035,2.7379827733056,2.42668352469775,1.9519901679096,1.48610938397736,1.29215379253508,1.28045624598192,1.24133090213078,1.43912105580665,2.15442284060919,2.95155339260036,3.51325213428336,"RAM6-RAM7",2404,"DG_s12",16.453,17.156,18.64,18.656,10,10,4,4,1.484,"Left",4,4,0,0,0,0,0,0,0,0,"10-10",6,6,10,4,10,4
"74",8,0.00837688263444747,0.131734115108006,0.0453048357673644,-0.185415833509815,-0.334381023329742,-0.00517374189855602,0.505084696026547,0.841648313179201,0.962825001895094,0.875577059829252,0.578778903606404,0.153335637872377,-0.139719552672693,-0.185826061876021,-0.245106674013737,-0.395868816079494,-0.502642733015781,-0.376842907560812,-0.0443282408992598,0.285823161507171,0.544308923970064,0.753249010914722,0.867659362092466,0.737257294682026,0.278213133276257,-0.273813961961517,-0.292862156932211,-0.0369942569589288,0.0559935812971837,-0.17919193553389,-0.509613809415439,-0.292253452439439,0.198793681670091,0.492913880657149,0.4641874966802,0.0692399855921302,-0.700473365740262,-1.70099877217741,-1.82173447770257,-0.809140343040466,-0.0489295064298592,0.263719079827776,0.168340552939481,"RIN1-RIN2",2404,"DG_s12",16.453,17.156,18.64,18.656,10,10,4,4,1.484,"Left",4,4,0,0,0,0,0,0,0,0,"10-10",6,6,10,4,10,4
"75",8,-1.26385632976355,-0.204993828066857,0.549148173012549,0.919701984817854,0.952065009625109,0.656654974197242,0.160872476034188,-0.11619798927714,0.0459448222770416,0.315667261671649,0.432697941026086,0.307567789939588,-0.0458097982259495,-0.511881504799217,-1.05901803467692,-1.70740533962223,-2.22477268122692,-2.45726149673889,-2.18371547560361,-1.54062454728826,-0.95869020281406,-0.470672114492773,-0.0648904147173699,0.238094072153903,0.387193366462483,0.336012131654401,0.17181723407128,0.154538186462928,0.26097655240393,0.328564722812184,0.248394877639271,-0.168273246430979,-1.02517310467134,-2.21420377837052,-2.53233266021384,-1.74108207631607,-1.02558666227695,-0.612906917813661,-0.516630087378242,-0.607290678402369,-0.665584477937564,-0.699292708295557,-1.00429371345688,"RIN3-RIN4",2404,"DG_s12",16.453,17.156,18.64,18.656,10,10,4,4,1.484,"Left",4,4,0,0,0,0,0,0,0,0,"10-10",6,6,10,4,10,4
"76",8,0.260795799925897,-0.178666061643543,-0.287301871830575,0.205172133548221,0.606765522652617,0.553663331290037,0.195303902922566,-0.114841008176725,0.0170455931299172,0.274072259128883,0.284053848348078,-0.0931406062402722,-0.609002476985695,-0.542545502939416,-0.280318634289547,-0.0851957752436974,0.369437988316624,1.08424402051898,1.77649616394312,2.24127933280028,2.49493706605389,2.5707329221286,2.45583349252787,2.21859200754672,2.01054069516126,1.78933490102413,1.35506407803948,0.71096616257022,0.45700468949101,0.763637731965487,1.13545577507202,1.41621191300608,1.76927263055678,2.29158584886747,2.81708623173007,3.1766218874396,3.35365909219315,3.36529755090368,3.18008137447825,2.73594517864171,2.00968823756427,1.04388386518831,-0.0144248923287975,"LOF4-LOF5",2404,"DG_s12",16.453,17.156,18.64,18.656,10,10,4,4,1.484,"Left",4,4,0,0,0,0,0,0,0,0,"10-10",6,6,10,4,10,4
"77",8,-0.38453448973357,-0.0872147865915576,0.17691102342193,0.294838252903199,0.16195371811907,-0.114884040337418,0.0610886486934348,0.390647035989458,0.363832999945199,-0.0139876187073229,-0.511530711939929,-0.746240580900454,-0.795732186241358,-0.484489437236964,0.292387650997942,0.955663921277887,1.32478918677625,1.43985545959691,1.29198463221157,0.910582601123856,0.65350867255362,0.924933123912899,1.31104496888217,1.42751462829397,1.14348158958106,0.544056113153875,0.031877383438049,-0.000478270798755176,0.308557192310946,0.783118766643543,1.05515359997272,0.990023024190949,0.787906925980947,0.912708161781415,1.16288277166912,1.06741551208388,0.461136779906164,-0.14858686387254,-0.262143505377871,-0.194097149294969,0.249310450285835,0.750764499810046,0.980969742963607,"RIN2-RIN3",2404,"DG_s12",16.453,17.156,18.64,18.656,10,10,4,4,1.484,"Left",4,4,0,0,0,0,0,0,0,0,"10-10",6,6,10,4,10,4
"78",8,0.0822425368708402,-0.32806799745944,-0.0525573483257098,0.298382808914313,0.644215711773226,1.09460177515342,1.49410718113461,1.75952315138809,1.85959804956551,1.61578946527813,1.0692033035766,0.946342190581976,1.3961681386765,1.62493185482653,1.9222465451733,2.57621425986738,3.01451147119831,3.00414428003786,2.75999441795287,3.05211607797698,3.80996525976499,4.47736748726501,5.00880694877609,5.45117391803838,5.76832199895189,5.91364513213842,5.89051941381423,5.74896150627577,5.55060998212193,5.34107269971842,5.17389124825005,5.03376110184134,4.81836461848451,4.38492812708211,3.69402386520588,3.11790469657993,3.15054766760333,3.32236614238131,3.590314329877,4.14896231269812,4.74500124135986,5.20791648999996,5.54672750832003,"RAM7-RAM8",2404,"DG_s12",16.453,17.156,18.64,18.656,10,10,4,4,1.484,"Left",4,4,0,0,0,0,0,0,0,0,"10-10",6,6,10,4,10,4
"79",8,-0.96989634710942,-0.320719076356648,0.399614781873036,0.891000641593032,1.16773116193146,1.21849800197676,1.00560788031224,0.562114943706812,0.0914788088765528,-0.0174508269876217,0.299759380654607,0.645082858013323,0.815309695158724,0.620914007380117,0.222656555024638,0.267593396988048,0.935643896026728,1.69796360851587,2.28965489419252,2.6639423229213,2.85166478297414,2.86612026504561,2.69646792545852,2.35516912412463,1.90825419929415,1.48208252284949,1.13613308352018,0.888869068437875,0.670452720863453,0.735760362111916,1.11633372365862,1.41886090095152,1.52396279432575,1.53427415364209,1.62559171372967,1.85873913476677,2.20562648841648,2.46622958107713,2.46517052224361,2.1620230071081,1.57911461440083,0.906905878829397,0.58077834002563,"LOF5-LOF6",2404,"DG_s12",16.453,17.156,18.64,18.656,10,10,4,4,1.484,"Left",4,4,0,0,0,0,0,0,0,0,"10-10",6,6,10,4,10,4
"80",8,-0.493551254568108,-0.134727318327201,0.2274404951287,0.400838077766611,0.311813881621859,0.0190286724309772,-0.311111066775734,-0.596642647955266,-0.73659531434787,-0.42497238369093,0.109441098234752,0.501721180797649,0.663856337659551,0.566453359822725,0.22119047478353,-0.326518464138008,-1.01579148314935,-1.7051458654706,-1.86524945267111,-1.62686724602943,-1.45871964999073,-1.06526187862365,-0.284738556190176,0.405161920455381,0.77778855006815,0.844540028288693,0.605298282025196,0.063252817359329,-0.541297948630765,-0.615003964592299,-0.475484730061194,-0.690524650370301,-1.24629538886985,-1.64648982443681,-1.41965786989382,-0.895818255123681,-0.334750622584455,0.11147304809192,0.292793556942827,0.141487957184399,-0.31441161766293,-0.849091307258355,-1.16979772896326,"LIN1-LIN2",2404,"DG_s12",16.453,17.156,18.64,18.656,10,10,4,4,1.484,"Left",4,4,0,0,0,0,0,0,0,0,"10-10",6,6,10,4,10,4
"81",9,0.323311943899457,-0.0331204876093256,-0.301906881768405,0.0117154254782772,0.548754303484209,0.937798847570313,1.10443683311738,1.0411931457746,0.738850024843162,0.228916267522258,-0.418124677316431,-0.797127090518435,-0.609910610717769,-0.316787210314518,-0.277427517396328,-0.5016164706509,-0.610798379956089,-0.232413571506036,0.32998646926567,0.747095321238103,0.855525763298598,0.595739604080318,0.153732851444857,0.066440020300675,0.405051004821171,0.626855111021969,0.555507030224502,0.190970992336522,-0.142527569737055,0.0790306922457624,0.471217925602081,0.879228873722438,1.34767597708967,1.70001032563774,1.75149168414381,1.42975365466769,0.714144961976082,-0.394606611077259,-1.58710105860362,-1.22671161751132,-0.470636791726527,-0.196086446509105,-0.283327035981872,"RAM5-RAM6",2405,"DG_s12",19.656,20.359,21.859,21.859,13,7,10,10,1.5,"Left",13,7,6,6,0,0,-6,0,-6,6,"Advent",3,-3,13,10,7,10
"82",9,0.129045057552224,0.200247301547309,0.0324375120072826,-0.361729871106817,-0.705005954457639,-0.594482559222557,-0.324113330695707,-0.263294831525479,-0.438707018674244,-0.784845303881815,-1.13853005359766,-1.08500215072499,-0.609174778765651,-0.193193247781639,-0.0334013782343483,-0.113983081527998,-0.184859019238245,0.0694536090012221,0.484284413973279,0.776629544302008,0.921862451207211,0.961954180487329,0.960957016424839,0.999933029166748,1.06006532587234,1.02087336971352,0.776100549573167,0.27956225600304,-0.394098334489215,-0.907936866044379,-1.02383577081713,-1.07887934490168,-1.31092988800942,-1.48076265457792,-1.20607926055144,-0.684223359685582,-0.26632818241234,-0.0843788139988106,-0.159541211253956,-0.475334012105454,-0.909955170658251,-1.11030080632976,-0.918771965579922,"RIN3-RIN4",2405,"DG_s12",19.656,20.359,21.859,21.859,13,7,10,10,1.5,"Left",13,7,6,6,0,0,-6,0,-6,6,"Advent",3,-3,13,10,7,10
"83",9,0.599052042697169,0.101887260322869,-0.261080942749533,-0.439858360270502,-0.665160126085592,-1.09170763967123,-1.65296060527481,-1.83020736485283,-1.66936160733881,-1.74976920710381,-2.02589073971442,-2.0300140552429,-1.97218169013502,-2.20008059632722,-2.19865469478112,-1.59766097646397,-1.03543649401639,-0.803522848390946,-0.743341788892463,-0.287500331057764,0.386409680896033,0.876607670300217,1.10891015322528,1.14712026474052,1.07076473080841,0.862910175007867,0.478433684390174,-0.0537952963527264,-0.34295138576689,-0.194398515939985,0.0330018814872428,0.299722898265271,0.667296660726105,0.922809155119412,0.847119464681072,0.352180698154433,-0.534989451634507,-1.7040495671069,-2.62109207273257,-1.97812556436603,-1.1023428382977,-0.701891004771433,-0.676693893725897,"RAM6-RAM7",2405,"DG_s12",19.656,20.359,21.859,21.859,13,7,10,10,1.5,"Left",13,7,6,6,0,0,-6,0,-6,6,"Advent",3,-3,13,10,7,10
"84",9,0.504309614692357,-0.0203002586714174,-0.298472539118729,-0.185536816902212,-0.178396573315217,-0.231363204079658,-0.0347882241326332,0.338298761979628,0.604648949166371,0.691703824274715,0.648967368757587,0.569015686143313,0.557329059479351,0.607635047038023,0.611584691564964,0.477849628552486,0.11321589705747,-0.466514989215877,-0.901175372569068,-0.493474094722821,0.325197732400754,0.952026378830679,1.35987052186622,1.58271764210615,1.60127345547579,1.38868137887489,0.98140240288051,0.666048577448013,0.863554081201373,1.32725272505875,1.61149718670007,1.52679487960438,1.06310237781927,0.517720612397914,0.616303765128958,0.948639936742687,0.988391278911296,0.588843282264369,-0.214150133265013,-1.02423604892183,-1.33659594964867,-0.830128954729465,-0.174549135899232,"RIN2-RIN3",2405,"DG_s12",19.656,20.359,21.859,21.859,13,7,10,10,1.5,"Left",13,7,6,6,0,0,-6,0,-6,6,"Advent",3,-3,13,10,7,10
"85",9,0.112687878874942,0.113452006590911,-0.0463624380574288,-0.179777447408425,-0.214350195010192,-0.191671757618631,-0.187816376473754,-0.233813635426568,-0.287447468792063,-0.302869682763519,-0.283133125985253,-0.395731561693197,-0.683829674830512,-0.604769082769711,-0.206765309143738,0.26848517211026,0.689059160643228,0.907128943673682,0.851177744471349,0.499353331177985,-0.159228463583795,-1.08770089941671,-1.76257406347119,-1.48171423060582,-0.89832599180323,-0.692373560384979,-0.765391629805006,-0.698172847052627,-0.602280086398734,-0.579306387671631,-0.338988546367318,0.284472298441802,0.894171710281712,1.25312791047207,1.33292109198765,1.18888258844989,0.873798909652669,0.396627725124041,-0.0991405009694555,-0.391166501774443,-0.572885553324243,-0.886723898250683,-1.0558981056236,"LOF4-LOF5",2405,"DG_s12",19.656,20.359,21.859,21.859,13,7,10,10,1.5,"Left",13,7,6,6,0,0,-6,0,-6,6,"Advent",3,-3,13,10,7,10
"86",9,-0.0235389653410669,0.0914080248793123,0.0794602741310797,-0.147329333669327,-0.587500494826899,-1.04168849859677,-0.97601958921506,-0.494668683534336,-0.0902645834832656,0.0764696176964321,0.0113468750174253,-0.229738173946803,-0.68170440987693,-1.16149511277833,-1.41125771015906,-1.23395974485136,-0.777695648129923,-0.343320746083489,-0.0424184835803167,0.157623363037903,0.304766472173568,0.33105669159874,0.0923665502983235,-0.487115099300427,-1.2132968308324,-1.48848397690427,-1.52867203334278,-1.52283634484291,-1.00628995778654,-0.430979707941021,-0.0530158444240056,0.297289242780151,0.678792982931847,1.00843616553255,1.16252366019566,1.1363532722952,1.00979157855166,0.824964013399906,0.611777807430804,0.382036475420159,0.122850077628802,-0.101831577828535,-0.298132620493531,"LOF5-LOF6",2405,"DG_s12",19.656,20.359,21.859,21.859,13,7,10,10,1.5,"Left",13,7,6,6,0,0,-6,0,-6,6,"Advent",3,-3,13,10,7,10
"87",9,-0.163555425283251,0.0785762815659758,0.13328135505887,-0.048302211341591,-0.470941410462444,-1.05253528426066,-1.45645345574884,-1.23658393435579,-0.800361151329692,-0.58482580570317,-0.684142676973224,-0.95560790936225,-0.982192797485869,-0.552269877670181,0.0315542760967169,0.49961649069617,0.7794002858941,0.899454482982378,0.91144567334854,0.849885257682953,0.701217327526924,0.420775960406973,0.044685233264504,-0.24686954987021,-0.337668621012794,-0.327193472393745,-0.36729208449872,-0.601053173023693,-1.06476831742698,-1.4619824829761,-1.12486868970536,-0.777961003934523,-0.88690981383057,-1.41180009514413,-1.78188020630756,-1.82279682070882,-1.91479655493704,-1.53256884425759,-0.910412886555804,-0.56241839418068,-0.460171348871228,-0.499079721741433,-0.563147244538325,"RIN1-RIN2",2405,"DG_s12",19.656,20.359,21.859,21.859,13,7,10,10,1.5,"Left",13,7,6,6,0,0,-6,0,-6,6,"Advent",3,-3,13,10,7,10
"88",9,0.0313525036749898,0.0345645990205803,0.025944264296184,-0.0918613669917523,-0.326742827794813,-0.632735768058904,-1.03227157942796,-1.55780605789884,-2.2025804268888,-2.68152576073961,-2.3770979005454,-1.59757771327927,-0.868025844795035,-0.375182442213383,-0.177184019966365,-0.225947957035332,-0.353814708610646,-0.541743209253942,-0.879747333621312,-1.030737710766,-0.609981078817526,-0.117280998872662,0.145765412289569,0.178476281546745,0.0502864276232629,-0.165306776501867,-0.35803791741311,-0.494889092154363,-0.618716335055236,-0.761953838534446,-0.908854623388418,-1.00790060259556,-1.05374441464831,-1.10561864406267,-1.27457310964225,-1.65353359030261,-2.13140482282592,-2.50552100089039,-2.83575488732117,-3.1787616654449,-2.88963260549112,-2.40527238411145,-2.08149474562637,"LIN1-LIN2",2405,"DG_s12",19.656,20.359,21.859,21.859,13,7,10,10,1.5,"Left",13,7,6,6,0,0,-6,0,-6,6,"Advent",3,-3,13,10,7,10
"89",9,0.706864807993847,0.040971620175684,-0.35741925522726,-0.390417172942271,-0.538901305238838,-0.953891814083896,-1.52867912305381,-1.95377771634873,-2.06836629659203,-2.3036056123636,-2.38287601187871,-1.89423653849534,-1.57446596632609,-1.60032479036875,-1.69234163553856,-1.41690250357491,-0.84025406814704,-0.289135345066015,0.180965449170369,0.48905137463176,0.512878441012827,0.228781433241442,-0.100070033238254,-0.0265618138873371,0.278329141321517,0.443774649443681,0.434718176849699,0.348583312113796,0.303746109002581,0.252516543647429,0.246578504302942,0.435471743481807,0.760575469750462,0.934459241009138,0.795660392077052,0.319749550421532,-0.350031637292696,-0.917602676713713,-1.4404012991116,-2.03501134236095,-2.39644474108477,-2.63778121143659,-2.85859647299121,"RAM7-RAM8",2405,"DG_s12",19.656,20.359,21.859,21.859,13,7,10,10,1.5,"Left",13,7,6,6,0,0,-6,0,-6,6,"Advent",3,-3,13,10,7,10
"90",9,0.0308137404581563,-0.0549620740761423,-0.0664694638391321,0.0906177974571172,0.205098266564483,0.129576536195068,-0.130086296210865,-0.467736017521226,-0.544600136941968,-0.220337161858335,0.014674561515382,0.00632983392327713,-0.229920763102994,-0.350521539091424,-0.0650474604711064,0.444564847001349,0.895602768155996,1.16504947691797,1.16261004564782,0.899943209737153,0.623637334331221,0.561259701962988,0.511742580962279,0.334336291000607,0.0798579936174768,-0.268120939258097,-0.791051410644632,-1.27959128842959,-1.16223030519555,-0.766929151990094,-0.288949161935354,0.31864642990197,0.837546256367278,1.14764996237917,1.25529270063383,1.21960037554409,1.13108873053848,1.03895007433561,0.964375705114877,0.880261122329898,0.733085970947585,0.426244162287542,-0.147371092599311,"LOF3-LOF4",2405,"DG_s12",19.656,20.359,21.859,21.859,13,7,10,10,1.5,"Left",13,7,6,6,0,0,-6,0,-6,6,"Advent",3,-3,13,10,7,10
"91",10,0.363648084265221,0.0842944359199223,-0.197562327290584,-0.250380192894559,-0.157264080346943,-0.15806531407016,-0.304897086955163,-0.321386119781449,0.181443822644705,0.927286863462394,1.53396200137239,1.91981857136087,2.10777182209075,2.13131159137166,2.01407220061038,1.79163209857131,1.48737939935021,1.10823517602993,0.719801549800897,0.319889230071657,-0.175510418138114,-0.647952827413259,-0.617315857951369,-0.168484719378634,0.225796990194508,0.469184537524299,0.613832298771968,0.680043951336429,0.604963739116356,0.302029159234814,-0.224807425964954,-0.725991868737697,-0.810282021591235,-0.654425341918876,-0.485084496597643,-0.315135495312711,-0.250572885045359,-0.425153421331732,-0.763419998368487,-0.957765683243267,-0.976058725954791,-1.02305039890503,-1.16591256015161,"LOF3-LOF4",2406,"DG_s12",22.859,23.562,24.25,24.25,10,26,10,10,0.688,"Right",10,26,16,16,0,16,0,16,0,-16,"Disadvent",0,16,10,10,10,26
"92",10,-0.200645172512541,0.0149313406627964,0.202271545162397,-0.0165577133126522,-0.348661913903477,-0.156279832713528,0.269464498862318,0.655529837242341,0.913798792886068,0.914037351990217,0.607385572342801,0.0205816235958167,-0.760527630348573,-1.3167653050129,-1.03240963510203,-0.800500493233779,-1.00649197921895,-1.25520520297674,-0.95141427625688,-0.638341539314554,-0.63999511554913,-0.842943952205738,-0.8668173321864,-0.711430397951016,-0.716026059401619,-0.80421690056402,-0.695340929559043,-0.680622014948142,-0.856536034166849,-0.747774103142349,-0.292522878893184,0.0756708904769674,0.255814231625438,0.325932595634123,0.435329335584553,0.604464124690407,0.583052141092905,0.244929035174641,-0.392205738854036,-0.940611367065115,-1.07635148504919,-1.01828186525244,-1.01084241296603,"RAM6-RAM7",2406,"DG_s12",22.859,23.562,24.25,24.25,10,26,10,10,0.688,"Right",10,26,16,16,0,16,0,16,0,-16,"Disadvent",0,16,10,10,10,26
"93",10,-0.34165919984931,0.0180302391258138,0.17368938934503,0.149939571378468,-0.045674486010169,-0.394102102396053,-0.804070728204518,-1.22471821263405,-1.64343483752662,-1.76110263704482,-1.52031651853457,-1.05008271320312,-0.509586020934323,-0.179511913949607,-0.226408138158968,-0.644762245083131,-1.24241859203155,-1.72474459537828,-1.76075700828507,-1.58359387229171,-1.50067551228003,-1.31934121985691,-0.933560215843874,-0.588728124483286,-0.411581439432895,-0.433477110369445,-0.655168139929813,-1.10253934655399,-1.54127550657737,-1.50274989441371,-1.25359343412559,-1.08234697726207,-0.960308331071031,-1.01155806022508,-1.42463040042361,-1.75017732400334,-1.56539561690505,-1.60173635773787,-1.81386264489219,-1.48452481619008,-1.06154241703754,-0.818287604243187,-0.537575770525445,"RIN2-RIN3",2406,"DG_s12",22.859,23.562,24.25,24.25,10,26,10,10,0.688,"Right",10,26,16,16,0,16,0,16,0,-16,"Disadvent",0,16,10,10,10,26
"94",10,-0.475170725073561,0.017158059109275,0.263474997890541,0.194537668073743,-0.215757190607158,-0.841221078358951,-1.11288443061308,-0.784423479965818,-0.3718141691274,-0.061851701895641,0.10912557704378,0.0303675075434819,-0.306936280951952,-0.68521682988237,-0.920058389620658,-1.12242545430014,-1.47646254531615,-1.55765402243686,-1.00832495018202,-0.487892362068771,-0.26026412952828,-0.377013827658836,-0.909783749796247,-1.62196301253736,-1.88923425814013,-1.69743037898404,-1.48154038919139,-1.58410629824799,-1.5035235835678,-0.805412411944137,-0.00216055230438705,0.561869317721684,0.844253115503162,0.92273403366729,0.920317892677933,0.875446982510298,0.642340976970208,0.0681296517248571,-0.68903938760002,-1.03807424675693,-0.738908545284207,-0.253069383337794,-0.00442816534518364,"RIN3-RIN4",2406,"DG_s12",22.859,23.562,24.25,24.25,10,26,10,10,0.688,"Right",10,26,16,16,0,16,0,16,0,-16,"Disadvent",0,16,10,10,10,26
"95",10,-0.378279076535375,-0.463920451850886,0.143805546669882,0.698393981716378,0.945710224015342,0.916047267954958,0.641134812125627,0.141063941114387,-0.576689817890125,-1.2233516986297,-1.23233229473583,-0.958598020730891,-0.943706942357482,-1.21688797230835,-1.30058290652636,-0.559464073031061,0.327438130527669,0.973559468254598,1.38751791771996,1.59434733713625,1.66468951853803,1.68267788108487,1.6267691998501,1.43654700774432,1.15703184673429,1.02076839234569,1.0586284960994,0.981629851436055,0.60486517095108,-0.108808808411123,-1.13171615949362,-1.94690488324966,-1.50555538864538,-0.823845384198745,-0.361364835815064,-0.0358209065475705,0.076728033694458,-0.0321998302862507,-0.231679348089736,-0.366971188098568,-0.372281441171838,-0.367378669461934,-0.605634203503723,"LIN1-LIN2",2406,"DG_s12",22.859,23.562,24.25,24.25,10,26,10,10,0.688,"Right",10,26,16,16,0,16,0,16,0,-16,"Disadvent",0,16,10,10,10,26
"96",10,-0.30318090034796,-0.312572578853199,0.21498291014154,0.40077056905962,0.207829606172078,0.223481674304448,0.741747399357529,1.2882112381536,1.67015796824553,1.81257325427251,1.68123290751164,1.28842040160514,0.811901749603546,0.692066255440059,0.90719661957513,1.01031631178163,0.805142683655061,0.512133914186194,0.629977554066709,0.88520104188302,0.837686356670037,0.482588066406194,0.103858041395588,0.104268199654064,0.296687933141888,0.26602991399221,0.0532320678297369,-0.0512617357079632,0.161866966542791,0.48995801836937,0.705118119332083,0.815281011567972,0.875260727256139,0.766758514363701,0.371904817256789,0.122419116169261,0.345435138294215,0.577325631035897,0.529102761847922,0.194304987836501,-0.28078337690017,-0.502596890501215,-0.256520818881897,"RAM5-RAM6",2406,"DG_s12",22.859,23.562,24.25,24.25,10,26,10,10,0.688,"Right",10,26,16,16,0,16,0,16,0,-16,"Disadvent",0,16,10,10,10,26
"97",10,0.674986372022542,0.331359278969369,-0.231924671367006,-0.774420979624906,-0.900340877011843,-0.632688533498816,-0.228050709388841,0.19218934735433,0.514619226852504,0.780372495547106,1.07752787637616,1.3340907043339,1.45288886544544,1.39224512759837,1.16171869141322,0.868174832596096,0.591047908185484,0.27376321441444,-0.167287849718351,-0.804839470034678,-1.55648773575733,-1.98570142594793,-1.69157402046648,-1.12698640757714,-0.7141083212227,-0.479412070687314,-0.344518936690744,-0.201603608286042,-0.0319714874856114,0.0384397601641009,-0.0493410013470923,-0.174687334488254,-0.207243196501407,-0.249933029272889,-0.401175596258699,-0.63009744199459,-0.901380892953446,-1.09725672010903,-0.959263878478598,-0.73049211372367,-0.701167516461219,-0.788971966095446,-0.848755582196589,"LOF4-LOF5",2406,"DG_s12",22.859,23.562,24.25,24.25,10,26,10,10,0.688,"Right",10,26,16,16,0,16,0,16,0,-16,"Disadvent",0,16,10,10,10,26
"98",10,-0.22925602740164,0.0176534955099932,0.140082922385043,0.0715196095066073,-0.18034257640525,-0.293027677335985,0.107442223459431,0.560514676656076,0.721808526166264,0.551890965535319,0.158894724484695,-0.0279251774655176,0.155082216811843,0.272451629012057,0.151058461444268,-0.186663449391128,-0.711800566852856,-1.38845607866906,-1.8044759825254,-1.793795111556,-2.00065457398078,-2.36132419699989,-2.17616638881561,-1.76981135444542,-1.7287409936037,-2.00006278295028,-2.35088701136601,-2.51423239594849,-2.04165276443137,-1.14061432350876,-0.446590820584964,-3.20351659777174e-05,0.342816782081361,0.664162930272443,0.853138971112715,0.808569802419571,0.4825593119667,-0.0472821528296397,-0.449096638971511,-0.420477833665858,-0.396983788039073,-0.732641522740966,-1.22757527894983,"RAM7-RAM8",2406,"DG_s12",22.859,23.562,24.25,24.25,10,26,10,10,0.688,"Right",10,26,16,16,0,16,0,16,0,-16,"Disadvent",0,16,10,10,10,26
"99",10,-0.343305737266389,0.0112433439437343,0.201933150408205,0.130129242914448,-0.227442442519891,-0.847077615019593,-1.5334441952725,-1.91612322739941,-1.86240832678602,-1.71436150241595,-1.67225112279694,-1.80859969841178,-2.10619124613805,-2.25939014924371,-2.16115820019547,-1.91763355371993,-1.47389685181279,-0.891272379642437,-0.375621945064209,0.0619778496940633,0.393849210012897,0.588169961210637,0.62051679927821,0.462620601884838,0.103057594419495,-0.42151013204286,-0.992953324235572,-1.31673886799046,-1.15083851867304,-0.838508505405036,-0.693158684903686,-0.787094601806817,-0.980158536894573,-0.933671275927225,-0.379467697294787,0.265820417859455,0.721714761446661,0.914191059718272,0.850336184633473,0.605449812706542,0.291040131011876,0.101837231646002,0.14100762316013,"RIN1-RIN2",2406,"DG_s12",22.859,23.562,24.25,24.25,10,26,10,10,0.688,"Right",10,26,16,16,0,16,0,16,0,-16,"Disadvent",0,16,10,10,10,26
"100",10,0.219308569068757,-0.464201779170153,-0.20304313685447,0.447936346955866,0.858561156342468,0.99278228176405,1.13186881423913,1.52379678627427,1.96650023952255,2.24591644788802,2.44342431161286,2.63959962203236,2.75014608529056,2.65292825252486,2.30986290743389,1.79766436428286,1.15132910248239,0.379178394718474,-0.195326951583596,-0.23115959353327,-0.201435963441362,-0.0921740119586971,0.11290240087017,0.347393844144188,0.658269435749711,1.01717789948126,1.28765890516797,1.45348028785681,1.59427405183945,1.65007520059378,1.54207201238099,1.51289749581623,1.86431511299671,2.21950016700815,2.32801308959401,2.15795061690161,1.71213503528644,1.18513305040301,1.01305898360422,1.12716786260185,1.08674032388458,0.735209938454291,0.0603787691711561,"LOF5-LOF6",2406,"DG_s12",22.859,23.562,24.25,24.25,10,26,10,10,0.688,"Right",10,26,16,16,0,16,0,16,0,-16,"Disadvent",0,16,10,10,10,26
"101",11,0.257986589070105,0.297222213944037,0.0158705763263853,-0.571079379340528,-1.21492224488656,-1.43104775671933,-1.29282364791757,-1.14240495801718,-1.14373033925825,-1.19753970989628,-1.24574397156237,-1.49450193893784,-2.08344055964179,-2.53694514322271,-2.49849776073508,-2.76639358474105,-3.12413102709144,-3.00962328596426,-3.13481856655305,-3.5496150020901,-3.7833730523786,-3.35852380050099,-2.71144480683664,-2.15875845329823,-1.74082912690795,-1.5227010688817,-1.54864437244564,-1.76003314724217,-2.07680149601375,-2.45005340925185,-2.70017919764242,-2.59498771478325,-2.23356166502518,-1.82180599164806,-1.57755296547059,-1.65254097414257,-1.99731171485156,-2.36046661195102,-2.50941623984582,-2.51541052414829,-2.64929674193177,-3.03396646845015,-3.36675743701347,"LOF5-LOF6",2407,"DG_s12",25.25,25.953,26.859,26.859,13,22,10,10,0.906,"Right",13,22,9,9,0,9,0,9,0,-9,"Disadvent",3,12,10,13,10,22
"102",11,-0.591137798863532,0.0185278942760991,0.337541421461934,0.235068483125495,-0.199896219038722,-0.649522078624692,-0.559732127727246,-0.201208781832946,-0.0313178459621071,-0.0999524878492153,-0.193684965511922,-0.186762275118669,-0.261727557599121,-0.502719380911977,-0.510812412334847,0.124508327617063,0.771852405937079,1.22208443085261,1.54670387023861,1.7774682534326,1.86889596430113,1.74524930026977,1.38075718571842,0.809851531528338,0.0935253056366552,-0.650144600399225,-1.23527606867109,-1.44857709224909,-1.33024607109393,-1.03154793470579,-0.696186412626151,-0.480584053266201,-0.460539493736746,-0.573654968786274,-0.618250386748594,-0.567603740079287,-0.642565435043672,-0.929531226396137,-1.15637810372382,-1.1034959899793,-1.19129778895592,-1.46875278876597,-1.29125150693268,"RAM5-RAM6",2407,"DG_s12",25.25,25.953,26.859,26.859,13,22,10,10,0.906,"Right",13,22,9,9,0,9,0,9,0,-9,"Disadvent",3,12,10,13,10,22
"103",11,-0.0836112731535206,0.163847770366184,0.124022693907419,-0.20425919112008,-0.742779753849319,-1.12084227791519,-0.699567137109293,-0.13372799260085,-0.00955882176920753,-0.286546287648246,-0.474216273298987,-0.291722425383661,-0.0958632402905319,0.308435482895055,0.945570063062036,1.50775254570872,1.90592152956689,2.21264934565149,2.42681827629007,2.49383548245431,2.44530771660704,2.35912244457971,2.25643582753251,2.04110214552749,1.6205635168879,0.994555639165588,0.361116621623649,-0.0706547231182721,-0.550355688795001,-1.25415091618116,-1.74012866250881,-1.78739687856263,-1.33461829221945,-0.556309608537711,0.0151553073659194,0.198245939547615,-0.00739579268632617,-0.30341383609267,-0.207968683854791,-0.0363809758679903,-0.171573097356879,-0.588595683368101,-1.18040295568695,"RAM7-RAM8",2407,"DG_s12",25.25,25.953,26.859,26.859,13,22,10,10,0.906,"Right",13,22,9,9,0,9,0,9,0,-9,"Disadvent",3,12,10,13,10,22
"104",11,-0.248815758188677,0.0610956582602977,0.193346348282825,-0.00562624835444403,-0.13939342951935,0.136662856019559,0.196622923720827,-0.0886037991943613,-0.654365985521844,-1.45725548683886,-2.14790824233283,-1.45849984848644,-0.722670925211235,-0.319021986481111,0.161373695215152,0.912846355460951,1.62451613851109,2.16046913706808,2.57359209213297,2.82756139826623,2.87209695438843,2.73558636023241,2.51357692843516,2.27699335581504,2.00445983062723,1.57207862337695,0.932984160202542,0.380958048014168,0.146341263208122,-0.0851028282459101,-0.392492935032568,-0.680472830401046,-0.773086779366322,-0.615748159546444,-0.323831248153088,-0.17893601441507,-0.375556589166242,-0.96225471348297,-1.85768123862212,-2.6270003509751,-2.39322138638808,-1.76561730050301,-1.28164065408433,"RAM6-RAM7",2407,"DG_s12",25.25,25.953,26.859,26.859,13,22,10,10,0.906,"Right",13,22,9,9,0,9,0,9,0,-9,"Disadvent",3,12,10,13,10,22
"105",11,0.0452877118140353,0.206916016630506,0.0703662567274392,-0.322569985171981,-0.899172582552681,-1.51034694692932,-2.02364610875034,-2.43534028702398,-2.62250009187262,-2.31389304880364,-2.06214595420988,-2.28127599587514,-3.02919225503716,-3.91147359303356,-3.85746208150541,-2.67237794798762,-1.51135017478979,-0.665215698202452,-0.0711964805496557,0.236494958913741,0.218202818165135,-0.0795013139142551,-0.568553138130685,-1.18299362355267,-1.90360350484578,-2.70107452450524,-3.32188436800868,-3.34891358862703,-2.90749013507225,-2.4914160107097,-2.32737199322378,-2.17709897089814,-1.53732336432781,-0.818126626289068,-0.422877343646636,-0.341896851673836,-0.512684690377657,-0.859737582660631,-1.33757126146725,-1.98265076727135,-2.91456667941985,-3.83697908437094,-3.56494861498079,"LOF4-LOF5",2407,"DG_s12",25.25,25.953,26.859,26.859,13,22,10,10,0.906,"Right",13,22,9,9,0,9,0,9,0,-9,"Disadvent",3,12,10,13,10,22
"106",11,-1.19644502344219,-0.418912642457101,0.468025580804555,1.14733208509474,1.5701010970764,1.74197268700175,1.67092114706445,1.44909705254097,1.44188616450019,1.71414250267681,1.86963417689749,1.80010217657662,1.59967772355087,1.33201006908634,0.981174085986686,0.613525687655805,0.311047671454331,0.0858971528756269,0.135061395655505,0.796684674519015,1.66202199881299,2.32991773170119,2.74891564549884,2.9499730282558,2.91803272550509,2.59438591146841,1.98404214001952,1.30549307361152,0.960334571734345,0.932351696497817,0.918907337206987,0.639195611870009,0.0393385696413695,-0.621114058218449,-0.688201222053484,-0.520894502264271,-0.480023111001722,-0.615371438697906,-0.940506756542121,-1.00774188034223,-0.440934919616759,0.254738548112889,0.723708861155283,"RIN3-RIN4",2407,"DG_s12",25.25,25.953,26.859,26.859,13,22,10,10,0.906,"Right",13,22,9,9,0,9,0,9,0,-9,"Disadvent",3,12,10,13,10,22
"107",11,-0.265275416701424,-0.0968070097277955,0.0540630629720518,0.308019363457168,0.559317351068341,0.651110766898093,0.620780453985182,0.627155212002135,0.650155839400012,0.508795218462339,0.223897071382536,-0.0372564081788873,-0.340433959602649,-0.81744950887804,-1.29040891982108,-1.49954867534077,-1.64871018193501,-1.77148136589873,-1.63961404190117,-1.16485846882911,-0.387659873191073,0.472124293475565,1.12734672441158,1.52591115076361,1.71814573694581,1.78236815769219,1.77980899496038,1.71063086967519,1.60227359519302,1.51127899217039,1.39469662459285,1.16384351434692,0.778802866618001,0.275175733800697,-0.223949539987325,-0.470860910679621,-0.286231343385106,0.137672844736709,0.53758276803852,0.744797026968367,0.737469708769936,0.538095862651595,0.250221410570086,"RIN1-RIN2",2407,"DG_s12",25.25,25.953,26.859,26.859,13,22,10,10,0.906,"Right",13,22,9,9,0,9,0,9,0,-9,"Disadvent",3,12,10,13,10,22
"108",11,-0.0913719535713122,0.0517613126289813,0.0488691717591134,-0.00925853081678341,-0.174650189900567,-0.523330550945588,-0.935043809464232,-1.02539957552162,-0.946457583424268,-1.00525187521751,-1.11006347497044,-1.00781580618147,-0.73565692125687,-0.526832500049765,-0.615847974580761,-1.02475805050305,-1.40293066395004,-1.11546591920422,-0.281186024009067,0.481210974857785,0.885717155806505,0.927414758462696,0.652762256454634,0.0742359029916431,-0.670964027514984,-0.912395082316009,-0.51073096047646,-0.140093671347753,0.118016502097699,0.227324102558642,0.0765228379722176,-0.341670460085973,-0.698348709148804,-0.510374859504376,-0.244832380048195,-0.155262223164592,-0.119800189725351,-0.0325926990292924,-0.00839607575196233,-0.192685781047887,-0.615695816214039,-1.18784301012335,-1.49782638031146,"LOF3-LOF4",2407,"DG_s12",25.25,25.953,26.859,26.859,13,22,10,10,0.906,"Right",13,22,9,9,0,9,0,9,0,-9,"Disadvent",3,12,10,13,10,22
"109",11,-0.703138918302135,-0.26721037628715,0.324718563580806,0.645630731008481,0.625540097127303,0.297531418681126,-0.218454376207847,-0.384922952193636,-0.131381992733208,-0.0255652665665771,-0.116814963374609,-0.373972577615745,-0.84985501097816,-1.40336394462488,-1.76950091088545,-1.93266187584726,-2.03513001759338,-1.80102241324997,-1.10337168150059,-0.227820173946282,0.488627187888163,0.959535877565612,1.18620465285681,1.19537481710633,0.976655016725312,0.494003415886191,-0.32947619244058,-1.54561181554271,-2.90724184015361,-2.26238764037744,-1.20222611603145,-0.533296840890997,-0.118447616798495,0.0551953962037146,-0.112503474073702,-0.6644334341399,-1.23351678467386,-1.31690073594196,-1.35750438066131,-1.45335594803228,-1.09651321885826,-0.615414585287533,-0.348359739602527,"LIN1-LIN2",2407,"DG_s12",25.25,25.953,26.859,26.859,13,22,10,10,0.906,"Right",13,22,9,9,0,9,0,9,0,-9,"Disadvent",3,12,10,13,10,22
