"","trial","time_1","time_2","time_3","time_4","time_5","time_6","time_7","time_8","time_9","time_10","time_11","time_12","time_13","time_14","time_15","time_16","time_17","time_18","time_19","time_20","time_21","time_22","time_23","time_24","time_25","time_26","time_27","time_28","time_29","time_30","time_31","time_32","time_33","time_34","time_35","time_36","time_37","time_38","time_39","time_40","time_41","time_42","time_43","time_44","electrodes","X","SID","newround_time","choice_time","buttonpress_time","reveal_time","self_payoff","other_payoff","self_foregone","other_foregone","RT","side_chosen","self_var_payoff","other_var_payoff","ineq_var_abs","ineq_choice_abs","ineq_foregone_abs","ineq_disadvent","ineq_advent","ineq_disadvent_choice","ineq_advent_choice","ineq_choice","chose_equality","self_diff","other_diff","L_self","R_self","L_other","R_other"
"1",1,0.728056476775626,0.375389984381181,-0.721702547155513,-0.381743914001294,-0.544199708496935,0.356959520791116,-0.590650644805708,1.15500616812818,1.43638758135778,-0.581016200226912,0.889690525439225,-0.152975525767495,0.316380696208074,1.46489255345616,-0.562513773886228,-0.523053674927382,0.744888686676291,0.666627022153876,0.209017254472246,-0.172976192474165,0.185920357487993,-1.16384548474602,-0.824449920145523,-0.417463034639616,-0.00772723328644664,-0.12255901153676,-0.0608827641367715,0.147589862859324,-0.443258853017214,-0.899018845029661,-0.416741444270518,0.214253033662226,0.365595481369087,-0.0531256696202758,0.0396029946362528,-0.116672765681226,-1.11242239996977,-0.470660862922054,-0.369171697391816,0.113454054235172,0.125008477588426,1.02048843847203,0.412707747388376,-0.508366630982312,"LIN2-LIN3",2169,"DG_s11",-0.61,0,2.015,2.031,10,10,10,18,2.015,"Left",10,18,8,0,8,8,0,0,0,-8,"10-10",0,-8,10,10,10,18
"2",1,-0.154695337223687,0.100806572226472,-0.83204823975379,0.885937004751005,0.255201116823796,-0.17017082284897,-0.64164308217684,0.865838460330226,1.63498015944507,-0.977637154938129,0.847397779204247,0.628762124329227,1.77491815487133,0.16587136050654,0.461462881163759,0.0130913488946978,0.13322550172478,-0.197350793694854,0.475645839626868,0.483038027731281,0.26166618515646,-0.136733689290625,-0.20953979463523,0.591396968878514,0.672157724777868,1.87407145881836,1.13147689333581,0.33679690989496,0.367832306842266,-2.43487833094402,0.0274425142331118,0.633984651041231,-0.154695337223687,0.899854755179918,-0.234903378181945,-0.195104118083646,-0.226763152985569,-0.636078679902204,-0.284266909465369,0.372570450446326,0.401057289968267,0.372816163122723,0.993293968950403,0.367134906084635,"RIN1-RIN2",2169,"DG_s11",-0.61,0,2.015,2.031,10,10,10,18,2.015,"Left",10,18,8,0,8,8,0,0,0,-8,"10-10",0,-8,10,10,10,18
"3",1,-0.755919870331331,0.385354037075579,-0.044278964387054,0.414844797642805,0.426212490743215,-0.529003504919369,0.742778815622793,1.5027704293433,0.331559065134247,0.689732460087654,-0.118295092308529,0.247207572580642,0.360910560401344,0.676049957595244,-0.0750341191716277,0.567032857884835,0.996107277848531,0.0448331513095166,-0.404404170517939,0.21072808921408,1.85750292680411,-0.818115828033155,0.596426156581468,0.779574151374104,0.58391016578997,0.00784062457560442,0.0480835499855727,0.294355931180486,0.382016285236013,-0.656603030044927,0.735751379815336,-0.0688022457349762,0.631216202318264,-0.166699602790188,-0.0996533286641186,-0.761737659096869,-0.990165238557684,0.0945540786669294,-0.0381667977514155,-0.500844020417386,1.2343560294879,0.339975407249489,-0.0851727180835442,0.287425486794766,"LIN3-LIN4",2169,"DG_s11",-0.61,0,2.015,2.031,10,10,10,18,2.015,"Left",10,18,8,0,8,8,0,0,0,-8,"10-10",0,-8,10,10,10,18
"4",1,-0.727177990809754,1.28771203267634,-0.78616146774216,0.225627425875569,0.933003292928766,1.5675783543279,0.64331788090881,0.213357333283755,0.82145495056355,1.44640509294408,1.68428231369112,0.899845255657477,1.52244401372995,1.78280761908556,1.07052936463367,1.11290054614075,1.3439631234326,0.466885071381918,1.33750433110428,1.36747076249824,1.83196287945888,2.53408977348557,1.58580244811376,0.874549058908672,1.59475320222257,2.48148482590439,1.43120791135552,0.719192675433568,0.11856459428966,0.00947794483768094,2.67995435708766,1.03856392198485,1.43628440645537,2.0421350090997,1.39067299898495,1.53867403193772,-0.0290523860589911,1.50037191624138,1.36962857100291,1.08782086174373,1.38157967146692,0.912786971000045,0.738465999291501,1.23651450210793,"LIN4-LIN5",2169,"DG_s11",-0.61,0,2.015,2.031,10,10,10,18,2.015,"Left",10,18,8,0,8,8,0,0,0,-8,"10-10",0,-8,10,10,10,18
"5",1,-0.0334861138332667,0.55168164963529,-0.962547478449521,0.444351942647498,-0.501831730788001,1.10098775833738,0.385704257224519,0.256770573848626,-0.0421079403613054,-0.64363870047923,0.812285633720808,-0.520108317224111,-0.291879995424552,-1.10983497344228,-0.00219468069370743,-0.190552686075692,0.77071807477041,0.636378439629147,-0.352294999428173,-1.16380632946231,-0.547265283058364,0.221615727264979,-0.0990621859763223,0.400083589948862,0.236055716329957,-0.253134921658315,0.697914346759757,0.864301125229749,-0.322015341584215,-0.216871946738271,-1.0838858476713,-0.933196052082414,-0.608890583195774,-0.525886378768516,-2.3491714458197,-0.963435127506029,-1.45972477261024,-0.523044218859942,-0.3902021768179,-0.340947287096286,0.617826470947818,0.163352443094936,-1.19298194607052,-0.899342709663637,"LIN1-LIN2",2169,"DG_s11",-0.61,0,2.015,2.031,10,10,10,18,2.015,"Left",10,18,8,0,8,8,0,0,0,-8,"10-10",0,-8,10,10,10,18
"6",1,-0.784362624365017,0.142474971857676,1.49672569875003,-0.854838046242685,0.351394270591328,-0.703547550208115,1.60854299314844,1.20245454960897,-0.00700332665885095,-0.0842180334792204,-0.102219466997878,-0.66012449769212,0.108516296366108,1.2755599179472,0.462216296274676,-0.527637513043189,0.739078007099836,-0.357913863956261,-0.184452191818216,0.669476801415883,1.70201037705243,1.46881362353268,-0.596995328340555,0.288531135015104,-0.209609017364295,-0.295768915512151,-0.409516114341347,0.477517527896104,0.529591698747447,0.942527581205502,0.660160867957181,0.598406806282237,-0.237817286314903,0.0825648624935758,0.262101002104225,0.0359071096573225,-1.31784713319019,-0.240837187587165,0.359032060039445,0.740765885163184,-0.314331868751093,-0.363963292688725,-0.349931238112966,0.0436984562571541,"RIN3-RIN4",2169,"DG_s11",-0.61,0,2.015,2.031,10,10,10,18,2.015,"Left",10,18,8,0,8,8,0,0,0,-8,"10-10",0,-8,10,10,10,18
"7",1,-1.75887557491443,0.900064315290745,-0.114990108270791,0.973801367894473,0.697968698964869,0.603738237980898,-0.73898368664772,-0.405039542570837,0.450206154074174,-1.06484264669848,0.514831545941949,0.19927744510784,1.10342864062293,-0.167798187744558,-0.859509670732341,-0.0745497779368245,-1.05835905802479,-0.394262775321483,0.649265327166442,-1.28683499533034,-0.462516685016078,-0.820054118492268,-0.61206118442844,-0.482501362914913,-0.228980157703813,1.44799268291283,0.148177551457964,0.139545646329426,-0.616494249634734,0.626319706865454,0.517229918430139,-1.38497250392903,0.275606887768308,1.44439885455545,-0.0814194170216291,-0.19813017516782,-0.661819763131954,-1.02473280379178,-0.484218621784323,0.750619585952526,0.211024228073493,-0.536677929417636,0.553177001816154,0.190485334642648,"RIN2-RIN3",2169,"DG_s11",-0.61,0,2.015,2.031,10,10,10,18,2.015,"Left",10,18,8,0,8,8,0,0,0,-8,"10-10",0,-8,10,10,10,18
"8",2,0.0316192424352444,0.0682070705185178,0.193091055668327,-0.292917368622089,-0.987831916265809,-0.547797550211272,-0.527915419470848,-1.29597463449022,-0.937192440140079,-0.932784453137213,-1.07322694257356,-0.356872446079084,-0.702611383518474,-0.592183928481467,-0.137388770514872,0.603651540771897,-0.285240216914143,-1.63973204986448,-1.84090795248829,-0.439304275406513,-0.39259923023526,-0.94223563217638,0.0557721664616331,-0.464388909391978,-1.84048586313978,-1.75677092953731,-0.922606858845274,-1.19546090276142,-1.7777864917601,-0.837425261375251,-1.26719870840431,-0.763822264342884,-0.390782249226621,-0.383383333526253,-0.578880007315672,-1.20138245966485,-0.861760030500587,-1.24842582076212,-0.962257421543788,-1.08160520821955,-0.771544681982971,-2.04657908944149,-2.01221524187525,-0.432828966789206,"LIN1-LIN2",2170,"DG_s11",3.031,3.64,4.797,4.812,12,12,10,10,1.157,"Left",12,12,0,0,0,0,0,0,0,0,"Equal",2,2,12,10,12,10
"9",2,0.597546710737211,-0.331519058293974,-0.488921179473247,0.22289352703001,0.308628706756526,0.65260108629597,-0.426790941424907,0.168951130143772,1.52610990663876,-1.49167621371754,0.538115132700152,0.223443335788961,0.374592197892893,1.28620047497185,-0.0964326638908537,0.487125909245522,-0.229334057421008,1.08989114776932,0.984493948998558,0.547051967065251,0.727493118563169,0.216414482366593,-0.503531750449943,0.8242597494525,-1.50088236352153,0.777001308598832,-0.631310481710477,0.633525363363747,0.77664010216543,1.26481221792459,-0.304025454064891,1.10671807440717,1.0278541721672,0.280191603480235,0.739844192463385,0.825894650647018,-0.106822932346597,0.895706835045592,-0.0321360952979721,-0.602203759285748,0.0507928105578874,0.589051810265254,0.306000432538601,-0.143655205247818,"RIN3-RIN4",2170,"DG_s11",3.031,3.64,4.797,4.812,12,12,10,10,1.157,"Left",12,12,0,0,0,0,0,0,0,0,"Equal",2,2,12,10,12,10
"10",2,-0.25148816019673,-0.709769147308858,1.06924690855075,-0.107989601045165,-0.740953402081973,-1.56102188614639,-1.09713848893392,-1.55301408655362,-0.659011343880272,-0.65049710985383,-1.11604126914337,-1.42539251714864,-1.62845837270906,-0.582847504487864,-1.01896451054187,-0.339362766081367,-0.172313874726105,-1.3718217497706,-0.657711013970583,-0.414125307515524,-0.26625110428472,-0.481223182004739,-0.514446201161933,-1.1317977810887,-1.36869866958109,-0.928473558671516,-0.913377565212796,-0.916859588302288,-1.4582060076284,-0.74565524850539,-1.3080240242814,-1.99053873521471,0.0711082450669398,-0.949749648688387,-1.21089650657811,-1.13246904719632,-1.35817126715831,-1.53300340821602,-1.28005078553858,-1.31337401475059,-0.74176074898222,-0.268418428802474,-1.03948805835547,-0.938255979553235,"LIN2-LIN3",2170,"DG_s11",3.031,3.64,4.797,4.812,12,12,10,10,1.157,"Left",12,12,0,0,0,0,0,0,0,0,"Equal",2,2,12,10,12,10
"11",2,-0.211860980691335,-0.889600495153593,1.01642948452431,0.0850319913206219,0.70693601815888,0.758553102423709,0.0592957107551246,0.14732805247071,0.289731432695373,-0.671107121414614,-1.46090596357195,0.283443302219661,-0.350694088569352,0.049924021354089,0.132600408239732,1.07733364549459,0.485980309567663,-0.444221913213246,0.0162264149801521,0.291344718929029,0.310643357544057,-1.2995389140777,0.174764022945141,-0.082366505262601,-1.28588012004999,-0.0831935781610813,-0.529385877312728,-0.660820349672766,-0.181659805239323,-0.858266458088682,-1.86633005529406,0.734676577270525,-0.463702075688434,0.344568161518811,-0.41324641639328,-0.0505661375974071,-1.02437259094344,-0.0524365456243272,-0.250065898772289,0.0190316407701241,0.716867761248372,-0.283871934902743,0.499392922935463,1.0298172980894,"LIN4-LIN5",2170,"DG_s11",3.031,3.64,4.797,4.812,12,12,10,10,1.157,"Left",12,12,0,0,0,0,0,0,0,0,"Equal",2,2,12,10,12,10
"12",2,0.453051903411522,-1.50330936453104,0.507087294791564,0.543170166327949,-0.936503169060441,0.1462695059834,0.593825367094045,0.338061970499262,0.281982219815787,1.28658125666826,-0.303312781107974,-0.283740241052429,0.618969069496413,-0.00492149401758368,-0.263199409771359,0.971580965150918,0.192053202528277,0.987541176256481,-0.943290584045522,-0.0644482869850402,0.15558161365589,0.72993823454553,-1.01120712904187,-0.42563623663615,-0.0841796732956035,1.03703839285441,0.6190453666849,0.520732317655706,0.0544279908182612,-1.74647082070353,0.909312650454718,-0.440492939359575,-0.812850786379008,-0.720095045520154,1.22691362954264,-1.48152240265938,0.29296041186932,0.902111899269136,0.394811302721724,-0.808888761932536,0.34344622237117,1.28836876691965,-0.165094352644008,-0.398677789982686,"RIN1-RIN2",2170,"DG_s11",3.031,3.64,4.797,4.812,12,12,10,10,1.157,"Left",12,12,0,0,0,0,0,0,0,0,"Equal",2,2,12,10,12,10
"13",2,0.417505187078299,-0.641605529004828,0.230796492764413,-0.00669615083788422,-0.968429688102608,0.282855994988795,-0.428714602950246,0.423330881349829,0.387092312355494,0.994774818759069,-0.535636035439262,-0.989955427282383,0.877146321891441,-0.260875157373391,-0.552862129405848,0.482177126281576,0.182891611435674,0.0547443458476073,-0.662693409336192,0.491068869881436,0.307339135817263,-0.706252063665798,-0.470591259863428,-0.535985828481947,-0.830180803467329,0.354912337436815,-0.119656721464767,0.684061172577728,0.49596323448202,0.265427263972894,0.231256829359824,-0.139815483845286,-0.799966559076986,0.11351101754904,-0.181067528580122,-2.04878923301458,0.138088487594672,-0.529592316438614,-0.00824288838996612,-1.05834515453402,-0.0857090276559274,0.265715014939499,-0.0797795706154885,0.114576385582232,"RIN2-RIN3",2170,"DG_s11",3.031,3.64,4.797,4.812,12,12,10,10,1.157,"Left",12,12,0,0,0,0,0,0,0,0,"Equal",2,2,12,10,12,10
"14",2,-0.132003166282088,-1.19948621117107,1.51226085181247,-0.180771474359315,0.311420709322283,0.524758980830949,0.150102162991626,-0.885287367575275,0.224109831136897,-0.230842482938399,-0.835647721268765,0.446016636183829,-0.263466707244488,-0.0895447437008396,0.79037259699821,-0.0676437616754777,-0.0783271348090482,-0.795340240161757,1.0565026369353,-0.687615935503814,-1.20889949228763,-1.18434714995538,-0.712964857331126,-0.223683695353774,-0.349528453193374,-0.76778328527244,-0.522236862176331,0.000396318471052481,0.198660885926617,-0.842806559145489,-0.766408378625871,0.17241600082574,0.207946154203046,0.21612923355668,-0.37442735768752,0.479948462908332,-0.590324686684214,-0.136010082347416,-0.0757680013718804,-0.531463704511473,-0.388116668999198,-1.07877797493321,-0.178377483657817,-0.0271964976891832,"LIN3-LIN4",2170,"DG_s11",3.031,3.64,4.797,4.812,12,12,10,10,1.157,"Left",12,12,0,0,0,0,0,0,0,0,"Equal",2,2,12,10,12,10
"15",3,-0.821596961695513,-0.015944535236434,0.698271576059316,0.139269920872631,-0.884906373011009,0.00523957412234566,0.323581617074125,0.659199824742134,0.214216917793241,0.240714641203352,-0.874100282719098,1.23460888419577,0.322352223233895,0.0824195602572368,-0.0666147496494647,1.16109842908302,-0.0351857955422448,-2.10622017987654,1.09071310047936,0.194778064582419,0.496777180172671,-0.581684440856212,0.439961283171879,0.610523440181722,-0.685438298965911,-1.30562485644316,0.475128024745106,1.12899881772811,0.944303417067749,0.264279001620754,0.351502701747243,0.207716488627996,-1.24772304575166,0.800382432571014,-0.818494934128974,0.536283261353305,0.611487053386562,0.22985624134253,-0.282852082607126,1.13650792855075,0.731389561084062,0.883755721142637,0.205833485309878,-0.128467334079636,"LIN4-LIN5",2171,"DG_s11",5.812,6.422,7.89,7.89,10,10,8,8,1.468,"Left",8,8,0,0,0,0,0,0,0,0,"10-10",2,2,10,8,10,8
"16",3,0.142203448064101,-0.364315745803997,0.590066064836965,-0.367953767097069,0.544797425278141,0.541724413447472,-0.48927380227635,0.21328715313416,-0.453130698767671,-1.67729646121665,-1.23950006302509,0.129387269459742,-0.0175856856157015,-1.00380193232365,0.237615851508975,-0.736595753914209,-0.699598394205002,-0.138703865906139,-0.574592911899225,-0.0502043634784939,-0.291011474320459,-1.17461066681359,-0.653629922265067,-1.33815213906091,-0.597253918099527,-1.04160109421838,-2.44487760007735,-0.190452719447448,-0.504708340420585,-1.56387671659516,-0.758646221871544,-0.944235118692453,-1.77558268001896,-0.283633090235284,0.33305913243142,0.102144770325078,-0.208070553048817,-1.64613968314961,-0.521092557133964,-0.807398978391108,-1.01485707976292,-1.2899428093436,-0.621744411943652,-1.29592981924209,"LIN2-LIN3",2171,"DG_s11",5.812,6.422,7.89,7.89,10,10,8,8,1.468,"Left",8,8,0,0,0,0,0,0,0,0,"10-10",2,2,10,8,10,8
"17",3,0.608339946100569,-0.0912652898445416,0.0804155262685682,-0.597490182524596,-0.252687018770366,0.0996207392569981,-0.465851318152408,-0.833818120796879,-0.149378144785439,-0.563953747352179,-0.222476731897611,0.00681562553290238,-1.69399214246455,-1.2630346906304,-0.561880327999209,-1.64646764103843,-2.40989048726935,-1.97694639192474,-0.662585446976187,-0.942953196996879,0.267871882534561,-0.284888809739715,-0.189571886293801,-0.235488904526532,-0.408641049963905,0.079041781740687,-0.423811012811054,-1.09937052560571,0.10046206523629,-1.53759614455196,-0.459103265642283,-0.772684922404791,-0.00910279298033334,-0.557242968673724,0.0620584431164253,-0.816312342584417,-1.74282531287116,-1.1510150429213,0.196146789762957,-0.31837946988583,0.167462652654931,-1.0645574477117,-0.903742584570804,-1.03905631870483,"LIN1-LIN2",2171,"DG_s11",5.812,6.422,7.89,7.89,10,10,8,8,1.468,"Left",8,8,0,0,0,0,0,0,0,0,"10-10",2,2,10,8,10,8
"18",3,0.225845510702321,0.0955170845222395,0.215613416672789,-0.536976011897349,-0.41659363869453,-0.114707008659116,-1.1013405291191,1.43337327114488,-0.489115246328855,0.0168315752609098,-0.188025362786068,0.3027614570266,0.442338206146621,-1.07919558705104,-0.110437349912266,-0.280020839704319,0.783449381221489,0.713473953487182,0.40747350994126,-0.273368496643216,-0.00388931770374157,0.641539510150579,-0.00836760552843741,0.949206671170328,0.576060238367565,0.145343304437957,0.392584756431622,-0.512900907724448,0.510428223408622,0.603649815815572,-0.504020105065878,-0.302769076501757,-0.0789830875736746,1.03576812470089,-0.238384773130737,-0.43968334450936,-1.14521109963886,0.682789907804728,0.406909287284038,-1.32591648263127,0.375871275457881,0.318575870155711,-0.122774070713437,-0.712345216862752,"RIN2-RIN3",2171,"DG_s11",5.812,6.422,7.89,7.89,10,10,8,8,1.468,"Left",8,8,0,0,0,0,0,0,0,0,"10-10",2,2,10,8,10,8
"19",3,0.0253564173252707,-0.44345240376225,1.23253026607947,-0.814434279642491,0.297912714611866,-0.377286895986699,-0.142078133141327,-0.771851942658352,0.178481838417926,-0.070417587741205,-0.264054013314729,0.939289555753273,0.258126347665003,0.153570834222561,0.448595462394561,0.839152581194993,0.676024311772977,-0.330935618786079,1.06989343403598,0.546647680325936,1.19235356824885,-0.66139888837681,0.311665414076161,1.27733759174472,0.334076898228385,0.445886978914142,-1.53911637257006,-0.0444635696147326,0.632469897362578,0.659732806783653,-0.153428308294343,-1.00392975828164,0.0912457809082117,0.379050798011737,-1.4233846789502,0.681208356560566,1.01843240225769,0.173339717887848,-0.207406486762648,1.07592998930099,0.752323633359508,0.530481659981913,0.588758611282485,0.964320446264318,"LIN3-LIN4",2171,"DG_s11",5.812,6.422,7.89,7.89,10,10,8,8,1.468,"Left",8,8,0,0,0,0,0,0,0,0,"10-10",2,2,10,8,10,8
"20",3,0.451022360367534,0.263646288278972,-0.208224948265843,-0.506443700380662,0.520523226483186,-0.0280449853186502,-0.0737410659348612,-0.334790377842666,-0.215583225266241,-0.241457343293185,-0.207737939222199,0.307144978043407,-0.203632154996425,-0.965259734560188,1.01874180270818,-1.19402712906584,1.43627320811199,0.469087657747151,0.0444606157978629,0.282625102933408,-0.0688983386013726,-1.14972295372784,-0.461270176681419,0.346133462626775,0.555138669084493,0.672569717999194,0.692824915787686,-0.276040707748652,0.82755501592903,1.81830934839809,1.04056701481784,-0.869892909299758,0.987333962714999,1.00515375799115,-0.437770319811726,0.937478460808348,-1.05080879885439,0.345573654066678,0.743455214697912,-1.14548565925232,-0.826116585918372,-0.576093170709326,-0.818868709410848,0.233021339152518,"RIN1-RIN2",2171,"DG_s11",5.812,6.422,7.89,7.89,10,10,8,8,1.468,"Left",8,8,0,0,0,0,0,0,0,0,"10-10",2,2,10,8,10,8
"21",3,0.30416333145565,0.492800001799036,-0.450586993812718,-0.346376339441967,-0.125564946636308,-0.188387003894767,0.711746408637056,-0.971356428166894,-0.136840411935136,-0.369149667036919,-1.60387253061148,-0.889896321688644,-1.15081741122465,-0.0526977414929211,-0.818665018492912,-0.052270791061948,-0.00617623270673961,-0.430879298719195,-0.962967827845516,-0.587788115326203,0.129977795667943,0.200835812274677,-0.623902331466166,-0.301598311656762,-0.935512228744851,-1.3454214643311,-0.203499750461516,-0.861200055338742,-0.219245278091112,-0.0208853995824558,-0.401119415106045,-0.269793437511818,-1.39757374170627,-0.173585750270008,-1.05487166378185,-0.481577207829484,0.351532929314347,-0.919101846430581,0.166869793812554,-2.21034411701095,-0.889340035642135,-1.24953490623266,-1.39866691369539,-0.547189024372655,"RIN3-RIN4",2171,"DG_s11",5.812,6.422,7.89,7.89,10,10,8,8,1.468,"Left",8,8,0,0,0,0,0,0,0,0,"10-10",2,2,10,8,10,8
"22",4,0.181047055231456,-0.40426285256158,0.213957497275583,0.00925830005454076,0.0386827223791504,0.280327324741136,0.299837938829409,-1.08764165942806,-0.685526116282191,0.431945905908201,-0.171770955095215,-0.351680535386637,-1.60190788434329,-0.575727896272871,0.463813173847881,-1.81218087924604,-0.313704295385462,0.312822002317943,-0.283082630686624,-1.02428978188228,-1.01202948104216,0.088671618843887,0.874784496507014,-0.613292558922819,-0.0282303832492632,-0.382320650718112,0.333856642570871,-1.2333900673002,-0.0337993198119544,-0.295472541386963,-1.36753086091785,-0.341192937175836,0.551327119302443,-1.63750655753707,-0.269230701919857,0.538439011184625,-0.213229809283376,-1.68775060827624,-1.82526605375193,-0.935103156889183,-1.26241729695136,-0.809708328382484,-0.282978284675155,0.165043539498504,"RIN2-RIN3",2172,"DG_s11",8.89,9.5,10.922,10.922,10,10,28,4,1.422,"Right",28,4,24,0,24,0,-24,0,0,24,"10-10",-18,6,28,10,4,10
"23",4,0.13013926832641,0.351281223316536,-0.215061859580939,-0.266358632062007,0.133020643411007,0.252595803524726,-0.111906562361485,-0.431306996180498,-0.315887585543667,0.235364076868061,-1.26425166898318,-0.177343559728015,-0.223067917914048,-0.74543241756735,0.74676515943796,0.329464841992712,0.535432789646336,0.0640699851876916,-0.745956683606919,-0.274296936875533,-0.269377537331913,0.66102346848638,-0.0907529859837184,0.0159760827208466,-0.592464400366936,-1.31912989195487,0.455462013352028,1.26098625805016,0.0903974642403325,0.108236266369031,-0.99430567704205,-0.377747955842204,-1.27850459451908,0.292060636573929,-0.0276574577611184,0.671335190098598,0.289177813930043,0.286233284825498,0.0691889964989556,0.228771853763846,0.411790369865696,-0.00355033962950846,0.661115190568536,1.16444697040313,"RIN3-RIN4",2172,"DG_s11",8.89,9.5,10.922,10.922,10,10,28,4,1.422,"Right",28,4,24,0,24,0,-24,0,0,24,"10-10",-18,6,28,10,4,10
"24",4,0.564171565031538,0.494271649819193,-0.35289909668847,-0.70554411816226,0.40224462185815,-0.868423993341629,-0.307605559440446,0.283576694462811,-0.0102568589645178,-0.331033273764908,-1.08886362232344,0.15876116600783,0.282235798761148,-1.80307606744036,-0.722237357333998,-2.15741496547802,-1.15264711494019,-1.15731780953368,-0.610402155127773,-0.363979351819977,0.120750945909166,0.0320759944108535,-0.786808885584605,-1.17093477902487,-0.386019775232864,0.238538717142757,-1.52722428370206,-0.282287751456156,-1.05323101558068,-1.01726721561811,-1.1164578731978,0.103252272878748,0.200626436903925,-0.50129446313964,-1.38946338685619,-0.433392479669491,-1.0700119622729,-1.32074972044718,-0.599132446135747,-0.428508645779818,-1.23794333952476,0.378880289493109,-0.264776161950127,0.437572150223819,"LIN2-LIN3",2172,"DG_s11",8.89,9.5,10.922,10.922,10,10,28,4,1.422,"Right",28,4,24,0,24,0,-24,0,0,24,"10-10",-18,6,28,10,4,10
"25",4,0.0735314677320167,0.47211972879505,0.431351800227548,-0.977002996754614,-1.14149782098732,-0.655474644584938,0.267866967051855,-0.305183095114555,-0.893970442016484,0.57499314268456,-0.10220891777767,0.285223817894213,-0.226529631194189,-0.191600939714226,-0.410317340831377,0.130126672894407,0.114636757524876,-0.490772674877593,-0.0875516728843966,-0.0663181578155889,0.8130442560525,0.893674918774551,0.364883117339032,-0.308839627910539,-1.72441919988144,0.0290194512663158,-0.34380952218587,0.0520663848013969,-1.04639073497917,-1.76960632628201,0.362579575788958,0.375801533467064,0.983853272837604,-0.297989975894059,-0.967181664617502,-0.471656231386067,-0.0400816980616812,-0.994164818746567,-2.54211617368683,-0.780017798106596,0.263320391081183,-0.693514466073657,-0.469681333355575,-0.64652693150992,"LIN3-LIN4",2172,"DG_s11",8.89,9.5,10.922,10.922,10,10,28,4,1.422,"Right",28,4,24,0,24,0,-24,0,0,24,"10-10",-18,6,28,10,4,10
"26",4,0.641743424094355,0.539003224922354,-0.0820344069623289,-1.09871224205438,-1.11883872996928,-0.328815451749607,-0.778463146716417,-0.889469876450437,-1.29544245184321,0.178234084357595,-0.0152834075046311,-0.545909869872956,-1.7862727177585,-0.983049457938393,-1.14062711359374,-0.611971966655787,-0.164023043952358,-0.101926272735649,-0.239441066938083,0.432023923381068,0.3624127734394,0.549260424118696,-0.286096090478249,-0.608264796122637,-1.10759552674548,-0.50644904214957,0.218535135467061,0.399203604152838,-1.36307278972582,0.187136510595375,0.804117075066668,-0.377030646639588,0.816235269848884,0.73906341785345,-0.685746820889348,-0.810286110483815,-0.409749131083214,0.424946753006982,-0.337747374940542,-0.103032215664625,-1.09698722358434,-0.85074288213706,-0.444398266496388,-1.29411357647619,"LIN4-LIN5",2172,"DG_s11",8.89,9.5,10.922,10.922,10,10,28,4,1.422,"Right",28,4,24,0,24,0,-24,0,0,24,"10-10",-18,6,28,10,4,10
"27",4,-0.0277042388666913,0.254152830560809,-0.311898115782882,0.0854495240887649,0.421393228115879,0.305878583788834,-0.115028421189075,0.374684588166752,0.347616366443504,-0.795172164053178,-0.340408619424755,-2.00203623740853,0.883324497680057,-0.277920680398052,-0.319943298346388,-0.0224966296572693,-0.0502442476153417,0.73399049608684,-0.2248269873592,0.21021074846096,0.298214224174914,0.109553960242763,-0.343715629043402,-0.845630579411459,-0.648782734634472,0.0443644459254728,-1.10224306812661,-0.378512226172703,-1.32435984421436,-0.346365422594433,-0.507657227581439,-2.12604122242259,-0.698583954564033,0.728305432452231,-1.74706868940991,-0.850349303696038,-1.29561762204303,-0.595424037627745,-0.802523422362978,-0.192572645461231,0.256389422115743,-1.19041532399228,0.544005485117994,-0.276051100335768,"LIN1-LIN2",2172,"DG_s11",8.89,9.5,10.922,10.922,10,10,28,4,1.422,"Right",28,4,24,0,24,0,-24,0,0,24,"10-10",-18,6,28,10,4,10
"28",4,-0.084559043435096,-0.360501119822694,0.281618528864199,0.163441634393592,0.649163859971519,-0.907294145239408,0.522873336834961,0.707145254434651,0.162981434875446,-0.183261656666279,-0.797301475150039,0.000902008427827283,-0.191757459891165,-0.243716426695932,0.149556402077176,-2.02295247086721,-0.355986748270882,-0.0151789659236981,-0.159375577271667,-0.142953507848168,-0.53535083188762,1.31157970866793,0.573972960476345,-0.286334388659241,-0.486276867830192,0.456673382121086,0.102168950184817,-1.26884834735219,0.632456927280842,0.555858163893818,-0.0434672602811546,-0.0360389389405835,-0.0559605147322042,0.250552242343362,-0.483404529559144,-0.545527366162324,-0.533637594674766,-0.578482178261387,0.0673869083557799,-0.0682193726943963,0.195612278102522,-0.349140201463091,0.819957509386525,-0.272323098079154,"RIN1-RIN2",2172,"DG_s11",8.89,9.5,10.922,10.922,10,10,28,4,1.422,"Right",28,4,24,0,24,0,-24,0,0,24,"10-10",-18,6,28,10,4,10
"29",5,0.326531880948871,-0.712999470218731,-0.0136988138042975,0.400166403074156,-0.376548408598312,0.482072192213008,-0.902435590816403,-0.342059668943869,-0.604847782994952,-1.23654344289705,-1.5257815461753,-0.462989317272982,-0.45306184516745,-0.406174520070209,-1.59701690397208,0.219589349973583,0.432640899635656,-0.872411783663062,-0.638081135050622,-0.457234142298733,0.0369260823719904,1.11733494448454,-0.381400211004995,-0.327264997757746,-0.847384267890191,0.980041938194503,0.0973329681131112,-0.0733144483183761,-0.242553915174934,0.319053595030979,0.998585822622726,-0.0670793894283213,-0.535829572921132,0.518293328982708,0.334363358603529,1.25923529419303,-0.926090700546102,-0.401046303703289,-0.394942363561722,-0.216312200503951,-0.298946154231222,-2.15852453669923,0.613474256455394,-1.66071518364451,"LIN4-LIN5",2173,"DG_s11",11.922,12.531,13.968,13.968,10,10,22,6,1.437,"Left",22,6,16,0,16,0,-16,0,0,16,"10-10",-12,4,10,22,10,6
"30",5,-0.0617436427239482,0.781471180839884,-1.60505172577594,0.885324187660003,0.773326865898198,0.239951681743038,0.70562192005638,-0.111657405880806,0.651837593677109,0.205892429844977,0.235960840587865,0.598247968803546,1.1494930318485,0.24532151332297,1.46131190507407,0.28544191925944,0.750792056838492,0.693370689613977,0.41563771054552,0.206960235605807,-0.781736445064639,0.78215761100112,-0.0214763048395747,1.10469287721154,0.289801982425339,0.622286608485332,0.312762794118502,0.514193789499494,-1.01521866660452,0.403624245592994,1.19739596549843,-0.0601492228545344,-1.53394207640827,0.402371034074881,-0.0822069050658518,0.381783096308641,-1.15166734807324,0.221565663799146,0.208103049337287,0.362460384556539,0.615621936739599,0.412663362089268,-0.0915953970170622,1.32282888184443,"LIN2-LIN3",2173,"DG_s11",11.922,12.531,13.968,13.968,10,10,22,6,1.437,"Left",22,6,16,0,16,0,-16,0,0,16,"10-10",-12,4,10,22,10,6
"31",5,-0.462162451886456,0.98101596524046,0.139990906637278,-0.658844419991282,-0.630042955815739,-0.362506893749531,-0.201432254510041,0.463432323649855,0.386016763494121,0.324569567856719,0.439976562877973,-0.417270979159506,1.59817830441106,0.200044284546317,1.09044980628592,0.561186766916626,0.0312089832776401,0.381779157282282,0.615602875997071,0.69050081527658,-0.422299666359979,0.630867872502601,-1.26504979797494,0.707752709847617,-0.158889152777116,0.651402241326626,0.580966196830629,0.536218378744203,0.923428716538242,0.81144081508757,0.786669039893572,1.05656327312056,0.45748990385164,-0.733980445231681,0.874196660118974,0.711099771014561,0.548649478052041,0.49828510485341,1.29009051314535,-1.21620861209576,0.685790122865116,0.126245050709405,0.975493781319543,0.814123837011367,"RIN1-RIN2",2173,"DG_s11",11.922,12.531,13.968,13.968,10,10,22,6,1.437,"Left",22,6,16,0,16,0,-16,0,0,16,"10-10",-12,4,10,22,10,6
"32",5,-0.221360525373496,-0.0377538832266158,0.612104807496114,-0.352990398896002,0.81420921626067,0.573296144527218,1.29805055358323,0.237359319442041,1.52184868316041,-0.359375312189321,0.46938444965549,0.430093939206732,1.12910968121034,-0.293348630287836,-0.00713885389685709,0.360533345846189,0.127123265833619,0.293559077706385,1.24185218649974,1.69008985879314,0.802414922857594,1.73931983729383,1.06310073423023,-0.0682857507551948,0.0825145325556114,-0.722556959539362,1.08461469732141,0.289389822695217,1.01177454113779,1.29245477606859,0.735496240527771,2.15318630579145,1.07101288622411,0.123664205642789,1.33448364545131,1.17054003365099,1.11723923231501,1.63527260829843,1.10144857982807,0.878756088512489,0.326519371664854,0.545366905991679,0.50568977504557,1.18362335511402,"RIN2-RIN3",2173,"DG_s11",11.922,12.531,13.968,13.968,10,10,22,6,1.437,"Left",22,6,16,0,16,0,-16,0,0,16,"10-10",-12,4,10,22,10,6
"33",5,0.538702302852851,-0.817070110480646,-0.289561536711204,0.567929344338999,-0.739926439749855,-0.481617659792783,-0.37928011423003,-1.45470793869851,0.424276107542038,-1.22549496645651,-1.0635944865123,0.351787141187845,-0.231356880110547,0.61621075332129,-0.192779658704909,0.76088983977207,0.426325836897822,-1.09833743495618,-0.787129714108032,0.678860029542483,0.072668068098003,1.38562662759204,-0.797536345377751,-0.325981923074814,0.377291036749289,-1.16500963657297,0.245953176128325,-0.31777545896066,0.764996030031679,-0.432979933921863,0.36576236472625,-0.353188287073253,-0.324484820756993,0.385688330615495,0.0800252523200253,1.1399500494039,0.00674079162823649,-0.015886925508183,-0.595382571071754,0.232550888589416,-0.02547629935055,-0.557092359847423,0.659875121419446,-1.87395203164987,"LIN3-LIN4",2173,"DG_s11",11.922,12.531,13.968,13.968,10,10,22,6,1.437,"Left",22,6,16,0,16,0,-16,0,0,16,"10-10",-12,4,10,22,10,6
"34",5,-0.0662690159023582,0.658569408511698,-1.11575120347495,0.523450810865608,0.386342097413868,0.094159911687532,-0.93423321119229,-0.84361883812474,0.0559966450754397,-0.939134518494915,0.246279797611115,-0.591230405362432,-0.0587169816152326,0.411021037154514,-0.0918668017421318,-1.49765068516162,0.0675078983151334,-0.231889739856272,-0.0764830663135978,-0.0545763438788414,-1.05542281651567,-1.09172901216941,-0.242902425214204,0.405615406850174,-0.587618298766373,-2.47545644594896,0.511368618370106,0.128725892772735,-0.296368820330468,-0.588764260438406,0.15806003619819,-1.75949869551527,-1.0028554889646,-0.0635401924438326,-0.819394093069555,0.171314000946867,-1.07653602357514,-0.478671356858329,-2.11326322535168,-0.798776443105486,0.58688902013717,-0.904416420103401,-0.563023460921173,1.44071858238759,"LIN1-LIN2",2173,"DG_s11",11.922,12.531,13.968,13.968,10,10,22,6,1.437,"Left",22,6,16,0,16,0,-16,0,0,16,"10-10",-12,4,10,22,10,6
"35",5,-0.452667718921512,-0.795719825995346,0.434754800914681,0.813632744002176,0.128746982565169,0.91561639436811,0.908655809420486,-0.134150680723711,-0.538746410162731,0.787607845490693,0.419796438550234,0.520364845785958,0.797544299597125,-0.975893154251011,0.0715298141723484,1.01905599109744,-0.164123088250323,0.45483408691843,0.272422111228331,0.67684069794623,0.572099750892834,0.530033248502644,0.484353149508071,-0.36511400358271,0.696990561123614,-0.51307473944132,0.287065536743388,0.209061815912968,0.197907999135768,-0.701908076225701,-1.33201352366553,-0.795207924269297,0.280265403245495,-0.0512985524610745,0.727497719889829,0.146499126601672,0.525649069929704,0.674096943162714,-0.842495890793077,0.290397935473456,0.382068277707883,-0.0985697443786715,1.42138880972715,0.250766394080643,"RIN3-RIN4",2173,"DG_s11",11.922,12.531,13.968,13.968,10,10,22,6,1.437,"Left",22,6,16,0,16,0,-16,0,0,16,"10-10",-12,4,10,22,10,6
"36",6,0.380927369831078,0.247770799992729,0.483479402028419,-1.11217757185223,-0.104462762216758,-1.07211017519657,0.500953747828599,0.30357040906627,-0.709882746143051,-1.64673220503824,0.465141981753831,-0.0990094426354444,0.206574936612158,0.287259503425156,-0.289737606442638,0.0377317262932007,-0.696819957651427,-1.28796707849271,0.626435595902088,0.398618863627473,-1.03995333463942,-0.0864634375026023,-0.522208812610504,0.901818553998631,0.873396064500303,0.686350137781642,0.458676043837529,-0.0247280646874541,-0.18009668904581,0.116928123000714,-0.181062575760934,-0.37311240249921,-0.891953887066485,0.948714402249133,-0.00455601332625388,-0.0804713877016141,0.569360145516785,-0.828045997184845,-0.663708374884204,0.3489195084695,-0.492600105093002,0.252405828954278,-1.71342882686996,-0.942951658437325,"RIN1-RIN2",2174,"DG_s11",14.984,15.593,16.828,16.843,10,10,30,15,1.235,"Right",30,15,15,0,15,0,-15,0,0,15,"10-10",-20,-5,30,10,15,10
"37",6,1.01683513727838,-0.316584175836709,-0.65927611933907,-0.0409748421025995,-0.183344563756384,0.362973338182451,-0.647401047882012,-0.553455410391944,-1.28527844615886,-0.00177230027768838,-0.0854749246158879,-1.16362015464215,-0.503834617078803,0.191936007316902,0.0590861185705895,-0.0542917263737968,-0.530647404162662,-1.13778753445656,-1.49822128658472,0.486832100833797,-0.651090088033792,-0.779894833743688,-1.28255624215473,-0.208232960185,-0.452719591699658,-0.0255624241517678,-0.25906709666008,1.05315884066385,0.123991924641921,-0.190588496205291,-0.623029428444562,0.341329973566625,-0.0746666641556462,0.366083515686118,0.798029277424009,0.11554371991452,-1.99781678736831,-1.27711363584401,-1.44395521344975,-1.37690825143969,0.13018204025432,0.351990969894972,-1.00868942234856,1.27731429776744,"LIN2-LIN3",2174,"DG_s11",14.984,15.593,16.828,16.843,10,10,30,15,1.235,"Right",30,15,15,0,15,0,-15,0,0,15,"10-10",-20,-5,30,10,15,10
"38",6,1.10301022686193,-0.0757819947485632,-0.347058748037169,-0.680169484076203,-0.152661572807786,0.0336246981648476,0.355548617050279,-0.76894496349421,0.121870064827456,-0.188769084764365,0.147427864223732,-1.13051723409726,0.548348631952403,0.747680515525368,0.721280049429922,0.241498425956552,-0.45304070338356,0.506020668822238,-0.381910472851574,-0.0600861838016848,-0.0392299855750562,-1.21169385730221,-1.32099526475991,-0.960128176855658,0.423754838292648,-0.436735622011981,-0.219972808404499,1.09877551051386,0.999256691667594,0.323935561615334,-0.227919094060722,-1.22112858855299,0.390143959328149,-0.132876329687861,0.701011999006621,-2.19940349423547,-0.0916318515459316,0.173382948738943,0.344222953693881,-1.00744950668864,0.812734287447755,-1.23784402128022,-0.477606695082466,1.28522653881987,"LIN1-LIN2",2174,"DG_s11",14.984,15.593,16.828,16.843,10,10,30,15,1.235,"Right",30,15,15,0,15,0,-15,0,0,15,"10-10",-20,-5,30,10,15,10
"39",6,0.297325197102137,-0.285834058496205,0.14418913424034,-0.155680272846271,0.018468741970592,0.00686885189640796,-0.411835378736571,-0.368262332306176,0.816551236039487,0.53571892683945,-1.92969291819511,1.12533880609664,0.345682928832398,-0.303482844119998,-0.469763153201368,0.369422626214389,-0.485573581181247,-0.135099293112947,-0.273748984311529,-0.583893894030895,-0.298198716253588,-0.681531079168163,1.0530147443843,-0.699756468686977,-0.51246947731546,-0.918144485721754,-1.24621325299085,-0.779609363676941,0.241036169484556,0.349334188624776,0.307575979790899,0.985531527667981,-1.38110558681891,-1.28599755994397,0.119693017079059,-0.259234306240265,-0.179464570705768,-1.26113853800471,-1.92757854931514,0.240772688014562,0.458499513544592,0.301239704399742,-0.0944903015611465,-0.52466990080955,"RIN3-RIN4",2174,"DG_s11",14.984,15.593,16.828,16.843,10,10,30,15,1.235,"Right",30,15,15,0,15,0,-15,0,0,15,"10-10",-20,-5,30,10,15,10
"40",6,1.03764886463159,0.495182467794903,-0.363334203317036,-1.16949712910945,0.865674679170225,-1.00401451057344,0.237053755151448,-0.480614347335967,-0.22965610783888,-0.0700091288697751,0.0333736915345368,0.818771469844927,1.20344494418479,-0.060963424036522,-0.0169230196270234,0.488289822738038,-0.120664229652471,-0.154738164618287,-0.690770703123365,1.32683750538575,-0.0876707460258435,0.180703040458647,0.225395951574627,1.06449283199071,-0.0345484858713734,-1.52219287380746,1.57766145895065,-0.0406417597730155,-0.0965343145158175,0.0404154466042659,0.82323450338997,-0.133284085616148,0.314579039090428,0.207966111903816,0.0647875627137129,0.309743714805154,-0.0102651267328588,-0.578101354237556,0.718103345748691,0.226016183561266,0.0102163229480414,0.902059843932175,-0.557394409374687,0.128123306384102,"RIN2-RIN3",2174,"DG_s11",14.984,15.593,16.828,16.843,10,10,30,15,1.235,"Right",30,15,15,0,15,0,-15,0,0,15,"10-10",-20,-5,30,10,15,10
"41",6,-0.92427925412956,0.332382424186429,0.362347212888365,0.229549617054766,-0.0750746455948734,-0.0474726404717485,0.605802442373258,-2.01482081521989,0.138056333299507,0.244508135381637,-0.376150868907297,0.351912576758877,-0.0996395291166721,0.161065795273026,1.10902965780363,-0.867134713667293,0.226038280521373,-0.334704535442115,0.910638513586022,0.925148727278278,0.364655131447796,-0.14975521971958,0.168251958223798,0.741831389369048,-0.476905631643469,0.308394939431908,0.232145590822267,-1.24865530301943,-0.860552649471653,0.69134086582527,0.834392072231388,0.242164500640867,0.897194843903639,-0.353318283805077,-1.03871230729827,0.554305183968047,0.769523676658246,0.188138329431146,0.0461483550651511,1.05191290508889,-0.972407881637594,1.65692587354027,1.01027579996061,0.61709288488895,"LIN3-LIN4",2174,"DG_s11",14.984,15.593,16.828,16.843,10,10,30,15,1.235,"Right",30,15,15,0,15,0,-15,0,0,15,"10-10",-20,-5,30,10,15,10
"42",6,-0.503690315285368,-0.57463065536934,0.661980160427531,0.416340810227177,0.0194121714156257,-1.1625712948014,0.0726059072431973,-1.43094189303748,-0.2105581666242,-0.100154741214672,0.288115584666385,-0.372270507415635,-1.00109343276567,-0.0098717851335941,1.8326467307172,-0.639769479988689,0.194705615608595,0.0624144033387459,1.17905223293407,2.00481945326111,0.282493312020759,-1.47630297378873,-0.305514686257756,0.480516295342402,-0.978916905840036,-0.306273915676403,0.5382124933326,-0.907647192851141,-0.442399167337518,0.248079239001521,0.218018019993892,-0.0213012922974816,-0.0868780026977998,-0.995063378086116,0.381733333521942,0.197979316950025,1.2483918634456,0.514178632217904,-0.544917203237421,1.11369648987528,-0.730570889155737,0.731470438561873,0.192113522915641,-0.259443236513499,"LIN4-LIN5",2174,"DG_s11",14.984,15.593,16.828,16.843,10,10,30,15,1.235,"Right",30,15,15,0,15,0,-15,0,0,15,"10-10",-20,-5,30,10,15,10
"43",7,-0.580721174761065,0.0898701841489826,-0.355924685614402,0.846775676226486,0.939991691369597,0.315209126026629,0.394275795361979,-0.630943376194449,0.0931746614140812,-0.645849275039952,0.72692535194459,-0.96353308350976,-0.357538790757492,0.536998981969348,0.716543966150455,-0.103099683028129,0.37250844447439,0.515476212061904,0.746203391586212,-0.649364606319008,0.195144637583769,0.0788872801266747,0.504604176292417,-0.626976788096152,0.124354116188435,0.906828358338644,-0.99187209926186,-0.294535308637353,-1.48597956698827,0.305758564582021,0.288486606333127,-0.940045847917002,-0.180356231491457,0.26648237138767,-0.345066413714412,-0.507208826087338,0.712787227964125,-0.15264083164491,0.102761707067387,0.0648680439829441,0.116649917835447,-0.653685707905222,-0.324408307049096,-0.974066325956304,"LIN4-LIN5",2175,"DG_s11",17.843,18.453,19.593,19.593,10,10,28,4,1.14,"Right",28,4,24,0,24,0,-24,0,0,24,"10-10",-18,6,28,10,4,10
"44",7,-0.284699405349548,0.4417473152258,-0.611436076464431,0.45438816658818,-1.23284304329888,0.790490422058467,-0.0175897534091924,-0.0471242669508327,0.923837264940774,-0.628942876698172,0.885524995033872,0.27830571438145,0.225456866624017,-0.627153967455448,-1.43479323627355,-0.542901830070177,1.01016366466081,0.445061573735714,-0.992161758790257,-0.473595364267166,1.15909300325779,-0.470464818039388,0.402517674955731,-0.00993497140942834,0.228879692238303,0.517553575861559,0.368372982621982,0.557848911770129,0.383626808743887,-0.201927119065685,0.552144503420876,-1.34742664699531,0.190245560196677,-0.138258506775359,0.895002219259678,0.205129754646251,-0.85452082033673,0.01533681921316,-0.964404799409799,-0.65016426857167,-0.502363648504154,0.786387852201689,0.0823506947792945,-0.127701572806955,"RIN2-RIN3",2175,"DG_s11",17.843,18.453,19.593,19.593,10,10,28,4,1.14,"Right",28,4,24,0,24,0,-24,0,0,24,"10-10",-18,6,28,10,4,10
"45",7,-0.309564184549985,-0.0232016261977592,-0.252923436968694,0.58568924771644,0.818623287750381,0.0664178341337021,0.61304454489183,0.920315390363257,0.484661525354238,0.805501394620161,1.35066921664809,0.690418797532386,-0.355167039189213,1.31745613507694,1.63157655273617,0.577909143580501,0.427725855987162,0.506433964453215,1.60076100801668,0.578766874148164,1.46197145337039,0.272173434444774,0.8152587882858,-0.385404581138769,1.58136884995807,1.20756215296083,0.43253721762417,0.348828876196416,0.534001703516677,1.07092836003085,0.0015346173618811,0.0902274520106374,-0.0597017909095121,0.833367315387557,1.23743432495317,-0.0513213927915945,1.29308738544314,-0.213631612924132,0.546223148327122,1.16884886842398,-0.594796299323234,0.917800417486698,-0.144252357598673,-0.690740343343379,"LIN3-LIN4",2175,"DG_s11",17.843,18.453,19.593,19.593,10,10,28,4,1.14,"Right",28,4,24,0,24,0,-24,0,0,24,"10-10",-18,6,28,10,4,10
"46",7,-0.159995799833889,0.142140632849969,0.0356782808509173,-0.0178231138669975,0.425660477963538,-0.426955373902079,-1.06350015471051,1.46967594318022,0.583187713090054,0.851482677023975,0.145431526237758,0.750935691950162,0.495118649357996,0.795711300495567,0.365080632631751,0.909044917794511,0.562537290601385,0.608609416956531,0.108965059484781,0.767904667886946,-0.785597612216851,0.481519384979281,0.537540954341993,0.4340558020272,0.0698824665521081,0.112503512422836,0.687926050863247,0.848758028180199,-0.323175094669753,0.0969555284964403,0.260626438579581,1.01922304032645,1.12695512039725,0.687310610996655,0.794836309074525,1.40548537800041,0.224878700394934,-0.633951564865981,0.952042834347459,-0.0915836745322807,-0.139439421711978,-0.646188422839189,1.41339695952622,0.461531132186891,"RIN3-RIN4",2175,"DG_s11",17.843,18.453,19.593,19.593,10,10,28,4,1.14,"Right",28,4,24,0,24,0,-24,0,0,24,"10-10",-18,6,28,10,4,10
"47",7,0.616503333915741,-1.1969712258209,0.13813815369178,0.442329738213375,0.240686636886241,-1.11976566183654,-1.14325835956614,-0.539526536664262,-0.520251164321133,-0.444963944913142,-0.412998615862487,-0.0866793499937566,0.181294594235252,0.61517387215186,-1.09124204340363,0.486053884455674,-0.0364715281901224,-0.865048065283678,-1.00192529722439,-0.882520772968524,0.674108392201129,-1.06873832859245,-0.690597464060502,-0.0740739051484645,0.0268269046716991,-0.156074896093277,1.14269177778502,0.00571017346155767,0.490426084274075,-0.871374953972077,-1.03743878634947,0.587774897963746,-0.294521933783567,0.0607713305858963,0.00751167434124422,0.37440638554495,0.486372508004649,-1.06437282414326,-0.15486433379064,-0.500036688777519,0.20869648880756,-1.46749370500695,0.879281684857932,-0.263380421647276,"LIN1-LIN2",2175,"DG_s11",17.843,18.453,19.593,19.593,10,10,28,4,1.14,"Right",28,4,24,0,24,0,-24,0,0,24,"10-10",-18,6,28,10,4,10
"48",7,-0.7909574327081,0.419683401947858,0.145426698559012,0.225847332201228,0.0485953509890455,0.437173088126547,-0.256741538587493,0.364818494259534,1.49570272185763,-0.0467426804773297,-0.257994330941488,-0.660094638736848,-0.627260332460839,-1.00605269122333,-0.350017504201767,-0.855506701391201,1.15625308420078,0.684188797233155,-0.906390539365999,-1.26163838301377,0.443021711782388,0.0658184111979025,-0.00639874138383378,-1.69590694858623,-0.688462537641817,0.902397170374478,0.463864629018659,0.540978027048125,0.0696436831187972,-1.13194573567304,-0.585410978771808,0.0895231747511325,-0.600021359974818,0.98070515345696,-0.587184552987825,-0.210487851698349,-0.198025234664962,0.116004087646588,0.222225039479876,-1.64029940354348,-1.62487060620428,0.700284252156253,0.614616269044819,-0.829955697607892,"RIN1-RIN2",2175,"DG_s11",17.843,18.453,19.593,19.593,10,10,28,4,1.14,"Right",28,4,24,0,24,0,-24,0,0,24,"10-10",-18,6,28,10,4,10
"49",7,0.152350645730935,-0.699561293942585,0.930680046011774,-0.383469397800125,0.495243947265492,-0.189837475003374,-0.148809309856803,-0.422771877406163,0.477491080297677,0.399022671328981,0.575254992335727,0.794677547155447,-0.385180453120125,0.349733884028971,0.13892174738521,-0.079822969856516,-0.149985665251746,-0.295122004241184,-0.055076832194096,-0.256545744848399,0.0314363535169613,0.473292480658674,-0.28423755838894,-0.0460189601239476,-0.993944330111585,0.214671071479159,0.56958709594968,-0.17842954241662,-0.283609544462276,-1.24934369537839,0.991475008735598,0.0547251880570983,0.734474731031064,0.444914216187684,0.305568808627604,-0.00726416443688604,0.925540533964416,0.534937501261247,0.480889509835691,-0.616194639656946,0.129991469209378,0.507719822345943,1.55648193400996,0.09851296652525,"LIN2-LIN3",2175,"DG_s11",17.843,18.453,19.593,19.593,10,10,28,4,1.14,"Right",28,4,24,0,24,0,-24,0,0,24,"10-10",-18,6,28,10,4,10
"50",8,-0.478347591962009,0.813176166388289,-0.681695991714273,0.346867417287993,0.683124857413143,-0.669794199505858,-0.0565430491641119,0.242320919479146,-0.646069106093125,0.139704983587797,-0.31931373509625,0.153354025125799,0.363659918972526,-0.517516836202026,-0.618936736213239,-1.24291772916707,0.111544381420614,0.282088042497088,1.1131541293019,-0.167255835942123,-1.35556976006821,-0.412686767991528,-0.9655307845736,-0.6163073181001,-0.857892204749207,-0.736185111469052,0.0821052581384225,0.710305682084908,-0.48365163020014,-0.565536617705857,0.432945685565433,-0.534158483595765,-0.846120030850591,0.019999989127911,-0.314447545445077,0.137802327008877,-0.210277057978352,0.125293909250798,0.54850385552213,-0.719609301510873,-0.599221230000901,-0.0130552770715338,0.954162379526271,-0.592681405030597,"RIN2-RIN3",2176,"DG_s11",20.593,21.203,22.312,22.312,10,10,4,4,1.109,"Left",4,4,0,0,0,0,0,0,0,0,"10-10",6,6,10,4,10,4
"51",8,1.32395623541314,0.54622762375369,-1.84859687940513,-0.0215869797617056,-0.954344106030949,-0.0182291435283366,-0.468734008040857,0.0254968543657457,1.13076596358862,-1.15747255548205,0.126018241628825,0.143533391512809,0.15644004595064,1.36412794750491,0.27992015492219,1.37483974538925,0.813409545343828,0.254952445061082,0.266169833898676,0.162800359217163,-0.847123689664266,-1.04123460517095,0.715859213960681,0.000661618941217412,0.679933744821535,-0.769388709693851,-1.73154707625243,-0.0743802124251598,0.664660000915929,0.0733222200148873,-0.176236077123642,0.186206532638884,0.9168353849108,0.210915435866064,0.576724532806767,-0.439805918818789,-0.856191986415715,-0.464744408357789,0.0326021848129523,0.0422552455014422,-0.470840208065911,-0.263517156252693,-0.71795332836464,-0.202310292789533,"LIN4-LIN5",2176,"DG_s11",20.593,21.203,22.312,22.312,10,10,4,4,1.109,"Left",4,4,0,0,0,0,0,0,0,0,"10-10",6,6,10,4,10,4
"52",8,0.420755763124568,0.52386000940206,-0.321266402844098,-0.62334936968253,0.156093398463484,0.125890059107728,0.230152501529338,0.269240378940085,0.0988225010638184,0.417208679677143,1.32609508431825,-0.343163001442063,0.0959017589426461,-0.323105965264111,-0.244498068792751,0.229060469181415,0.514526291085736,-0.0171579359968372,0.329487111163987,0.596725033734967,-0.664416811084691,1.3879007954026,0.457188316649553,1.40525370940028,0.718324581168559,0.554781802969719,0.192049966637163,0.0816412677234892,0.951693617963685,1.51738701251454,-1.11990919959415,-0.267650194238848,1.16351530214638,-0.624803804049228,-1.34261295572017,0.720421960214576,0.81052145043186,0.56049955939372,-0.505914865310357,0.694395274466656,0.810612620601044,0.777147941615354,0.265284826598555,0.046582344358332,"RIN3-RIN4",2176,"DG_s11",20.593,21.203,22.312,22.312,10,10,4,4,1.109,"Left",4,4,0,0,0,0,0,0,0,0,"10-10",6,6,10,4,10,4
"53",8,1.0650139046452,-0.341946571776171,-0.0144526522797186,-0.708614680589306,-1.15368023136427,0.356844739395209,-0.191197724862237,-0.137910524565998,-0.425268322578988,0.321925076804447,-0.465263477594027,0.313890872588924,0.122803877191833,0.334774559877186,-0.726251193659777,1.91160509662319,0.987135382738788,1.07914894135683,0.349179292402803,0.936042415268385,0.839563806782242,0.468857856779761,0.0615687503438056,-0.58038936753372,1.2444342263801,-0.71980186997987,-0.176543630038731,0.792574329611099,-0.694499687117652,0.528128009361794,-0.208476371172229,-0.177944881014047,0.995924698684878,0.439421034804354,0.590604088806862,-1.6306054516927,0.878141663028495,0.433507141029255,0.828045552551641,0.402689692478183,0.267845603903173,-0.0828707952706922,-1.44608119385254,0.110969877226549,"LIN3-LIN4",2176,"DG_s11",20.593,21.203,22.312,22.312,10,10,4,4,1.109,"Left",4,4,0,0,0,0,0,0,0,0,"10-10",6,6,10,4,10,4
"54",8,0.245481825435744,0.587533567050734,-0.245124240967507,-0.58789115151897,-0.300911039843128,-0.629033499442348,-0.52521295476613,-0.453020444776754,-0.380930024581566,-0.294988320415218,0.537435077253607,0.125135010268403,0.956674395558309,-0.473220446401902,-0.270095098819406,-0.673455320333583,-1.06942102525097,0.168575289506634,0.132802613783512,-1.30846821308718,-1.02966209302325,0.591506617889109,-0.111453754739495,0.614867139222122,-1.48684703806684,-0.409924213122981,-0.220236399404886,1.28609111053489,-0.791155721605752,-0.489404456872389,-0.582846495711515,0.0499032613436858,-0.241451487741507,0.455907202157337,-0.817274735256602,-0.364272317427848,-1.1741314478044,-0.177582685978546,0.666308531407654,0.152158724785827,-0.163539125756806,-0.132688266276348,0.514103868267173,0.677072125565532,"RIN1-RIN2",2176,"DG_s11",20.593,21.203,22.312,22.312,10,10,4,4,1.109,"Left",4,4,0,0,0,0,0,0,0,0,"10-10",6,6,10,4,10,4
"55",8,0.0633219300998111,0.112306448342242,-0.448881547937625,0.273253169495573,1.06347419874734,0.49469128481628,-0.25686104687329,-1.88330952124298,0.109964704246369,0.928438998121159,0.169937981638164,0.462829897170699,0.191304876129125,0.401831260660862,0.0820993805375339,0.028946594993303,0.227834569026332,0.282424379185431,0.437346052861904,0.564890161083001,-1.12520121388108,0.120592363997577,-1.27085089223111,-0.105501327500223,-0.267692638547171,0.0861092249781352,0.206861006188265,-1.4289224468016,-0.4012459095788,-0.395602586576179,0.693729539128007,-0.612187852588303,0.32508624288397,-0.075260765055281,-0.140618484501028,-0.28636261843985,0.560737084808094,-0.647132521381136,0.0704094081648488,-0.343017365390754,0.156501155551651,-0.779545442963091,-0.871140637714414,0.264796669814384,"LIN1-LIN2",2176,"DG_s11",20.593,21.203,22.312,22.312,10,10,4,4,1.109,"Left",4,4,0,0,0,0,0,0,0,0,"10-10",6,6,10,4,10,4
"56",8,0.129129201667216,0.557235570211701,-0.545448092778714,-0.140916679100202,0.456514559832039,-0.399248304132196,-0.540261979906385,-1.54949223572281,0.143892154573426,0.577009037341499,-0.372516402110708,-0.555255245337467,-0.144124551825406,-0.0676058950888541,-1.26023399847824,-0.139369888381903,0.263195248828543,-0.191721254735661,-0.578133929327799,-0.195265661945698,-0.586766837595483,-0.252560012697867,-0.190823084696612,-1.12643288893225,-0.926683097269522,-1.17534748164232,0.188876190829262,-1.22988204411689,-1.17221359943941,0.139465944224673,0.0634980783156531,-1.11020466170753,-0.555093694448586,0.080196414663626,-0.908681113901433,-1.3677639747042,-0.808150787437408,-0.596905598038657,-1.01213270203275,-1.34569048739388,0.416790900673745,-1.02886825641002,-1.91472150888608,-0.891811498736234,"LIN2-LIN3",2176,"DG_s11",20.593,21.203,22.312,22.312,10,10,4,4,1.109,"Left",4,4,0,0,0,0,0,0,0,0,"10-10",6,6,10,4,10,4
"57",9,0.00322960250733662,-0.675036822221897,0.144891206176556,0.526916013538004,0.179967452542463,-0.0621542911063226,0.556891810642655,0.245420018391239,-0.620229908960435,0.447631272314147,-0.32858632126579,0.94979686758133,-0.348194792654167,0.412152727686733,-0.27119398929612,1.07429678520419,0.248866528597183,1.27317216214327,0.754900652041896,0.405662613484902,0.796612124978141,0.742072301942003,-0.353193547397583,0.819434225023769,0.00948882765534442,-0.800336708566117,-1.53611360856384,-0.516533686150905,0.63054472021742,-0.811952905562172,0.0144482307107374,-0.724088358996005,1.1788516381609,-0.156316281868917,-0.531752948148044,0.51404515319313,-0.0992902535116169,0.30734602171466,-0.194163408979749,0.00840380338624325,0.429830192981609,-0.786262457332121,1.27543279514105,1.68956326579227,"LIN3-LIN4",2177,"DG_s11",23.328,23.937,25.031,25.047,10,10,13,7,1.094,"Right",13,7,6,0,6,0,-6,0,0,6,"10-10",-3,3,13,10,7,10
"58",9,0.333103548568921,0.4884210896721,-0.179426192268425,-0.642098445972597,0.940406213415157,1.09835867626777,0.710014085059891,1.10025792618299,1.56732070951326,1.55090326129713,1.24896608993069,0.96392808154361,1.21220613730803,0.696643374898212,0.937433338687551,1.47992824084588,1.68847117478353,0.547687511948058,1.0363667370816,0.701770899288497,0.644723317719852,0.240077195894935,0.519987555639934,1.21832704394689,-1.24794189462196,-0.0453365843755158,-0.483226509554133,0.746965553966487,1.06203964695076,0.472467770637754,0.947694721438104,-0.385665845625637,0.079183777865357,0.83672288400916,0.240194647619742,0.747801378749129,1.47195389013485,0.442047827513446,0.758794714568447,0.467036203350688,0.085011343910498,0.521439285873121,1.12753112856861,1.6319087876467,"LIN2-LIN3",2177,"DG_s11",23.328,23.937,25.031,25.047,10,10,13,7,1.094,"Right",13,7,6,0,6,0,-6,0,0,6,"10-10",-3,3,13,10,7,10
"59",9,-1.35487706277297,2.04796306941564,-0.911829243515765,0.218743236873097,0.163645254826888,-0.544935945052573,-0.397953135631354,0.577344913514006,0.486010237350667,0.0476294621500948,-0.693266461016184,0.287250835966334,1.03000975261743,1.00876491722755,-0.579561775227177,1.05967145682419,0.041018065074256,1.22322746186216,0.362295720321336,-0.210087704556051,0.631565456107745,-0.551713875894303,0.699643358585831,0.805250485050302,0.430024645219298,-0.308780438003892,-0.0408622615628862,0.726436516652771,0.568750181993205,0.85579632437586,-0.322016151667643,0.595843272734275,0.813170328729651,-0.315085736581516,-0.286305317123084,0.973485113766682,-0.461714403996416,1.98325073767325,0.463632940015544,-0.177711048243053,0.334222589075427,-0.414054131230522,-0.561070923818566,-0.964613962489985,"RIN1-RIN2",2177,"DG_s11",23.328,23.937,25.031,25.047,10,10,13,7,1.094,"Right",13,7,6,0,6,0,-6,0,0,6,"10-10",-3,3,13,10,7,10
"60",9,-0.16499550254002,-0.0108569139532628,0.448232393396681,-0.272379976903398,-0.925226972639173,0.0014724538093942,-1.26475953334524,-0.689827633963857,0.126909549160616,-0.391976283888298,-1.12755841183175,-0.301736198836469,-0.337647498462893,-0.110959464240281,-1.66909405908311,-1.30424465686494,-0.742534390226621,0.0790702601996562,-0.516881737212461,-1.80655622937555,-0.38293678182916,-0.566579029744966,-0.563825877037273,0.0677337824298792,-1.88810409696946,-1.66715345612635,-1.76936797569229,-2.23861399725837,-0.789302171928525,-0.947688720403989,-1.19611922455199,-0.967696867290519,-1.84804670173115,-1.31581470414552,-1.18928341057591,-0.831962783852357,0.345186664146061,-0.758249477006963,-0.527199274656077,-0.980336617416916,-1.33909045044617,0.124884744621709,-0.0762083016512984,-1.07788533760957,"LIN1-LIN2",2177,"DG_s11",23.328,23.937,25.031,25.047,10,10,13,7,1.094,"Right",13,7,6,0,6,0,-6,0,0,6,"10-10",-3,3,13,10,7,10
"61",9,-0.311034910445192,-0.1665801662474,0.0349284790798987,0.442686597612694,0.118836705962368,-0.0401320889694774,-0.538792840415048,-0.543179719941386,-0.300306737949345,-0.441067943166562,0.508676833081337,0.732162226114573,1.31498297623753,1.12343872692306,-0.965961042604552,0.151914961596659,-0.800915145389341,0.52214582537175,0.444541943084463,-0.413367387088077,0.566021954621267,0.549275118751352,0.717291803278358,0.471726307883804,-0.0544292331566711,0.0689634172369029,0.0700422629767132,-0.468787377488225,0.416661425269363,0.612842882569848,0.306379018179249,0.563556537675997,0.398194034995146,1.0011211236728,-0.464407640186374,0.906706530245333,-0.971394389727608,1.15496314356243,0.641512593667142,0.112699215935283,-0.27823447996241,-0.345492241388734,-0.296604834062713,-0.0175656045419093,"RIN2-RIN3",2177,"DG_s11",23.328,23.937,25.031,25.047,10,10,13,7,1.094,"Right",13,7,6,0,6,0,-6,0,0,6,"10-10",-3,3,13,10,7,10
"62",9,-0.240265775360697,-0.671440015517417,0.289216142927731,0.622489647950385,0.96820008344093,0.0480673690575317,0.522940573143224,0.927479969544458,-0.107502262147037,0.703602954899484,1.44195717239859,2.01925149170347,1.60279525849321,0.798667356815558,0.708418528107988,1.13153376744641,1.1427979666472,1.81568846538146,1.74397722896139,1.74629409541515,1.78031928950578,1.79821678602839,0.879175910869488,0.995752250115703,0.774229298778041,0.192246199569379,-0.624010905756437,0.237645963799375,0.549194791968131,-1.26452555800327,-0.116471812919725,-0.12887953575046,-0.759813109035826,0.299681354718828,-0.253025158939206,0.707120607002816,0.921247731515789,0.953231811592767,0.527210877976292,-0.943562289329988,1.08295283248834,0.541958215837881,0.633112534764262,2.67301216802724,"LIN4-LIN5",2177,"DG_s11",23.328,23.937,25.031,25.047,10,10,13,7,1.094,"Right",13,7,6,0,6,0,-6,0,0,6,"10-10",-3,3,13,10,7,10
"63",9,-1.18928891319025,0.771520356362843,0.664909651936143,-0.247141095108739,-0.253302517504949,0.0794582789941622,-0.704735196821746,0.753365072498007,0.849299640045862,0.405238677329376,0.327194299769565,-0.184074845564892,-1.20887447219666,0.116907639283561,-0.148305114766261,-0.641892978512562,-0.584692068895625,0.837245648774524,0.765999132336787,0.21551185812746,0.332453153014335,-0.961143840004115,-0.349187687003403,0.731005281262497,0.0402456222031917,0.433547187780186,1.33023838365187,0.0405356080281392,0.496920235358151,0.55542827111793,0.394306902623133,0.365977695809799,0.119054330626725,0.406256033967056,-0.166307348102091,0.128333282549777,0.0835401066384387,0.0829535963576962,-0.61027078222293,-0.684376378964073,1.03510676868348,0.0861443751016311,-0.0279269910462601,0.598937958667606,"RIN3-RIN4",2177,"DG_s11",23.328,23.937,25.031,25.047,10,10,13,7,1.094,"Right",13,7,6,0,6,0,-6,0,0,6,"10-10",-3,3,13,10,7,10
"64",10,0.436152019508262,-0.193706736402826,0.26632599939721,-0.508771282502646,0.767827394294271,0.957762648950816,-0.0386091667440738,0.0406453755636447,-0.372405602802432,0.0453380928961158,0.669321810000109,-0.180886375400269,0.0223830884924805,-0.191635509445092,-1.28198856601279,-0.133718339605647,-0.489930010593423,-0.955780697265895,-2.0082183282634,0.0393567767702407,0.153943560615629,-0.320740519887598,-0.862796348590769,-0.362213704718317,-1.35719688306529,0.109330038719211,-0.24206518377177,-1.72686163451645,-2.04681784331716,-1.33254574451585,0.235280500669595,-0.151251367266132,-1.20391637179989,-0.464291955255636,0.0841472153806224,-0.26224807183356,0.313348874039414,-0.430028117822356,0.565911246211361,-1.25414279347109,-1.08803308943301,-0.386975779657461,-0.0470822327241045,0.0245343980349926,"RIN1-RIN2",2178,"DG_s11",26.047,26.656,27.703,27.718,10,10,10,26,1.047,"Left",10,26,16,0,16,16,0,0,0,-16,"10-10",0,-16,10,10,10,26
"65",10,0.0426140893641103,1.00131217689808,-0.733761140869092,-0.3101651253931,0.125404398514818,0.225402428514049,0.263440801922227,0.205766166601269,-0.317034817187312,0.488227017323271,1.25901392470563,1.84275590512334,0.741217107980166,0.96751528373385,-0.0474542805154856,0.629457504860291,0.559628149733801,-0.419133350405415,0.123533980492338,0.473480230445219,0.37628686314041,0.037097704373894,1.74251174541453,0.0365055836456407,1.1329642266419,0.853458592390254,0.72899898246367,0.894818202903281,-0.156749263153615,0.594024255076819,-0.224321934848788,-0.662828746601876,0.10946915709679,-0.139845514390391,0.649273854984994,0.411192650565968,0.814919772473146,0.490188171525752,-0.596557756648527,-0.110555923057347,0.514225171042996,-0.0794358825347539,1.07676454141682,0.663187084674962,"LIN3-LIN4",2178,"DG_s11",26.047,26.656,27.703,27.718,10,10,10,26,1.047,"Left",10,26,16,0,16,16,0,0,0,-16,"10-10",0,-16,10,10,10,26
"66",10,-1.1365254378223,0.714824211690409,0.551996008957267,-0.130294782825381,0.42546129299266,-0.557505158074221,-0.0212495045250194,0.463122947281817,-0.0353906902222958,0.550036724255754,0.82358676930751,1.28886416685914,0.70973656683123,-0.0915122910657296,0.701182802758433,0.960048539078937,0.784808065321684,1.32149074490505,0.971947820099035,0.131799829665493,1.62320456097688,1.52833970539797,0.592374425856742,1.26302723183842,0.943669646994897,0.0286094469380773,0.346946989352873,0.27699653471239,0.870293865959422,0.105510649735943,1.32946731905442,0.724946538056733,0.662065957298479,1.05978811867792,0.462904310015786,0.453189324596375,1.01961080023028,0.448510139973305,0.338191923961022,0.586166602808718,0.937761353377912,1.07073401212741,-0.228245678430772,-0.389278482584137,"RIN3-RIN4",2178,"DG_s11",26.047,26.656,27.703,27.718,10,10,10,26,1.047,"Left",10,26,16,0,16,16,0,0,0,-16,"10-10",0,-16,10,10,10,26
"67",10,0.273417742521957,-0.328960214519251,0.416633441413237,-0.361090969415943,-1.05497258981795,-0.370073626788909,-0.214196495429872,-0.239803704077006,-1.25444224137787,-0.914497662555399,-0.855546528675104,1.30695392558099,-0.496165825813512,-0.556410813408551,-1.18435212660432,0.0559374050964014,0.177169084069367,-0.000763887201897795,-2.10455729536913,0.440834999548754,-1.45669888145511,-0.0177801708001661,-1.31109568156257,-0.657723315296647,-1.14150011719436,-1.33496782356122,0.0651744344174645,-1.32469408636883,-1.06953136005676,-1.87955762693042,-1.02867905778079,-0.373223925266686,-0.320892612214227,-1.1539485752263,-1.13185462268129,-0.871679921506618,0.122070862403151,-0.942322924081006,-0.0799535493815546,-0.966943976913435,-1.5218447602814,-0.901107575602106,-0.851194886006379,-0.848036565332518,"LIN1-LIN2",2178,"DG_s11",26.047,26.656,27.703,27.718,10,10,10,26,1.047,"Left",10,26,16,0,16,16,0,0,0,-16,"10-10",0,-16,10,10,10,26
"68",10,0.119800174522087,-0.452398083277129,-0.500280019666671,0.832877928421713,-0.203084204608557,-0.728432302599444,1.23577909141769,-1.16006449965544,0.451257401529594,0.247048395548846,0.916969797103595,0.850989751589263,0.545014975079504,0.383960073082192,0.420981008771293,0.676139444137871,0.118400838978021,-0.119303544376465,0.016916083992752,-0.118268041325357,-0.0388567491527176,0.274075699853197,0.499234596403616,-0.521462497999642,-0.375684118815963,-1.06484194507428,0.829072541932325,0.209357396251922,0.31755868689347,-0.273762616802278,0.0398982637104699,0.399100777455071,0.309735085107109,-0.706453987526452,0.62209449160674,-0.546580326832156,0.0342655156762453,-0.346934318365186,-0.217021712452338,-0.788294325233593,0.846407938679959,0.555923347771596,0.0466284837870683,-0.45057214517149,"LIN2-LIN3",2178,"DG_s11",26.047,26.656,27.703,27.718,10,10,10,26,1.047,"Left",10,26,16,0,16,16,0,0,0,-16,"10-10",0,-16,10,10,10,26
"69",10,0.942527246753039,-0.292837794962245,0.459721495085578,-1.10941094687637,0.6816882812856,-0.602116724023494,0.18757653728509,1.01270110860282,0.208561547219759,0.236408953487907,1.56616604812148,1.02156528245731,0.993069539770179,0.527970595619685,0.319476164521707,1.44147968453196,0.17291771205282,0.175166217744494,-0.423610452235016,0.336134219184392,1.03435455158574,0.77969178740128,1.24102561679591,0.944069202841932,0.440890345734956,1.12455681447365,0.363890733705521,1.51749770780051,-0.913932578452978,-0.367855468302139,-0.834641764415758,-0.44164233489857,1.10560488905779,-0.0497307340414181,0.265884070356868,-0.0682034176838409,0.00473665629970821,0.880634982763563,0.70676109390801,0.829617208421839,0.768487603167178,-0.0571038416085301,-0.130604382780022,-0.0270409093235404,"LIN4-LIN5",2178,"DG_s11",26.047,26.656,27.703,27.718,10,10,10,26,1.047,"Left",10,26,16,0,16,16,0,0,0,-16,"10-10",0,-16,10,10,10,26
"70",10,0.54476121051766,-0.0634756275694599,-0.279079282201389,-0.20220630074681,0.152728193269526,0.442751186229717,-0.350556112738238,-1.04104214447758,-0.71775467226632,-1.79146065029858,0.272242461203039,-0.140225609186021,-0.543174766645428,0.297279302959507,-0.702168288769952,-0.444387002331973,-1.34566897994495,-0.877862721504455,-1.6064457257543,-1.82347164369663,-0.107392254160076,-2.03785554563756,-0.287244287429811,-1.41974614884215,-1.12420872829477,-1.06487325022638,-1.07650792007975,-0.607719270630176,-0.417396813069344,-1.8350976047713,-1.2697192116556,0.431081735021927,0.128267682614892,-0.226231480333799,-1.73094639766718,-0.940217220209283,-1.36394526188698,-0.736741218883314,-0.325123581505155,0.0872689366425452,-1.03699012581967,-1.42268288168048,-0.900054857200602,-0.158841356757201,"RIN2-RIN3",2178,"DG_s11",26.047,26.656,27.703,27.718,10,10,10,26,1.047,"Left",10,26,16,0,16,16,0,0,0,-16,"10-10",0,-16,10,10,10,26
"71",11,0.0390838810088967,0.177278427599398,1.26867151668397,-1.48503382529226,-0.744138881859099,0.702098205380842,0.253973688270132,0.343736581792411,-0.0206952541621233,0.133670331892457,-0.626583093107455,1.25533095621576,0.719441519965922,0.580113271685522,-0.349525442293356,-1.29589538284328,0.626526135779184,0.110740449785319,-0.219099820843053,-0.340903023326347,-0.623527161166913,0.603588948811353,-0.312591091350177,0.320254478775204,0.415073969632794,-0.289678049727701,0.702178452542141,0.293156230985639,1.21665652173724,-0.143782902340193,-0.720161440067021,0.298336965464755,1.12140390527659,-0.848893658117773,0.0662610112265005,0.0203456136508766,0.810879554586835,0.364455233158325,0.258085618645108,0.500999416266668,-0.275840864488557,-1.35828211965312,-0.72409569646698,0.276886402927909,"RIN1-RIN2",2179,"DG_s11",28.718,29.328,30.156,30.172,10,10,13,22,0.828,"Left",13,22,9,0,9,9,0,0,0,-9,"10-10",-3,-12,10,13,10,22
"72",11,0.829027257087255,-0.122410618178495,-1.29341284230755,0.586796203398795,-0.261740679979427,-1.25729715562803,0.427237493085291,0.608577780067435,1.03663092733925,0.471909933136883,-0.41494045361689,1.27806508920432,0.865563426624011,0.961882115645035,0.762380450371783,-0.0520902761572728,-0.612350133910354,0.109103777240391,-0.518016333319125,0.528650602623136,-0.21592446714608,-0.91028595616983,-0.201668816308533,0.0178790965360518,-0.610801438566794,1.20040319246603,-0.427195354652841,-1.59298037646914,-1.14079820596379,0.967367621716629,0.917732970719119,-0.82399930579883,0.162367959273022,0.0224684276659071,0.031384189758886,-0.290880852850333,0.430108351379662,-0.168686045332286,-0.462774289596479,0.083081166670631,0.192924931430047,-0.281985384041292,1.18525724347,-0.91617312185378,"LIN4-LIN5",2179,"DG_s11",28.718,29.328,30.156,30.172,10,10,13,22,0.828,"Left",13,22,9,0,9,9,0,0,0,-9,"10-10",-3,-12,10,13,10,22
"73",11,0.194095505703117,0.275518073165313,-0.184700005657705,-0.284913573210725,-1.57132400911864,-1.28795225580036,-0.821658030970817,-1.67115825435246,0.112264692303052,-0.509527941507679,0.131722382099359,-0.171676565771418,-0.804081701812636,-1.28547192802761,-1.87078440196468,0.0668890415911116,-1.15821524740937,-0.0153207668552278,-1.17690962526932,-0.768418552091745,-1.09747632108327,-1.61228463571521,-1.05029406303413,-0.994069642458968,-0.933177793655372,-1.02540045095904,-0.906739993054911,-0.623280457729912,-2.00287266794974,-1.1096989562307,-0.125442257221483,-0.524061806309283,-0.859352603581486,-0.856107682848245,-0.652040517483957,-0.906030904358287,-1.79931986051995,-1.57763811049533,-1.57993307466241,-0.322542443147062,-1.50912795186395,-2.30846529631152,-0.378048427616188,-1.43905975394562,"RIN3-RIN4",2179,"DG_s11",28.718,29.328,30.156,30.172,10,10,13,22,0.828,"Left",13,22,9,0,9,9,0,0,0,-9,"10-10",-3,-12,10,13,10,22
"74",11,-0.13071401402413,-0.437219540765757,0.670518013307627,-0.10258445851774,-0.0449297261745749,0.407073127986344,-0.0807178470007086,0.65828412439773,0.309812491629076,-0.279425194718018,-0.0258530121478593,0.620006176220843,0.354127455294087,0.0829602042702229,0.155878371804032,-0.0735172317855701,0.74113558052158,-0.393439603922235,0.0554694556350297,0.12464165687018,0.58691454660959,0.586733084281967,-1.0198183002695,-1.01705608151139,0.465788621858546,-0.603302929862502,1.07001281166352,0.423445243183344,-0.901804070162472,0.294338761677385,0.22674158458892,-0.366111588934477,0.0979500518639806,-0.118149177619235,0.517280854850789,0.452712690469652,0.579891315160491,-0.762808527350798,0.892196600614111,-0.241739663507655,0.0467879996841125,-0.0216044915439855,-0.394407323635552,1.33342201472839,"RIN2-RIN3",2179,"DG_s11",28.718,29.328,30.156,30.172,10,10,13,22,0.828,"Left",13,22,9,0,9,9,0,0,0,-9,"10-10",-3,-12,10,13,10,22
"75",11,-0.0640427124391389,0.559539163368029,-1.56277145645379,1.0672750055249,-0.355197124344673,-0.612563072330989,0.141217885157544,-1.08152871308807,0.023942410929068,-0.234499034542685,0.331783766831257,-0.0146765517408958,0.491594321446968,-0.0135100080770916,-0.112191323128205,-0.464598374292993,-0.0916438180928836,-0.382339081838959,0.427834072490757,0.0964876486222259,0.808840660449475,0.56683065767638,0.267465340335269,-0.589485770624673,-0.122192268627632,-0.141262125733998,-0.341962260235261,-0.357979315744448,0.367353161603161,0.352910546292154,0.327758507060834,0.0930700341361796,-0.407076652393641,0.0029861649631524,0.354740766967766,0.0652284738403734,1.52128408932639,0.345718799286824,0.213202481775903,-0.570300628426574,-0.0630621599827341,1.05728221148513,0.517109098915694,-0.836071023548048,"LIN2-LIN3",2179,"DG_s11",28.718,29.328,30.156,30.172,10,10,13,22,0.828,"Left",13,22,9,0,9,9,0,0,0,-9,"10-10",-3,-12,10,13,10,22
"76",11,0.895316949467285,0.254596315166518,-0.63547221687839,-0.514441047755413,-0.36270863040615,-1.80347110172931,-0.435815752356646,-0.905161536779426,-0.501902196069452,-0.0579793100648773,-0.106340251532678,-0.208378723049063,-0.335116806287532,0.176478998547201,0.153041329442683,0.226912663792035,-0.279317611222793,-0.248382000390357,-1.02056981447972,-0.631052547325758,-0.497024521384235,0.0380796234935676,0.237725567171261,0.644018440950767,0.181508691117232,-0.323588208209838,-0.52029932213575,-0.356746982194355,-0.552152416138217,0.164481730276635,0.434111632859467,-0.328843021450846,-0.173298990253384,-0.913356361007996,-0.58750524897733,-0.491791249164149,-0.131816008944691,0.411771323896064,-0.111313607993978,0.768346859315404,-0.422303307186444,0.318943150826321,-0.471040410774725,-0.853664229749129,"LIN3-LIN4",2179,"DG_s11",28.718,29.328,30.156,30.172,10,10,13,22,0.828,"Left",13,22,9,0,9,9,0,0,0,-9,"10-10",-3,-12,10,13,10,22
"77",11,0.595400384469262,-0.0986282417184889,-0.788056596132965,0.291284453382191,-0.960930076191607,0.401558983842446,-0.0478349620882073,0.324247613968692,0.0977946277531152,-0.401967225845492,-0.474958431524328,-0.28442142610973,0.356298678640775,-0.875904952893175,-0.667079241742439,-1.2062759359962,-0.603537392970208,-0.581250838828828,-1.92162450753507,-1.72020969521225,-0.287732005027325,-0.711203754000128,-0.771393718636034,0.256811371612251,-1.80504770346207,-0.176208522162756,-0.0574888372606379,-0.888914875594752,-0.00724390772383465,-0.686157003372573,0.0176839891426717,0.0551444377262684,-0.192347976193385,-0.613946599979441,-0.755173961907283,-1.15959818878372,-0.596929740121072,-1.83026119013038,-0.493076219564749,-0.25293325444211,-0.504721854172444,-0.395924281846788,-0.54642869677968,-0.548414348941628,"LIN1-LIN2",2179,"DG_s11",28.718,29.328,30.156,30.172,10,10,13,22,0.828,"Left",13,22,9,0,9,9,0,0,0,-9,"10-10",-3,-12,10,13,10,22
"78",12,-0.0578595312212364,0.468424718946786,-0.577771654406564,0.167206466681014,0.245995708570445,0.444762923804207,0.43696036152042,0.676512858057567,0.538322589423796,0.988944850945684,0.202637194814853,0.528658829579125,1.08654710170569,0.928607140354945,-0.775868146594951,-0.0673530902222708,0.0260888353266155,-0.15991592778805,0.744268382913964,0.703269851065293,-0.050512043944642,1.42637606021423,0.990965380203365,-0.527506019663296,-0.650707088253275,1.48361790693266,-0.138891762515127,-0.454319961468113,-0.0917273099524203,0.0908524728304352,-0.376889564799244,1.36055164763569,0.915502550086918,1.5817684967832,1.20654741285519,-0.149885371368341,1.28093078307415,-0.0928603194060442,-0.0654355440929995,-0.0497688257759084,-0.502211249172527,1.2290864331389,-1.26212044526134,-0.645146234704432,"RIN2-RIN3",2180,"DG_s11",31.172,31.781,33.125,33.14,10,10,16,4,1.344,"Right",16,4,12,0,12,0,-12,0,0,12,"10-10",-6,6,16,10,4,10
"79",12,0.0622928822449849,-0.172995273433239,0.27989714486601,-0.169194753677755,0.275043551775346,-0.595106884471059,-0.261222792938386,-0.187141227259533,0.656730142661356,1.27939387310077,-0.317881168721543,0.676102093481195,-0.126940757901968,-0.866616419741105,-0.825874344434758,-1.72464974410401,0.21149203752969,-1.00688981996855,-0.146854906567939,0.798279682156986,0.547445676657359,0.631199385975603,0.31717510039164,0.281885697908901,-0.198013713342247,-0.0668058578810458,-0.664103443266846,1.31152429036163,0.484448440027291,0.503126769514754,0.0879099165059145,-1.11686715701096,-1.64106849053174,-0.600061969032641,0.0944720035299023,-0.0296124139414058,-0.38224234512657,0.379365578341335,-0.715134778489422,-1.0145753209305,-0.249096978370574,-0.272468787200252,0.265974549380506,-0.589547167697029,"LIN2-LIN3",2180,"DG_s11",31.172,31.781,33.125,33.14,10,10,16,4,1.344,"Right",16,4,12,0,12,0,-12,0,0,12,"10-10",-6,6,16,10,4,10
"80",12,0.99545833329534,-0.095949464808089,-0.882840026833307,-0.016668841653944,0.985046753452256,-0.0158342079370959,-0.352879726723165,-0.369066531673168,-0.276927901355832,-0.258704215554451,0.43459324967963,1.18448647055577,0.0813752169407405,0.525312194885232,-0.941637366667192,-0.366668108839643,-1.193324603476,0.299867213476089,0.646332153936865,0.771951871434596,-0.660499594773653,1.04368915182173,0.584104433233356,-0.672283452908992,0.776889340319795,0.209479755973263,0.87024241153729,-1.15017150413073,-0.946639327397815,-0.0177403708648303,0.446463473111876,0.452749221107592,1.03377025317714,0.41198350957823,-0.32270027687006,-0.979419949361445,0.37117383146651,0.380039126885523,-0.0354496826075876,-0.647726450365742,-0.134896694965121,0.835319314453306,-0.939351233350165,-0.494219346502658,"RIN1-RIN2",2180,"DG_s11",31.172,31.781,33.125,33.14,10,10,16,4,1.344,"Right",16,4,12,0,12,0,-12,0,0,12,"10-10",-6,6,16,10,4,10
"81",12,0.497079235558356,0.00384881085046418,-0.693587897290249,0.19265985088143,-0.270704095480589,-0.0308372557936099,0.577369684623638,-0.784578284936546,0.407164233730434,1.05800671659494,-0.168569076558596,0.797328539300143,-0.650874509776919,1.1197917139363,0.0699695894376209,0.515184486540423,1.12269118911212,0.84337736633086,0.92242841677781,1.01080486399314,0.868730187707776,-0.0161077476145732,-0.418380180744096,0.448278510555885,-0.581096979846447,0.7987940273256,-0.070209275126873,1.11403865286102,1.17208309364035,1.18596664330264,-0.0912171167157387,-0.577997643722194,0.707992850504111,0.465960578660039,-0.312086907599842,1.26115355819725,0.126362163084811,0.997928126179458,-0.0584526018736211,-0.254478905668875,-0.565351654273559,0.882831478948382,0.0220147703213303,0.363155508539183,"LIN3-LIN4",2180,"DG_s11",31.172,31.781,33.125,33.14,10,10,16,4,1.344,"Right",16,4,12,0,12,0,-12,0,0,12,"10-10",-6,6,16,10,4,10
"82",12,0.579281596434871,-0.74371444661174,0.567498780551505,-0.403065930374638,0.778906260897529,0.457202120616452,1.5681348936726,0.768871053751506,0.980960286322999,0.955274591218367,1.75023596760821,2.14292489419498,0.626681389569589,1.73576733306352,1.62645371569511,0.235692907974057,0.780402893753592,0.796801431880428,0.314670621119962,0.846777962698464,0.374177277190193,-0.130853175405098,0.84732205349732,0.793444762471417,0.0904576271217996,0.993056254325742,0.121700487187693,2.41548134374422,1.42581867149235,1.61479919904153,1.07243739488811,0.23595071745428,0.914920423448028,1.73019075300697,0.885065259480302,0.55947937551052,0.761616698867469,1.50696685136529,0.579454289584969,0.612827509455995,1.02972131338778,0.685200717422099,1.18824691366386,1.45132927134861,"LIN4-LIN5",2180,"DG_s11",31.172,31.781,33.125,33.14,10,10,16,4,1.344,"Right",16,4,12,0,12,0,-12,0,0,12,"10-10",-6,6,16,10,4,10
"83",12,0.253396784424814,-0.840074433776347,0.477288606733541,0.109389042617992,0.169888704210847,-1.67119465602536,-0.996237861683302,-0.199746972871835,1.16116055762431,-0.506108481293544,-0.731225181276925,-0.309679010711668,0.12735638274092,0.238453686626161,0.560495811680692,-0.350871169380079,-0.132714298571075,-0.90661504286516,0.606160932274312,0.0551482208979777,-0.51924431700569,-0.262295550630827,1.32252048960063,0.371339023021322,0.79189590973845,-0.65630174093492,-0.459142901584308,-0.346633833533903,0.056958907043327,-0.0707070616906529,-0.193926127262015,-0.196404650795662,-1.60829244763731,-1.43748210804579,0.773504007553075,-0.778556555982697,-0.212308718577992,-0.521910892502043,0.624921253192879,-0.793249809409012,0.232007039521639,-0.905081169535024,-0.40183185759961,-0.756209091478533,"RIN3-RIN4",2180,"DG_s11",31.172,31.781,33.125,33.14,10,10,16,4,1.344,"Right",16,4,12,0,12,0,-12,0,0,12,"10-10",-6,6,16,10,4,10
"84",12,0.258490502808195,0.80457198122937,-0.169072286436572,-0.893990197600993,-0.247938742073746,-1.09003289635884,-0.65768889086014,-0.0417405530687311,1.01603900288174,-0.929043748069634,-0.292107406105204,-0.100632467324763,0.242763354073092,-0.276777240014959,0.398222015193766,0.449422630726623,0.603423109095894,0.669338648878966,0.146458933507872,0.732276655610341,-0.510023266328341,-0.843228343188976,0.953973186443512,-0.0491341825596536,0.411427019065354,-0.0182864741773285,-0.359485817986892,0.349848108296696,1.21322590665916,-0.353220078033205,0.194939807749428,0.81319509676659,-0.178236995636594,0.258617745460103,0.465664498773263,-0.027369303597097,0.0876319121906057,-0.822197870765925,0.314880698729981,0.0396641444097474,0.92670644715767,-0.317644513111663,0.281354931508761,1.12267387398887,"LIN1-LIN2",2180,"DG_s11",31.172,31.781,33.125,33.14,10,10,16,4,1.344,"Right",16,4,12,0,12,0,-12,0,0,12,"10-10",-6,6,16,10,4,10
"85",13,-0.0451032010641281,0.210416906615143,0.814581492800542,-0.979895198351558,0.00862200790014267,-0.535543183521046,-0.977251317863361,0.532567081618875,-0.403609623039392,-0.627960509336299,0.632296604707498,-0.907097140452299,-0.382665072641656,-0.697498187200825,-0.366578012308038,-0.183375009886277,0.00120584677632518,0.904258756217192,-0.273038239227782,-1.81555791591296,-0.291550023638797,0.247670767775553,-0.773708613082274,0.36716584297072,0.0880645959829716,-0.157148136756005,-1.17245190885724,0.0258307344135562,-0.316155552696213,-0.742255669487398,-0.301175808951815,0.30461112190989,-1.33233117728451,0.319589756931893,-0.381884872350681,0.0910930986492335,-0.430809360965848,0.0348966675201607,-1.04781483677307,-0.981661676737819,0.756481249568636,0.357490805068677,0.315024718857698,0.0162163895339735,"LIN2-LIN3",2181,"DG_s11",34.14,34.75,35.468,35.484,10,10,8,11,0.718,"Left",8,11,3,0,3,3,0,0,0,-3,"10-10",2,-1,10,8,10,11
"86",13,-0.10956510697095,0.720841934852317,0.264758537411518,-0.876035365292886,0.0986785221926998,-1.34000344748588,0.623406006123351,1.2286420675168,0.445699671044634,0.147639670854816,-1.0715497255714,0.678433437394215,-1.2091493328443,0.117976599581135,-0.0272808404092184,-0.219352916282533,0.777477063361639,0.557984646836299,-1.1273765411966,-0.767552972479266,-0.333622542865676,0.108298318565111,-0.425083381592452,-0.372878087189375,-1.42031500850154,-0.558609094706094,-0.513284552533703,0.0810878459744737,-0.512351402869089,-0.941010853883335,-1.56351927652357,0.204121450419667,-0.0383321603931077,0.167377007619649,-0.755475463769596,0.956109131002546,-1.46058817095623,-1.14327011203062,-0.637913740496543,-1.96245862191517,-1.0695786093576,-0.105109210011777,-0.159997960527845,-0.372840353476185,"LIN1-LIN2",2181,"DG_s11",34.14,34.75,35.468,35.484,10,10,8,11,0.718,"Left",8,11,3,0,3,3,0,0,0,-3,"10-10",2,-1,10,8,10,11
"87",13,-0.400601011728945,0.0350463235410139,0.596964693134588,-0.231410004946656,0.287207069278144,-0.217920880598385,-0.0463361034640357,-0.564095499231465,-0.112741155420837,-0.786670127673048,0.0723820177184828,0.679291273635348,-0.439193878909184,-0.490645795854692,-0.49564680647769,-0.498036101969384,-0.842557370271534,-0.935269362244674,-0.218057609882212,0.0573493055711634,-1.46000100383118,0.237403466645676,-0.0269600973347366,0.438275597555016,0.156158089817836,-1.03873986761342,0.404776191385344,0.177252646239461,-0.111948350764642,0.41684649062842,-0.300786785479381,-1.27492154916994,-1.38933322507119,-0.617078825887535,0.58879421653989,-0.0322578062966334,-0.020629695370749,-1.19860836002229,0.388341967771964,-0.955995003864525,0.528572083379768,-0.240023349263884,-0.231563990872647,-0.0808599944936352,"LIN3-LIN4",2181,"DG_s11",34.14,34.75,35.468,35.484,10,10,8,11,0.718,"Left",8,11,3,0,3,3,0,0,0,-3,"10-10",2,-1,10,8,10,11
"88",13,0.649241249305346,-0.311047109212945,0.803757171231809,-1.14195131132421,-1.45796192380971,-0.964517852763177,-0.25914185988977,1.04773102899494,0.383998982836339,-0.861771970851701,-0.497143671470078,0.404802725877796,0.90116535869914,0.77067088593742,0.793714243499089,-0.00542127989128494,-1.02555224044782,0.387813815168984,-0.541794406425732,0.475207265292058,0.35796843174858,-0.224890953963117,0.0178012634164832,0.120062788298979,-0.48732702508609,0.200236817387455,0.213194379224522,0.806412242601556,0.31966131196557,1.07542892145055,0.275297450961266,0.824802940747605,1.30363196381105,1.21215161135047,-0.11106782201423,1.08016859715271,-0.354842222487737,-0.80252291610272,-1.38190089349533,0.390062473168543,0.985421501954557,-0.157439638486612,0.0806458991243175,-0.43630715608679,"RIN3-RIN4",2181,"DG_s11",34.14,34.75,35.468,35.484,10,10,8,11,0.718,"Left",8,11,3,0,3,3,0,0,0,-3,"10-10",2,-1,10,8,10,11
"89",13,0.241705166468781,0.134867164111856,0.197908285850982,-0.574480616431619,1.0310338155079,0.567981308813802,-1.65465553565628,0.248988219198377,0.670733118043144,0.565394012910732,0.779018343796018,0.235098798867074,0.452850776928591,0.878282152120631,0.396341910013768,1.2866398080768,0.462472483734793,1.14383916557314,0.637027566308292,1.12248172230071,1.07133689307415,0.251423702143453,0.544123060553359,-0.278441380752515,-0.147024960516878,0.422318696605101,1.1111333829214,-0.448428005545094,0.638023582326889,-0.34758895232166,0.661732331412716,0.542207550360014,-1.08499391796777,0.820428095693126,0.724105375238424,-0.181690746085315,-0.490334883030237,-1.01672622990032,0.0168474125885378,-0.105573675882287,-0.0851774956371822,0.188620629978762,0.199792543594136,-1.29707415199283,"RIN1-RIN2",2181,"DG_s11",34.14,34.75,35.468,35.484,10,10,8,11,0.718,"Left",8,11,3,0,3,3,0,0,0,-3,"10-10",2,-1,10,8,10,11
"90",13,-0.0656027733197329,0.0138513964491276,0.712913102719152,-0.661161725848546,1.1057300577987,0.275067308952023,2.31963109364249,0.48221337693128,1.74814575689583,0.819514806326247,1.29823465564176,1.71034562464379,2.2395092424511,1.64114088126791,0.620003541624352,0.803484670323281,0.307832123826057,-1.0832161574804,0.828947330298672,0.834817567685732,0.521580373638612,2.61436162589459,1.08216939766059,1.1399452479242,2.02449104247292,1.00034943375668,2.08625764258285,1.34561155289064,1.69433412127501,0.145065708007731,0.714787684834715,1.33894517898118,1.96588027787237,1.46255580173169,0.831807425995855,1.04434354842566,1.46592777542194,0.909179741942792,0.459483961707789,-0.134524748405064,1.37663772979673,1.36063738845029,1.00942402728967,0.423776553920399,"LIN4-LIN5",2181,"DG_s11",34.14,34.75,35.468,35.484,10,10,8,11,0.718,"Left",8,11,3,0,3,3,0,0,0,-3,"10-10",2,-1,10,8,10,11
"91",13,0.200150665039474,-0.488089077610133,-0.209740592547511,0.49767900511817,0.599459913760062,-0.0341705837790727,-1.93111784760119,-0.572070700115878,0.0791480065170531,0.821437815092496,0.811234363686109,0.217039150548337,0.756545494782328,0.472084380523115,0.370493336643376,1.10583074075916,0.45576660175968,0.88993800371104,0.584194364656272,0.1018956346323,0.60464631112309,0.588323409317838,0.632434392335665,-0.492325899646451,-0.150441360733478,0.817304582884058,0.0506910618849896,0.500801719164157,1.14408208631406,-0.854506795584993,0.360193738454266,0.864315241366848,-1.17028912829489,0.486853949152978,0.449716065822615,0.0626502511364699,-0.419996576721112,-0.262959663794071,-1.32950258870022,-0.589074730200014,-0.403639947886489,-0.703161888025767,-0.249197169327783,-0.529353117105615,"RIN2-RIN3",2181,"DG_s11",34.14,34.75,35.468,35.484,10,10,8,11,0.718,"Left",8,11,3,0,3,3,0,0,0,-3,"10-10",2,-1,10,8,10,11
"92",14,0.555196255722643,0.0313672258706448,-0.785666333205273,0.199102851611986,-0.488100336572286,-0.599658565852072,1.57165152956927,0.662502016684198,-0.40324536836859,-1.24798527166894,-0.231998852827225,0.467019820903936,-0.162139851460963,-0.0528082259346532,-1.370435228287,0.433472319130686,0.321951514468009,-1.66574709891826,-0.509511519846763,0.14219933791784,0.0688218470409141,-0.885861504383887,-0.469363060241765,-0.950266567627226,-0.280972040918394,-2.121238635875,-0.346742492804275,-0.91098041528393,-0.389402857415435,-0.507559630077203,-1.22805578643234,0.111937711854939,-0.161563569977013,-0.695998386712968,-0.526465665838821,-0.00397726680747246,0.585889388609903,-0.167753186045515,0.0688218470409141,-0.365583696594511,0.104854430888119,-0.760378239560064,-0.413413105763385,-0.162261216207687,"RIN3-RIN4",2182,"DG_s11",36.484,37.093,37.922,37.922,18,18,10,10,0.829,"Left",18,18,0,0,0,0,0,0,0,0,"Equal",8,8,18,10,18,10
"93",14,0.450689443561524,0.410788226809338,0.219130254077977,-1.08060792444884,1.22420977376414,-0.237724951453034,1.36783909754131,0.834925917059151,-0.560233663506766,-0.279419635490485,-0.683093767595042,-0.547912275503315,-0.709501197626858,-0.784989711400698,-1.29530217253419,-1.08512972178653,-1.41367536793572,-0.658559232940135,-0.775579247606944,-0.0529565021024465,-0.586047978445571,-0.562006320740286,-0.846563736637548,-0.152647142676408,0.730486049711029,-0.209650589908463,-0.586451927048605,0.275144017558858,-0.815604506793682,0.100489324048012,-0.767738692033603,-0.0868044272866284,-0.136850205664584,-0.316604267828815,0.298479235689908,0.467905238353523,-0.518700535288493,0.226090304212772,-0.0675781725197464,1.16596729628121,-0.0246992283150995,0.556828388710133,-0.532816739273626,1.04607535836179,"LIN1-LIN2",2182,"DG_s11",36.484,37.093,37.922,37.922,18,18,10,10,0.829,"Left",18,18,0,0,0,0,0,0,0,0,"Equal",8,8,18,10,18,10
"94",14,0.463836557472358,-0.834042385910653,-0.0454068756327595,0.415612704071054,-0.515306598750167,0.863299313732719,-0.837314104844112,-0.505028894577116,-0.757510904542875,-1.95552569886133,0.328414078695894,-0.323804882138089,-0.309591247208964,-0.231476261736648,-0.793710467361981,0.182372244507549,0.0824769659164879,0.687484007321878,-0.67097240787605,-0.208148497481973,0.78210171742246,-0.572419611620971,0.00704176681828494,0.410191746237195,-0.324050034256206,-0.450148575902137,0.295841290541852,-0.752455625357245,-1.06991357787382,-0.439029667269837,-0.825504707510538,0.206315693202576,-0.220937913024244,-0.682063868237962,-0.168548263024762,0.246774079688282,-1.40145017087149,-1.07327913742887,-0.21996527932097,0.173437385358502,0.150729354749167,-0.954247509731652,-0.538673130219677,-0.526171080019484,"RIN2-RIN3",2182,"DG_s11",36.484,37.093,37.922,37.922,18,18,10,10,0.829,"Left",18,18,0,0,0,0,0,0,0,0,"Equal",8,8,18,10,18,10
"95",14,-0.209502246193852,-0.58920058024405,0.563488236268166,0.235214590169736,-0.113595295217849,-0.436367939870729,-0.0537975644998587,-1.41647476433534,-0.51344389524952,1.29919170748048,-0.320407742269533,-0.481343625349644,-2.3470357633187,-1.14818189145153,-0.575029109426967,-0.370284508740816,0.44245927139943,-0.463798231096881,1.47458041202721,1.13870778711928,0.559011094155728,1.32866292610931,0.255879087168538,-1.85954077623691,-0.179961898609634,0.204280229964747,0.00318419303269213,-0.235232203275586,-1.02957207998951,-0.294207034263352,-0.146390351327684,-0.484239265179715,-0.0960871640661978,-0.410578146333116,0.568024835238156,0.222057972697165,-0.841616264609665,-0.0382433257503241,-0.983262540727639,0.417803796860767,0.207986366430256,0.661543094101143,-0.461783593690089,0.0759092359022828,"LIN4-LIN5",2182,"DG_s11",36.484,37.093,37.922,37.922,18,18,10,10,0.829,"Left",18,18,0,0,0,0,0,0,0,0,"Equal",8,8,18,10,18,10
"96",14,0.629052812816112,-0.259634827972889,0.23056673454969,-0.599984719392912,-0.083714241773313,0.0840599930499932,-1.87536694590735,-1.29239092259542,0.849920368897702,-0.607115880333402,-0.376406735453646,-1.39233996134839,-1.2977690696023,0.122244932207164,0.0135893158029798,0.699082139718643,0.23824567859332,0.495991375127288,-0.249249729571734,-0.347994588554399,-0.503473921253721,-0.594834799791445,-1.37949518200526,-0.53715381290296,-0.540062503760058,-0.410544425874273,0.325470748117051,-1.66682434714726,-0.651839154970636,-0.460410608119246,-0.732891902525609,0.549869741531967,0.369004142287128,-1.52798652667978,-0.037106178775816,-0.57369927911001,0.0518856008802606,-0.591990786803156,-0.714151114579106,-1.05238985238235,0.399852216927209,-0.660436823310186,0.6751614366319,0.846015170026766,"RIN1-RIN2",2182,"DG_s11",36.484,37.093,37.922,37.922,18,18,10,10,0.829,"Left",18,18,0,0,0,0,0,0,0,0,"Equal",8,8,18,10,18,10
"97",14,-0.0129204842495318,-0.724787780610197,0.945861057597096,-0.208152792737367,0.20910632111538,-2.31397780977813,1.58518520878374,0.297866204291749,0.405280746590526,0.334229846629785,-1.05978739817896,0.133126858931354,-0.0883995569996627,-0.588483410471362,-0.249416293498164,0.199138234640185,0.16145736555758,-0.667496960282137,-0.61867667433315,0.160300850393979,0.420263796696592,0.655655435579908,0.314479081846096,-1.36605765240703,-0.716009127878403,0.570789214936667,0.212346031764001,-0.540409413117813,0.409398458545076,0.127030895182408,-0.446406208136094,0.637989435809098,0.529167327026209,0.958760329441607,-1.70213357650401,0.640617558215368,-1.13554008410668,-0.563872360623175,0.330115505615851,0.553280755729033,-0.031983380627298,-1.1634096469995,0.351688652425687,-0.760936199154334,"LIN2-LIN3",2182,"DG_s11",36.484,37.093,37.922,37.922,18,18,10,10,0.829,"Left",18,18,0,0,0,0,0,0,0,0,"Equal",8,8,18,10,18,10
"98",14,0.532691893519964,-1.2356034547007,-0.274522162691328,0.977433723872067,0.528249430398657,1.19602911221713,0.279553558336311,0.568554306659363,0.021595174127317,0.907103282362323,-0.55278888532409,0.357041594279706,0.206173618702998,0.435407414074182,-0.667784524329172,0.956864685464755,1.0241172517503,0.56909256532871,0.571779521397585,1.86834479962425,0.403662684021443,1.71492068123736,0.520144798260596,-1.03539161516584,0.454985002931089,1.17107979316918,-0.0258163554686681,0.0598492811433373,0.742037870788742,0.485767105822029,0.331457662013807,-0.342129700883619,0.223135434861653,0.747943678982034,1.15383725446896,0.886497472921223,-0.894961409137477,-0.270171073405867,0.647115603631354,-1.27311737369091,-1.17223957889398,0.446921978021592,0.851031106574598,0.843639487687597,"LIN3-LIN4",2182,"DG_s11",36.484,37.093,37.922,37.922,18,18,10,10,0.829,"Left",18,18,0,0,0,0,0,0,0,0,"Equal",8,8,18,10,18,10
"99",15,0.00966840794336665,-0.434740242724104,0.0693320958188099,0.355739738961928,-0.800356563696729,0.179734779926299,-0.0490941380390022,-0.578843043099797,-1.10130536935217,0.397638299711451,-0.0846290019538825,-0.413033712976739,0.17676287771897,-0.99356211024722,-0.531107232290451,-0.491248644624281,0.771171236303195,0.0485417417872673,-0.57280870459293,-1.00004029603483,-0.95162968500619,-0.0748689061043573,-0.242141158986474,-0.0331857159309688,-0.276911736022257,0.801499272371806,-0.869758380553014,-0.145524098238275,-0.903843597734627,-0.691776875408768,0.146364577891175,0.180929919833513,-0.229591079832185,-1.34904735414845,-0.402751050936228,-0.683877865211356,-0.342509018508071,-0.139959866082903,-0.0689446506687488,-0.275444384328308,-0.308883768720094,0.20337033395902,0.0853277265944952,-0.613775630339655,"LIN2-LIN3",2183,"DG_s11",38.922,39.531,40.687,40.687,10,10,8,16,1.156,"Right",8,16,8,0,8,8,0,0,0,-8,"10-10",2,-6,8,10,16,10
"100",15,0.588823614972369,0.0848236446255886,-0.271233975230897,-0.402413284367061,-1.75863032741119,-0.0237206900604252,-1.24449685184292,-0.904726649245696,0.79685910970574,-0.561273676513443,-1.05741216468061,-0.246254226818359,0.815178058626296,0.728313631859411,-0.403385889404017,-0.120499599360769,0.697894939090292,-1.24304728833714,-0.182478282037272,0.504650676689562,0.463543642764184,-0.61431345657912,-0.00990088029466429,0.0146803969038247,0.599826630472357,-0.53334248677867,-1.52538239347749,-0.528919797528883,-0.470160354489053,-0.18344471708257,-1.07068947464737,-0.384747817751521,-0.586328555593446,-0.425120784069239,0.835438851222885,-0.905645063515058,-0.857730364492372,0.116756285468867,0.219538076234753,-0.747215648553683,-0.000565487628005901,-0.284887459619896,-0.176145279369892,-0.0499598112209503,"RIN2-RIN3",2183,"DG_s11",38.922,39.531,40.687,40.687,10,10,8,16,1.156,"Right",8,16,8,0,8,8,0,0,0,-8,"10-10",2,-6,8,10,16,10
"101",15,-0.223263410314603,-0.0142678665831388,0.466392291382926,-0.228861014485185,1.19936664028124,0.278121928241299,0.890668146427714,0.899049546984929,0.41078951226607,-0.491112482155986,0.7466361851763,0.408079964067285,1.07989200662838,0.270000649827072,0.797083637939041,-0.874514444547906,-0.0543046022661136,0.021847435487917,-0.449503198132181,-0.245434632944907,-0.980034337269433,1.09351236636172,0.147085577412259,0.715025968760658,0.419604864241937,-0.514030556499822,0.628480966051959,0.628970852191713,0.309445895899516,0.906671271045027,0.530002383593411,0.58232879435122,0.677914497190036,0.422045292387598,1.24603590637184,0.629881630172861,-0.215441933318719,0.62860630860763,0.130761264438615,-0.0243083521123184,1.26472576340052,0.637431830420039,-0.334481190168914,-0.183084750727928,"LIN3-LIN4",2183,"DG_s11",38.922,39.531,40.687,40.687,10,10,8,16,1.156,"Right",8,16,8,0,8,8,0,0,0,-8,"10-10",2,-6,8,10,16,10
"102",15,0.420391277152949,-0.721802716046323,-0.167545005240522,0.468956444133896,0.0124230388266655,-1.12562832796303,-0.447484313995135,-0.371263314897982,0.545739673905187,0.152923460508433,-0.0762053519528889,-0.354922913057212,0.0143393827461442,-0.122044200955852,-0.280899206501377,-2.02535523066808,-1.61174601818495,0.222228370690714,0.162833552977182,-0.228294555123804,-0.542087691879856,-0.0364210016386601,-0.0529312393379531,-0.110034632176967,-0.301398432641507,0.453460461509673,-0.240967343682169,-1.09184133038565,0.139019958600748,0.319047181807521,-0.716438133945933,-0.314119383086561,-1.34699058972517,0.389201223884765,-1.54072844140912,-0.201014057908241,-1.29331413520004,-0.708517881337176,-0.864626486714452,1.03391560939264,0.36394590223161,-0.817130168009286,-0.469211522793423,-0.229666245758902,"RIN3-RIN4",2183,"DG_s11",38.922,39.531,40.687,40.687,10,10,8,16,1.156,"Right",8,16,8,0,8,8,0,0,0,-8,"10-10",2,-6,8,10,16,10
"103",15,0.0906377439968304,0.160420012145648,0.432155729670851,-0.68321348581333,-0.319450732627035,0.379697217742392,1.61204643732747,-1.47739970705631,0.162030823579719,-0.264917470638298,1.81991676935038,0.793346577237871,0.28089757649199,0.834914441135854,-0.677156436813251,-0.853597739577457,0.581950015724981,0.28313654599911,0.607493514910401,0.0115695660155879,0.0949228163729758,0.0649825524399206,0.397071337563677,-0.433228118766178,0.0777081081558024,-0.752000670481687,0.47434186981259,-0.912411306456249,0.112878876707263,-0.453432707195547,-0.123169466130376,0.331838791576812,0.398115486409579,-0.965753889015367,0.790006771813633,-0.572556935302296,0.481728267031557,0.151334077063132,0.390446438473866,-0.636958901990923,0.817825969508198,0.425603774061071,-0.614241654997998,-0.030090560348929,"RIN1-RIN2",2183,"DG_s11",38.922,39.531,40.687,40.687,10,10,8,16,1.156,"Right",8,16,8,0,8,8,0,0,0,-8,"10-10",2,-6,8,10,16,10
"104",15,-1.43871108123924,0.203202447865443,1.40260114931427,-0.167092515940469,-0.10894922405722,1.73550376562698,1.1588871569638,1.06059200102548,0.783881577171887,-0.15472473984005,-0.38582977800896,0.277465350688,1.06564100107083,0.378883169963592,0.446596761407926,-0.267408741178524,-0.132479178627138,-0.0382114495892356,-1.11096917656879,-0.964772259241188,0.415575709358616,0.422567804538645,-0.520285252044188,0.714595239311407,-0.372936975704301,-0.776859537415617,-0.400125687347933,1.77778321487418,0.932803679198972,0.677545471931534,0.225315560132912,0.848764311304855,1.13344512185102,-1.02811680160699,-0.40507982592093,-0.0361742703769279,1.00352728067672,-0.24255553146621,0.785141170070107,0.310230186316927,0.280481710916152,0.699167658306243,0.934491578968756,0.0866180094727946,"LIN4-LIN5",2183,"DG_s11",38.922,39.531,40.687,40.687,10,10,8,16,1.156,"Right",8,16,8,0,8,8,0,0,0,-8,"10-10",2,-6,8,10,16,10
"105",15,-0.076927418743304,0.0288495747430981,-0.0559131483222197,0.103990992322425,-0.48241703094978,-0.631808862496528,0.221114914576081,-0.992054897050098,0.191768894351076,-0.635843051615795,-0.633745522933237,-0.662374260071572,-1.76373321811233,-1.0089626181014,-2.26481080648951,-2.00920873674301,-0.81081832086524,-0.761810223904932,-0.456296413641015,-1.22674272872285,-2.16772123735969,-0.272023186874538,0.169993916807157,-0.535997005684089,-1.00376941344389,-0.535182962753289,-1.30912010883303,-1.6145557708611,-1.11172890750448,-0.105511445069368,-0.804626980809909,-0.807370188016581,-1.16210427189864,-0.154515953943731,-0.782766084653768,-0.463471944707331,-0.243061178258941,-0.788939660860741,-0.772216890738193,-0.376204125610105,-0.686768791652465,-0.703394291097203,-1.24014030676429,-0.636800529663378,"LIN1-LIN2",2183,"DG_s11",38.922,39.531,40.687,40.687,10,10,8,16,1.156,"Right",8,16,8,0,8,8,0,0,0,-8,"10-10",2,-6,8,10,16,10
