"","trial","electrodes","bin_3","bin_4","bin_5","bin_6","bin_7","bin_8","bin_9","bin_10","bin_11","bin_12","bin_13","bin_14","X","SID","newround_time","choice_time","buttonpress_time","reveal_time","self_payoff","other_payoff","self_foregone","other_foregone","RT","side_chosen","self_var_payoff","other_var_payoff","ineq_var_abs","ineq_choice_abs","ineq_foregone_abs","ineq_disadvent","ineq_advent","self_diff","other_diff"
"1",1,"RAM1-RAM2",0.0689382402,0.1350679662,-0.0203981894,-0.1684465704,-0.1591243555,-0.1028185805,-0.2110294465,-0.2119802385,-0.1774800705,-0.1826436185,-0.1935942985,-0.2250792525,2169,"DG_s11",-0.61,0,2.015,2.031,10,10,10,18,2.015,"Left",10,18,8,0,8,8,0,0,-8
"2",1,"LAM3-LAM4",-0.2721526318,-0.0048553734,0.1383585436,0.0065400372,-0.0738014288,-0.1109530198,-0.1898875708,-0.1572319168,-0.2134084568,-0.2932102718,-0.1732682508,-0.1403443268,2169,"DG_s11",-0.61,0,2.015,2.031,10,10,10,18,2.015,"Left",10,18,8,0,8,8,0,0,-8
"3",1,"LAC1-LAC2",0.1449797915,0.2611524915,0.2696743235,0.0787486835,0.0972882815,0.2005215125,0.2405741025,0.2585314205,0.2589681335,0.2194709835,0.00836295050000001,0.00787523850000001,2169,"DG_s11",-0.61,0,2.015,2.031,10,10,10,18,2.015,"Left",10,18,8,0,8,8,0,0,-8
"4",1,"RIN1-RIN2",0.00787451750000001,-0.1238587235,-0.1327936645,-0.1593325235,-0.1293435985,-0.0850245285,-0.1323048395,0.00864954549999997,0.2511651865,0.00734716149999998,0.1590964615,0.2828534715,2169,"DG_s11",-0.61,0,2.015,2.031,10,10,10,18,2.015,"Left",10,18,8,0,8,8,0,0,-8
"5",1,"RTH4-RTH5",0.3486949895,0.2552174318,0.0400799918,0.1296511017,0.2897163317,0.2390530165,0.2164717655,0.1859495895,0.3094362375,0.3115526855,0.2120877505,0.1266064215,2169,"DG_s11",-0.61,0,2.015,2.031,10,10,10,18,2.015,"Left",10,18,8,0,8,8,0,0,-8
"6",1,"RAM3-RAM4",-0.1158086443,-0.1096350243,-0.221562349,-0.130155189,0.030206109,0.108705613,-0.011182285,-0.091473097,0.054150034,0.023902831,0.13636661,0.249482017,2169,"DG_s11",-0.61,0,2.015,2.031,10,10,10,18,2.015,"Left",10,18,8,0,8,8,0,0,-8
"7",1,"RTH1-RTH2",-0.0575253865,-0.0186025065,-0.0591006575,-0.1781850275,-0.1636127235,0.0511229065,-0.0645096865,-0.2158368365,-0.1099590275,-0.1231034575,-0.0927703545,0.1133785673,2169,"DG_s11",-0.61,0,2.015,2.031,10,10,10,18,2.015,"Left",10,18,8,0,8,8,0,0,-8
"8",1,"RIN3-RIN4",0.07659371745,0.17867046125,0.08306791125,0.13495700915,0.13227992315,-0.04278637055,0.07927838845,0.16521014645,0.08222086345,-0.07933023755,0.04910035245,0.13454017945,2169,"DG_s11",-0.61,0,2.015,2.031,10,10,10,18,2.015,"Left",10,18,8,0,8,8,0,0,-8
"9",1,"LOF3-LOF4",-0.1069898217,0.0283332073,-0.040618213,-0.1082978569,-0.0382353969,0.118634569,0.241689695,-0.020707991,-0.143789181,-0.080223492,-0.082380692,0.023799983,2169,"DG_s11",-0.61,0,2.015,2.031,10,10,10,18,2.015,"Left",10,18,8,0,8,8,0,0,-8
"10",1,"LAC3-LAC4",-0.0737042486,-0.1027641106,-0.0928129294,0.0619275576,0.126276172,0.0665219398,0.0489824098,0.123994735,0.066784875,-0.058285135,-0.141219347,-0.000877163,2169,"DG_s11",-0.61,0,2.015,2.031,10,10,10,18,2.015,"Left",10,18,8,0,8,8,0,0,-8
"11",1,"LIN2-LIN3",0.03819290265,0.03210604365,-0.00170642435,0.09091227755,0.12977989755,0.08468193965,0.24642577965,0.28213810965,0.08967649765,-0.03178032235,-0.00183040734999999,-0.04923881935,2169,"DG_s11",-0.61,0,2.015,2.031,10,10,10,18,2.015,"Left",10,18,8,0,8,8,0,0,-8
"12",1,"RTH6-RTH7",0.865172829,0.874407529,0.835694729,1.009215729,0.995003429,0.705511695,0.552380616,0.53273414,0.392761849,0.581278959,0.880251429,0.793542729,2169,"DG_s11",-0.61,0,2.015,2.031,10,10,10,18,2.015,"Left",10,18,8,0,8,8,0,0,-8
"13",1,"LIN7-LIN8",-0.0223212305,0.0541604645,-0.0605048555,0.0180197511,0.0370086901,-0.0446561365,-0.0513959575,0.0248137915,-0.0619298025,-0.2315371805,-0.1834819025,-0.1505461025,2169,"DG_s11",-0.61,0,2.015,2.031,10,10,10,18,2.015,"Left",10,18,8,0,8,8,0,0,-8
"14",1,"LPC7-LPC8",0.5746141975,0.8665776795,0.6246969865,0.3860421675,0.3559853385,0.3408275005,0.3562524195,0.4253603465,0.3125333039,0.1652896339,0.4518231395,0.5227088795,2169,"DG_s11",-0.61,0,2.015,2.031,10,10,10,18,2.015,"Left",10,18,8,0,8,8,0,0,-8
"15",1,"ROF2-ROF3",0.1136821786,0.091622693,0.085475713,0.123119933,0.087459503,-0.007242377,-0.183079987,-0.017695415,0.209722369,0.13627083,-0.016378544,0.039452769,2169,"DG_s11",-0.61,0,2.015,2.031,10,10,10,18,2.015,"Left",10,18,8,0,8,8,0,0,-8
"16",1,"LAC2-LAC3",0.0589599294,0.3221665584,0.2910272654,0.1416069674,0.3262525304,0.2798852134,0.1228634434,0.2629802694,0.3616132294,0.0875874184,-0.1331678776,-0.0418847776,2169,"DG_s11",-0.61,0,2.015,2.031,10,10,10,18,2.015,"Left",10,18,8,0,8,8,0,0,-8
"17",1,"LIN5-LIN6",-0.0453980913,0.20998215,0.394491074,0.277756554,0.0440359906,0.0266354336,0.055907787,0.109234671,0.027644376,-0.071106307,0.197391798,0.158709904,2169,"DG_s11",-0.61,0,2.015,2.031,10,10,10,18,2.015,"Left",10,18,8,0,8,8,0,0,-8
"18",1,"ROF6-ROF7",-0.1005874115,-0.0536108285,0.0269268475,-0.0967416015,-0.0373200178,-0.0893086028,-0.2373258025,-0.1770866745,-0.0628910725,-0.0998189845,-0.2225029301,-0.2952365961,2169,"DG_s11",-0.61,0,2.015,2.031,10,10,10,18,2.015,"Left",10,18,8,0,8,8,0,0,-8
"19",1,"LIN1-LIN2",0.0531019685,0.00805905849999999,-0.0573725975,-0.0331690095,-0.1292208145,-0.2264674035,-0.00531623450000002,0.0470344265,-0.2524661155,-0.4246161055,-0.3829865635,-0.1949952635,2169,"DG_s11",-0.61,0,2.015,2.031,10,10,10,18,2.015,"Left",10,18,8,0,8,8,0,0,-8
"20",1,"RAM5-RAM6",0.0485892995,0.1628715695,0.1499165835,0.0894999705,0.2270819835,0.3762788465,0.2823692895,0.0839003873,0.00078972129999999,0.0504289415,0.3063195475,0.3650426985,2169,"DG_s11",-0.61,0,2.015,2.031,10,10,10,18,2.015,"Left",10,18,8,0,8,8,0,0,-8
"21",1,"RIN2-RIN3",-0.0423226637,0.130716351,0.079964462,-0.018707545,0.132370947,0.204617027,0.590017627,0.40977108,-0.0252657,0.003437871,0.127544061,0.270943862,2169,"DG_s11",-0.61,0,2.015,2.031,10,10,10,18,2.015,"Left",10,18,8,0,8,8,0,0,-8
"22",1,"LTH8-LTH9",0.055192847,0.149242697,0.133073959,0.179320444,0.635838882,0.904299897,0.607277167,0.188699529,0.083725029,0.275529867,0.2875596567,-0.0603997833,2169,"DG_s11",-0.61,0,2.015,2.031,10,10,10,18,2.015,"Left",10,18,8,0,8,8,0,0,-8
"23",1,"LOF1-LOF2",0.1672336407,0.4837777027,0.3915476157,0.4043509157,0.5672518357,0.4125950757,0.4107534757,0.4213360457,0.4138107957,0.2582664357,0.1285957957,0.2484464557,2169,"DG_s11",-0.61,0,2.015,2.031,10,10,10,18,2.015,"Left",10,18,8,0,8,8,0,0,-8
"24",1,"ROF3-ROF4",-0.20545229485,-0.08162645285,-0.19537614785,-0.04789547185,-0.09456558285,-0.15116810285,0.14360834515,0.05585169015,-0.02976144185,0.09187609515,0.10817021715,0.07189601715,2169,"DG_s11",-0.61,0,2.015,2.031,10,10,10,18,2.015,"Left",10,18,8,0,8,8,0,0,-8
"25",1,"LOF2-LOF3",0.0046840688,0.5871815368,0.7489236958,0.6129929058,0.5025287588,0.1208520278,0.1667098718,0.3823331688,0.4096395488,0.3178918258,0.3118133258,0.4007068768,2169,"DG_s11",-0.61,0,2.015,2.031,10,10,10,18,2.015,"Left",10,18,8,0,8,8,0,0,-8
"26",1,"RIN6-RIN7",0.0519722605,0.0985739115,0.0766942425,0.0927147895,0.2533803905,0.3844124805,0.3527690525,0.2149404225,0.2105074785,0.0374048965,0.0290369255,0.1430912645,2169,"DG_s11",-0.61,0,2.015,2.031,10,10,10,18,2.015,"Left",10,18,8,0,8,8,0,0,-8
"27",1,"LIN6-LIN7",-0.3309464096,0.0203362124,0.5300570764,0.3582834044,0.0911105104,0.1913792824,0.1958389284,-0.0649528217,-0.2303479287,-0.0517647686,0.1901683924,0.1165559204,2169,"DG_s11",-0.61,0,2.015,2.031,10,10,10,18,2.015,"Left",10,18,8,0,8,8,0,0,-8
"28",1,"ROF5-ROF6",-0.17013660415,-0.06215023015,0.14742514985,0.31477238985,0.16957177685,-0.09366706815,-0.20420739515,-0.32445887015,-0.19859176715,-0.15843600215,-0.10937608815,-0.09331953915,2169,"DG_s11",-0.61,0,2.015,2.031,10,10,10,18,2.015,"Left",10,18,8,0,8,8,0,0,-8
"29",1,"LIN8-LIN9",0.29618980496,0.27034008015,-0.12243429385,-0.02110533304,0.03166341096,0.07066246996,0.20014796796,0.30504666896,0.10694054296,-0.12249794404,-0.01911422524,-0.02499809244,2169,"DG_s11",-0.61,0,2.015,2.031,10,10,10,18,2.015,"Left",10,18,8,0,8,8,0,0,-8
"30",1,"RAM2-RAM3",-0.0651522697,-0.0369891507,0.0954792213,-0.0632139477,-0.1454461417,0.0407225833,-0.0292482447,-0.1741092607,0.0134925893,0.1947568973,0.3385506873,0.3665010457,2169,"DG_s11",-0.61,0,2.015,2.031,10,10,10,18,2.015,"Left",10,18,8,0,8,8,0,0,-8
"31",1,"LIN9-LIN10",-0.000477519999999995,0.012154785,0.00904796300000001,-0.05420338,0.022627273,0.113874236,-0.009789097,0.0111587555,0.1835541395,0.1921649655,0.0517162945,0.015417495,2169,"DG_s11",-0.61,0,2.015,2.031,10,10,10,18,2.015,"Left",10,18,8,0,8,8,0,0,-8
"32",1,"LHH6-LHH7",0.4291547579,0.2339546739,0.0605838639,0.0397488729,0.1231017969,0.4104535849,0.4785694379,0.2289713231,0.1808502361,0.2972396639,0.1926595639,0.0105915509,2169,"DG_s11",-0.61,0,2.015,2.031,10,10,10,18,2.015,"Left",10,18,8,0,8,8,0,0,-8
"33",1,"LTH6-LTH7",0.125313001,0.121895644,0.126494164,0.3147694635,0.1562172745,0.021049767,0.591013646,0.60869174,0.25621104,0.399602121,0.537677021,0.535427221,2169,"DG_s11",-0.61,0,2.015,2.031,10,10,10,18,2.015,"Left",10,18,8,0,8,8,0,0,-8
"34",1,"LTH7-LTH8",0.205379044,0.238020675,0.139937581,0.266084163,0.441721507,0.594422364,0.672618664,0.302355754,0.065819274,0.280606942,0.335144941,0.321052883,2169,"DG_s11",-0.61,0,2.015,2.031,10,10,10,18,2.015,"Left",10,18,8,0,8,8,0,0,-8
"35",1,"RIN5-RIN6",-0.07962505355,-0.19838461255,-0.13122671255,-0.05975794455,0.09338561545,0.26220574545,0.19427450545,0.12684643545,0.29060198545,0.09137669445,-0.06506331055,-0.03406291955,2169,"DG_s11",-0.61,0,2.015,2.031,10,10,10,18,2.015,"Left",10,18,8,0,8,8,0,0,-8
"36",1,"LPC5-LPC6",0.225026875985,0.328463296985,0.288561896985,0.326819527985,0.540491151985,0.396211979985,0.172497673985,0.303109755985,0.588069290985,0.849659270985,0.748855881985,0.354481697985,2169,"DG_s11",-0.61,0,2.015,2.031,10,10,10,18,2.015,"Left",10,18,8,0,8,8,0,0,-8
"37",1,"LIN4-LIN5",-0.0470797565,0.2159270735,0.2266432785,-0.0356001375,-0.0635179735,-0.0152496042,-0.03449190369,-0.05380262399,0.0297266665,0.0751252635,0.2120180735,0.1988375435,2169,"DG_s11",-0.61,0,2.015,2.031,10,10,10,18,2.015,"Left",10,18,8,0,8,8,0,0,-8
"38",1,"RIN8-RIN9",-0.0714259356,0.0660441404,0.32850046,0.181123177,0.025104177,0.091156168,0.062758588,0.27866246,0.1160305,-0.112865607,0.154575983,0.283981944,2169,"DG_s11",-0.61,0,2.015,2.031,10,10,10,18,2.015,"Left",10,18,8,0,8,8,0,0,-8
"39",1,"LAC9-LAC10",-0.052191862,-0.152337147,-0.158082794,-0.033278758,-0.0965301263,0.0177012977,0.132625872,0.272048578,0.280022502,0.188254602,0.131899998,-0.015980422,2169,"DG_s11",-0.61,0,2.015,2.031,10,10,10,18,2.015,"Left",10,18,8,0,8,8,0,0,-8
"40",1,"LAC10-LAC11",-0.0652574918375,0.1287475211625,0.2970495991625,0.0778459821625,-0.0059619388375,0.0992833851625,-0.0374366698375,0.0426439501625,0.2112297631625,0.2115163611625,0.1154009301625,-0.0467989728375,2169,"DG_s11",-0.61,0,2.015,2.031,10,10,10,18,2.015,"Left",10,18,8,0,8,8,0,0,-8
"41",1,"LAM1-LAM2",0.0300504486,0.1481713926,-0.00742237740000001,-0.0055241114,-0.0124591734,0.1930358366,0.2561419386,0.0781035546,0.01814939721,-0.00861335779,0.0661907796,0.0801646576,2169,"DG_s11",-0.61,0,2.015,2.031,10,10,10,18,2.015,"Left",10,18,8,0,8,8,0,0,-8
"42",1,"LPC8-LPC9",-0.0225447535,-0.1143684285,0.00526926849999999,-0.0124624725,-0.0664169765,-0.1124667114,-0.1706693474,-0.1401964878,-0.2610644788,-0.1540059625,0.089643456,-0.107731894,2169,"DG_s11",-0.61,0,2.015,2.031,10,10,10,18,2.015,"Left",10,18,8,0,8,8,0,0,-8
"43",1,"LAM2-LAM3",-0.0615422725,0.0545300835,-0.1394025406,-0.1755038936,-0.0780518705,-0.0429113459,-0.0220380329,-0.0717167905,-0.0224348675,0.1583901415,0.1268771915,0.2014085805,2169,"DG_s11",-0.61,0,2.015,2.031,10,10,10,18,2.015,"Left",10,18,8,0,8,8,0,0,-8
"44",1,"LHH5-LHH6",0.3634321045,0.233003901,0.181003722,0.0929550895,0.1416106995,0.2325810775,-0.0073216115,-0.0270041835,0.1274558245,0.1230463115,0.1681185435,0.000176707499999999,2169,"DG_s11",-0.61,0,2.015,2.031,10,10,10,18,2.015,"Left",10,18,8,0,8,8,0,0,-8
"45",1,"LOF5-LOF6",-0.36818940105,-0.23402213105,-0.17063903205,0.07354965795,0.08876783395,-0.12960577305,-0.03975932805,-0.00382601704999999,-0.20927080205,-0.23583117705,-0.12274963505,-0.12615694005,2169,"DG_s11",-0.61,0,2.015,2.031,10,10,10,18,2.015,"Left",10,18,8,0,8,8,0,0,-8
"46",1,"LOF7-LOF8",0.1444683655,0.0621078355,-0.0856296465,-0.2359253725,-0.0693088005,-0.1312352545,-0.3643348045,-0.3160770283,-0.3150043638,-0.124304226,0.1657782445,0.0661650275,2169,"DG_s11",-0.61,0,2.015,2.031,10,10,10,18,2.015,"Left",10,18,8,0,8,8,0,0,-8
"47",1,"RAM6-RAM7",0.17260401194,0.17248449794,0.05523106489,0.03811355589,0.1178527959,0.0858431844,0.06616273,0.3087203495,0.3534441945,0.3415130745,0.3258697225,0.2098928325,2169,"DG_s11",-0.61,0,2.015,2.031,10,10,10,18,2.015,"Left",10,18,8,0,8,8,0,0,-8
"48",1,"LTH5-LTH6",0.29086976485,0.32966155485,0.09456248015,-0.14903344585,0.00777203915,0.24238681035,0.40424749535,0.30571406215,0.09821730715,0.00809202815,0.10490072015,0.18473466715,2169,"DG_s11",-0.61,0,2.015,2.031,10,10,10,18,2.015,"Left",10,18,8,0,8,8,0,0,-8
"49",1,"LAC6-LAC7",0.168434217437,0.234332046137,0.382236156537,0.662079577537,0.535781287137,0.476797166137,0.478787683137,0.360906770137,0.319917129137,0.178408751137,0.089188760137,0.027467189337,2169,"DG_s11",-0.61,0,2.015,2.031,10,10,10,18,2.015,"Left",10,18,8,0,8,8,0,0,-8
"50",1,"LAC7-LAC8",0.129709776,0.387660176,0.2729758231,0.1326886291,0.245758202,0.260484765,0.122799395,0.091916406,0.191774497,0.1553635754,0.0269755034,0.005826255,2169,"DG_s11",-0.61,0,2.015,2.031,10,10,10,18,2.015,"Left",10,18,8,0,8,8,0,0,-8
"51",1,"RHH4-RHH5",0.267975698915,0.263302362915,0.158174678915,0.258438964915,0.245234562815,0.383447102815,0.377337560915,0.119213971915,0.186933285915,0.091806034915,-0.136578955085,0.027328714915,2169,"DG_s11",-0.61,0,2.015,2.031,10,10,10,18,2.015,"Left",10,18,8,0,8,8,0,0,-8
"52",1,"RTH7-RTH8",-0.0247752602,-0.0710052334,-0.0697107474,0.0170576864,0.0552067964,0.0206794186,0.0233463746,-0.0261058414,-0.1102155044,-0.0658462534,-0.1465297064,-0.1206305914,2169,"DG_s11",-0.61,0,2.015,2.031,10,10,10,18,2.015,"Left",10,18,8,0,8,8,0,0,-8
"53",1,"LPC6-LPC7",0.6659170418,0.905682701,0.576099515,0.600179315,0.608852371,0.377353045,0.2893485319,0.3843470667,0.5315273158,0.683146207,0.672864661,0.183428109,2169,"DG_s11",-0.61,0,2.015,2.031,10,10,10,18,2.015,"Left",10,18,8,0,8,8,0,0,-8
"54",1,"LOF4-LOF5",-0.1502655864,-0.125431634,-0.147864954,-0.217445025,-0.028749946,-0.11346071,-0.19780432,-0.188816171,-0.235032114,-0.055566866,0.046660234,-0.113455093,2169,"DG_s11",-0.61,0,2.015,2.031,10,10,10,18,2.015,"Left",10,18,8,0,8,8,0,0,-8
"55",1,"LAC8-LAC9",0.00174073800000002,-0.075323132,-0.085348641,-0.087331393,-0.032101225,-0.074469024,-0.096508159,0.1192803257,0.2080068957,0.0596044897,-0.0196028003,0.05531787,2169,"DG_s11",-0.61,0,2.015,2.031,10,10,10,18,2.015,"Left",10,18,8,0,8,8,0,0,-8
"56",1,"RIN9-RIN10",0.327851625,0.256031291,0.182353907,0.076040045,-0.125052147,-0.150876145,-0.172363581,-0.186721933,-0.13220659,0.073025092,0.206796979,0.154462495,2169,"DG_s11",-0.61,0,2.015,2.031,10,10,10,18,2.015,"Left",10,18,8,0,8,8,0,0,-8
"57",1,"LPC1-LPC2",-0.09275528057,0.12163873343,0.26238858443,0.20415548743,0.13718462743,0.05131817043,-0.09870787967,-0.03027619867,0.09601198843,0.03439439843,0.14921379393,0.26055230293,2169,"DG_s11",-0.61,0,2.015,2.031,10,10,10,18,2.015,"Left",10,18,8,0,8,8,0,0,-8
"58",1,"RTH5-RTH6",0.53058391805,0.74658305805,0.78642525805,0.76946425805,0.56060899805,0.49966304605,0.44134126605,0.44447551805,0.38622941805,0.15643804905,0.58693158905,0.77676523605,2169,"DG_s11",-0.61,0,2.015,2.031,10,10,10,18,2.015,"Left",10,18,8,0,8,8,0,0,-8
"59",1,"LHH7-LHH8",0.3748788439,0.5724648639,0.4960868909,0.0665475329,0.0686609759,0.3893320369,0.4773717149,0.5406415119,0.5360566679,0.1310556379,0.0900537449,0.4032373249,2169,"DG_s11",-0.61,0,2.015,2.031,10,10,10,18,2.015,"Left",10,18,8,0,8,8,0,0,-8
"60",1,"LTH1-LTH2",0.503637429,0.300152327,0.320955162,0.275608216,0.1151713689,0.2043750331,0.1904635072,0.228318463,0.381409883,0.373889764,0.3081885153,0.3128439733,2169,"DG_s11",-0.61,0,2.015,2.031,10,10,10,18,2.015,"Left",10,18,8,0,8,8,0,0,-8
"61",1,"LOF6-LOF7",0.2079197195,-0.0432477285,-0.0211744795,-0.0337645785,-0.1123976955,-0.1842062485,-0.3260621315,-0.2920865295,-0.2209187228,-0.0852719068,0.0351810532,-0.1850370748,2169,"DG_s11",-0.61,0,2.015,2.031,10,10,10,18,2.015,"Left",10,18,8,0,8,8,0,0,-8
"62",1,"ROF4-ROF5",0.013003987,0.128189854,0.036588532,0.030025529,0.096382271,0.070657277,0.055842789,-0.000470461999999991,-0.152544524,-0.143976294,-0.218124592,-0.057830474,2169,"DG_s11",-0.61,0,2.015,2.031,10,10,10,18,2.015,"Left",10,18,8,0,8,8,0,0,-8
"63",1,"LIN3-LIN4",0.4326363695,0.5888186395,0.5747775895,0.4914773195,0.2399939695,0.2959199015,0.5672469415,0.3618808545,0.2446124665,0.3501465815,0.1485546335,-0.0508029065,2169,"DG_s11",-0.61,0,2.015,2.031,10,10,10,18,2.015,"Left",10,18,8,0,8,8,0,0,-8
"64",1,"ROF1-ROF2",0.199560737,0.2269182,-0.00674033700000001,0.0263272581,0.0060763781,0.05553517,0.0521339878,-0.0161695172,0.232757597,0.248289191,0.192884226,0.158212901,2169,"DG_s11",-0.61,0,2.015,2.031,10,10,10,18,2.015,"Left",10,18,8,0,8,8,0,0,-8
"65",1,"RIN7-RIN8",0.03792554045,0.17793182079,0.15898251779,0.14808904845,0.16857300045,0.08671463745,0.05230978845,0.09039161745,0.06928639745,0.16813446345,0.09956958945,0.12602209745,2169,"DG_s11",-0.61,0,2.015,2.031,10,10,10,18,2.015,"Left",10,18,8,0,8,8,0,0,-8
"66",1,"RHH5-RHH6",-0.00763820669999998,0.1029940473,-0.0915957921,-0.4322647421,-0.1610092467,0.0673988173,0.0391242773,-0.1039910907,-0.2919487407,-0.0119847567,0.0265383043,-0.2294771757,2169,"DG_s11",-0.61,0,2.015,2.031,10,10,10,18,2.015,"Left",10,18,8,0,8,8,0,0,-8
"67",2,"ROF2-ROF3",-0.009227918,-0.158238758,-0.03793276818,0.12903193882,-0.05105837,-0.144294396,0.031823902,0.280507271,0.377409598,0.136577546,-0.002979394,0.069451728,2170,"DG_s11",3.031,3.64,4.797,4.812,12,12,10,10,1.157,"Left",12,12,0,0,0,0,0,2,2
"68",2,"ROF4-ROF5",0.0039657769,0.0641467669,0.1394691834,0.2937844134,0.1677825464,-0.1855296053,-0.1050305653,-0.0501119006,0.0268128454,0.2262076324,0.1275277824,0.0096753124,2170,"DG_s11",3.031,3.64,4.797,4.812,12,12,10,10,1.157,"Left",12,12,0,0,0,0,0,2,2
"69",2,"RTH6-RTH7",0.0814213507,0.271467013,0.299463736,0.078820255,-0.139284238,-0.283698447,0.022752458,0.17105641,0.241391665,0.2590600436,0.1933482746,0.583650734,2170,"DG_s11",3.031,3.64,4.797,4.812,12,12,10,10,1.157,"Left",12,12,0,0,0,0,0,2,2
"70",2,"RAM2-RAM3",0.11805322625,0.08379834625,0.08199047825,0.02556794625,-0.09802566175,0.09530809865,0.30148636665,0.05099046825,0.00180404825,0.21909607925,0.23623246925,-0.00559866175000001,2170,"DG_s11",3.031,3.64,4.797,4.812,12,12,10,10,1.157,"Left",12,12,0,0,0,0,0,2,2
"71",2,"LIN6-LIN7",0.18250154765,0.15117927665,-0.11728937135,-0.06208363735,-0.09111447135,-0.17985699135,-0.21453813835,-0.16107757235,-0.09812811635,0.15863372765,0.13359216195,-0.25252559105,2170,"DG_s11",3.031,3.64,4.797,4.812,12,12,10,10,1.157,"Left",12,12,0,0,0,0,0,2,2
"72",2,"RAM3-RAM4",-0.1181150515,-0.1466245019,-0.1566789019,-0.1698165505,-0.1115507895,-0.0723056905,-0.0288824555,0.1412305835,0.2541932395,0.2713913205,0.1516047255,-0.0465125035,2170,"DG_s11",3.031,3.64,4.797,4.812,12,12,10,10,1.157,"Left",12,12,0,0,0,0,0,2,2
"73",2,"LIN5-LIN6",-0.019923029,-0.063980177,-0.161883686,-0.2781915295,-0.3300338365,-0.2405453123,-0.2137688233,-0.185224124,-0.072969957,0.051110494,0.025877755,-0.051609149,2170,"DG_s11",3.031,3.64,4.797,4.812,12,12,10,10,1.157,"Left",12,12,0,0,0,0,0,2,2
"74",2,"LAC9-LAC10",0.04448040315,-0.06946005285,-0.01932369385,-0.04883502785,0.14971629738,0.20108304738,0.24593517515,0.37781991515,0.29493241815,0.21369283815,0.09655875815,-0.04586593185,2170,"DG_s11",3.031,3.64,4.797,4.812,12,12,10,10,1.157,"Left",12,12,0,0,0,0,0,2,2
"75",2,"RIN8-RIN9",0.158007824,0.034663419,-0.117297901,-0.119335866,0.021358621,0.234886977,0.154314513,0.214833553,0.254527283,0.122328021,0.270447638,0.47274367,2170,"DG_s11",3.031,3.64,4.797,4.812,12,12,10,10,1.157,"Left",12,12,0,0,0,0,0,2,2
"76",2,"LPC6-LPC7",0.2311062325,0.3873391595,0.5437149995,0.7758649795,0.5433939581,0.141609735,0.1402743144,0.220380806,0.254664153,0.2521443745,0.1359733545,0.0981908475,2170,"DG_s11",3.031,3.64,4.797,4.812,12,12,10,10,1.157,"Left",12,12,0,0,0,0,0,2,2
"77",2,"ROF5-ROF6",-0.02953040135,0.02045135165,0.51918630165,0.58112344365,0.19626786365,0.31321490165,0.42833056165,0.28385306165,0.13830135865,0.17052506065,0.21356254065,-0.04202240135,2170,"DG_s11",3.031,3.64,4.797,4.812,12,12,10,10,1.157,"Left",12,12,0,0,0,0,0,2,2
"78",2,"LAC2-LAC3",0.15512538,0.123678567,-0.10918721,-0.038735757,0.244173308,0.394365888,0.102640272,0.049843622,0.209043549,0.189480013,0.026561747,-0.043164287,2170,"DG_s11",3.031,3.64,4.797,4.812,12,12,10,10,1.157,"Left",12,12,0,0,0,0,0,2,2
"79",2,"RAM1-RAM2",0.04273393955,0.00120030625,0.14689344315,0.08358159655,-0.15945141145,-0.05003771785,0.03658933515,-0.10082050585,-0.05950683725,0.25519195375,0.34924003345,0.08700367845,2170,"DG_s11",3.031,3.64,4.797,4.812,12,12,10,10,1.157,"Left",12,12,0,0,0,0,0,2,2
"80",2,"LIN9-LIN10",-0.00507833300000005,-0.012067243,-0.100370835,-0.215781555,-0.287504355,-0.148052555,-0.119257263,-0.00888465300000002,0.116235382,0.098577652,-0.019356711,-0.175807342,2170,"DG_s11",3.031,3.64,4.797,4.812,12,12,10,10,1.157,"Left",12,12,0,0,0,0,0,2,2
"81",2,"LOF5-LOF6",-0.13147835,-0.085094139,-0.147117632,-0.277858594,-0.209057351,-0.04580877,-0.079211544,-0.475585404,-0.517961609,-0.35283143,-0.219241364,-0.1353944931,2170,"DG_s11",3.031,3.64,4.797,4.812,12,12,10,10,1.157,"Left",12,12,0,0,0,0,0,2,2
"82",2,"LOF4-LOF5",-0.00342669099999998,-0.064329149,-0.215291692,-0.173207228,-0.13995959,-0.145228381,0.0642764281,-0.0296746989,-0.215855107,-0.231520412,0.049006449,0.135815581,2170,"DG_s11",3.031,3.64,4.797,4.812,12,12,10,10,1.157,"Left",12,12,0,0,0,0,0,2,2
"83",2,"RHH4-RHH5",0.1622355871,-0.0142704119,-0.1310111112,-0.1688497142,-0.270801156,-0.10280961,-0.117309769,-0.178943093,-0.116075519,-0.177690847,-0.261358181,-0.170407783,2170,"DG_s11",3.031,3.64,4.797,4.812,12,12,10,10,1.157,"Left",12,12,0,0,0,0,0,2,2
"84",2,"LPC1-LPC2",-0.1242292525,0.0376218795,-0.0873621514,-0.0682003424,0.0120649725,0.0655519245,0.0737781765,-0.1247385982,0.0163990638,-0.0115442335,-0.2366078025,-0.2386855785,2170,"DG_s11",3.031,3.64,4.797,4.812,12,12,10,10,1.157,"Left",12,12,0,0,0,0,0,2,2
"85",2,"LOF1-LOF2",0.2275713261,0.476525897,0.255761355,0.272313125,0.3579680023,0.2096062923,0.377512953,0.43330611,0.365181468,0.325349901,0.14105534,-0.00657109,2170,"DG_s11",3.031,3.64,4.797,4.812,12,12,10,10,1.157,"Left",12,12,0,0,0,0,0,2,2
"86",2,"LIN2-LIN3",-0.083821781,-0.018561118,0.099988665,0.0994965947,0.0222014731,0.0422825004,0.041210442,-0.072996963,0.002554022,0.124409803,0.182957148,0.105880627,2170,"DG_s11",3.031,3.64,4.797,4.812,12,12,10,10,1.157,"Left",12,12,0,0,0,0,0,2,2
"87",2,"ROF6-ROF7",0.0542531918,0.0419713838,0.3068271415,0.4078131715,0.0817326485,0.1784461485,0.2926581815,0.1173816315,0.0990446615,0.080162983,0.177132708,0.1569462035,2170,"DG_s11",3.031,3.64,4.797,4.812,12,12,10,10,1.157,"Left",12,12,0,0,0,0,0,2,2
"88",2,"RTH1-RTH2",0.16253898925,0.17295545925,-0.03103810375,0.01610778025,0.08066881725,0.07525176515,0.04477701775,0.30366414585,0.34823728225,0.07496428225,0.10629729565,0.26325623565,2170,"DG_s11",3.031,3.64,4.797,4.812,12,12,10,10,1.157,"Left",12,12,0,0,0,0,0,2,2
"89",2,"RIN7-RIN8",-0.1834111965,-0.3029365825,-0.2634764835,-0.1513679475,-0.1624942005,-0.0566494385,-0.00987752850000001,-0.2141712355,-0.2732832315,-0.0209007955,0.1906753342,0.1074499242,2170,"DG_s11",3.031,3.64,4.797,4.812,12,12,10,10,1.157,"Left",12,12,0,0,0,0,0,2,2
"90",2,"LAC8-LAC9",-0.0849177132,-0.1730354172,9.77067999999859e-05,-0.0062409192,-0.1251128142,-0.0630984592,0.0928738168,-0.1592089082,-0.2532162682,-0.1732434482,-0.2089124342,-0.2368754582,2170,"DG_s11",3.031,3.64,4.797,4.812,12,12,10,10,1.157,"Left",12,12,0,0,0,0,0,2,2
"91",2,"LAM3-LAM4",0.2184822975,0.1659318965,-0.0627105735,-0.0651377855,0.0878828535,0.1074108025,0.0372327365,-0.0129343095,-0.0587028733,0.0216265407,-0.0621054185,-0.1522632625,2170,"DG_s11",3.031,3.64,4.797,4.812,12,12,10,10,1.157,"Left",12,12,0,0,0,0,0,2,2
"92",2,"RIN6-RIN7",-0.2306880575,-0.1830740615,0.2549621025,0.3170345105,-0.0909990215,0.0391344705,0.2118848025,0.2896308825,0.3368060825,0.3942870555,0.3046654681,0.0353666851,2170,"DG_s11",3.031,3.64,4.797,4.812,12,12,10,10,1.157,"Left",12,12,0,0,0,0,0,2,2
"93",2,"LAC1-LAC2",0.279481312,0.160270976,-0.054083967,0.0859037422,0.1967104422,0.221154066,0.334227666,0.319360876,0.166004716,-0.060595954,-0.193357684,-0.078573984,2170,"DG_s11",3.031,3.64,4.797,4.812,12,12,10,10,1.157,"Left",12,12,0,0,0,0,0,2,2
"94",2,"RAM6-RAM7",-0.229185502,-0.136209612,-0.054944446,-0.132106657,-0.298153757,-0.348957668,-0.086232207,0.192582881,-0.04921053,-0.08736077,0.05599741,-0.171856764,2170,"DG_s11",3.031,3.64,4.797,4.812,12,12,10,10,1.157,"Left",12,12,0,0,0,0,0,2,2
"95",2,"LOF7-LOF8",0.15887033225,0.06378430325,0.17947118885,0.18701952385,0.01152870485,-0.01996706815,-0.05957485815,-0.14205008415,-0.08696463715,-0.04595893235,-0.10310818235,-0.04426116815,2170,"DG_s11",3.031,3.64,4.797,4.812,12,12,10,10,1.157,"Left",12,12,0,0,0,0,0,2,2
"96",2,"LAC3-LAC4",-0.0069077613,0.0637070297,0.0046441227,0.1394644457,0.3173104437,0.1942704289,0.000912235900000002,0.1318306177,0.1705015557,0.1950784417,0.0850208467,0.0020026197,2170,"DG_s11",3.031,3.64,4.797,4.812,12,12,10,10,1.157,"Left",12,12,0,0,0,0,0,2,2
"97",2,"RIN2-RIN3",-0.04986258405,-0.21649264105,-0.43823717805,-0.46747738005,-0.56618495405,-0.68752704505,-0.50876890505,-0.15097540505,-0.19400686505,-0.47549072805,-0.54690797665,-0.45049309665,2170,"DG_s11",3.031,3.64,4.797,4.812,12,12,10,10,1.157,"Left",12,12,0,0,0,0,0,2,2
"98",2,"RIN9-RIN10",0.05582431564,-0.14666176636,-0.17446133936,-0.00179933736000001,-0.09261045146,-0.32722929146,-0.34326761436,-0.26700901736,-0.18261680536,-0.31737715836,-0.31826247336,-0.08394064036,2170,"DG_s11",3.031,3.64,4.797,4.812,12,12,10,10,1.157,"Left",12,12,0,0,0,0,0,2,2
"99",2,"LAC6-LAC7",0.37546812495,0.30585887085,0.35888658015,0.47522466525,0.42336393595,0.27042173295,0.07685192795,-0.05837731105,0.11516394895,0.42254530695,0.37400654805,0.20041058805,2170,"DG_s11",3.031,3.64,4.797,4.812,12,12,10,10,1.157,"Left",12,12,0,0,0,0,0,2,2
"100",2,"LAC10-LAC11",-0.02792998083,-0.01004350583,-0.02484343383,-0.13037170683,0.10229925617,0.10797710417,-0.12159183683,-0.16491804283,-0.16155380883,-0.03914051183,-0.02547725683,-0.05731138283,2170,"DG_s11",3.031,3.64,4.797,4.812,12,12,10,10,1.157,"Left",12,12,0,0,0,0,0,2,2
"101",2,"ROF1-ROF2",0.06207157483,0.08554716983,0.12402508983,0.13073434383,-0.03651285017,-0.07875305617,-0.05832833317,-0.02405076117,-0.07506767417,0.17411883983,0.15140682683,0.03457593083,2170,"DG_s11",3.031,3.64,4.797,4.812,12,12,10,10,1.157,"Left",12,12,0,0,0,0,0,2,2
"102",2,"LOF6-LOF7",0.0872346045,-0.0564875455,-0.0902297285,-0.0503717345,0.0966819565,0.2154522325,0.0403358545,-0.2229294855,-0.2103120955,-0.0134959805,0.0464337475,-0.1056722175,2170,"DG_s11",3.031,3.64,4.797,4.812,12,12,10,10,1.157,"Left",12,12,0,0,0,0,0,2,2
"103",2,"LIN1-LIN2",-0.1008515098,-0.0037926745,0.0262452125,-0.1557425645,-0.1941824385,-0.1119789881,-0.0859081791,-0.0545039245,-0.1946911835,-0.1808908145,-0.0621958605,-0.1624001425,2170,"DG_s11",3.031,3.64,4.797,4.812,12,12,10,10,1.157,"Left",12,12,0,0,0,0,0,2,2
"104",2,"LAM1-LAM2",-0.0924067793,-0.0760652729,-0.1601245406,-0.043012577,0.104586794,-0.081654002,-0.091602692,0.00841931700000001,-0.114826197,-0.1240402872,-0.2809151332,-0.323103875,2170,"DG_s11",3.031,3.64,4.797,4.812,12,12,10,10,1.157,"Left",12,12,0,0,0,0,0,2,2
"105",2,"RIN3-RIN4",-0.170348719,-0.1210263911,-0.2288391341,-0.369540173,-0.398583747,-0.395834931,-0.21266221,-0.213010214,-0.028596147,0.143790533,-0.084915369,-0.095123539,2170,"DG_s11",3.031,3.64,4.797,4.812,12,12,10,10,1.157,"Left",12,12,0,0,0,0,0,2,2
"106",2,"LPC8-LPC9",-0.0381550215,-0.0539383625,0.0451110175,-0.1582054715,-0.3788432415,-0.0499854715,0.0386599845,-0.2713922775,-0.2488007535,-0.0936020815,-0.1010911815,-0.0270284715,2170,"DG_s11",3.031,3.64,4.797,4.812,12,12,10,10,1.157,"Left",12,12,0,0,0,0,0,2,2
"107",2,"LIN7-LIN8",0.1521496942,0.1817928542,0.1578592297,0.0452424587,0.0387944962,0.1659504652,0.1100126422,-0.1595232058,-0.1097868558,0.0515309442,0.0809490054,-0.1289565246,2170,"DG_s11",3.031,3.64,4.797,4.812,12,12,10,10,1.157,"Left",12,12,0,0,0,0,0,2,2
"108",2,"ROF3-ROF4",-0.00517716085,0.13239398915,0.11088541615,0.01245838215,0.02887818605,0.17237450105,0.18701792515,0.03130706715,0.06376386215,0.11881016115,0.04692382915,-0.01043034285,2170,"DG_s11",3.031,3.64,4.797,4.812,12,12,10,10,1.157,"Left",12,12,0,0,0,0,0,2,2
"109",2,"LTH1-LTH2",0.28990581635,0.15880272635,0.02132031935,0.02288256935,0.00197959935,-0.02952531165,0.07438109335,0.04725276135,0.01593880635,0.07591799735,0.10975735235,0.13698865595,2170,"DG_s11",3.031,3.64,4.797,4.812,12,12,10,10,1.157,"Left",12,12,0,0,0,0,0,2,2
"110",2,"LPC7-LPC8",0.120434048575,0.360506077575,0.589971673575,0.451380262575,0.187650289575,0.068972853575,0.047515616575,0.038910562575,0.081638482575,0.196096673575,0.127818051575,0.074648133575,2170,"DG_s11",3.031,3.64,4.797,4.812,12,12,10,10,1.157,"Left",12,12,0,0,0,0,0,2,2
"111",2,"LIN3-LIN4",0.321979937,0.2056278293,0.0327946553,0.018011626,0.08573849,-0.036445427,-0.044974528,-0.007184452,0.222538545,0.578685156,0.348496015,-0.169925485,2170,"DG_s11",3.031,3.64,4.797,4.812,12,12,10,10,1.157,"Left",12,12,0,0,0,0,0,2,2
"112",2,"RTH7-RTH8",0.12564664,0.0699562248,-0.0094286232,0.003126602,0.199367311,0.169586019,-0.048983141,0.165646226,0.275292376,0.263685208,0.364802728,0.281705179,2170,"DG_s11",3.031,3.64,4.797,4.812,12,12,10,10,1.157,"Left",12,12,0,0,0,0,0,2,2
"113",2,"LIN8-LIN9",0.106144797,0.115473501,-0.0876801218,-0.1690433538,-0.095780451,0.033479128,0.010476589,-0.124115343,-0.193551104,-0.055146698,0.034197162,-0.029674601,2170,"DG_s11",3.031,3.64,4.797,4.812,12,12,10,10,1.157,"Left",12,12,0,0,0,0,0,2,2
"114",2,"LIN4-LIN5",-0.13054807125,-0.21221524125,-0.26812775125,-0.17915217625,-0.13637910725,-0.17893923595,-0.14347702741,-0.13148969371,-0.13835873505,-0.00468172505,0.20417758875,0.14930398075,2170,"DG_s11",3.031,3.64,4.797,4.812,12,12,10,10,1.157,"Left",12,12,0,0,0,0,0,2,2
"115",2,"LOF3-LOF4",0.1795394299,0.0208253019,-0.1682632101,-0.0512246661,0.0432766849,0.1044237839,0.2273659209,-0.0054839991,-0.0272329371,0.2685869529,0.2344922519,0.0777574779,2170,"DG_s11",3.031,3.64,4.797,4.812,12,12,10,10,1.157,"Left",12,12,0,0,0,0,0,2,2
"116",2,"LHH5-LHH6",-0.28580149285,-0.20473357085,-0.26510355745,-0.30920820345,-0.33494195945,-0.51394686145,-0.45536009445,-0.47836898645,-0.19294232345,-0.06360687545,-0.20406425445,-0.08035018045,2170,"DG_s11",3.031,3.64,4.797,4.812,12,12,10,10,1.157,"Left",12,12,0,0,0,0,0,2,2
"117",2,"RAM5-RAM6",-0.024585287,-0.07564604,-0.11419434,-0.085173027,-0.301010587,-0.3293152035,-0.0889022535,-0.071870508,-0.27408576182,-0.05940403082,0.024259733,-0.150116842,2170,"DG_s11",3.031,3.64,4.797,4.812,12,12,10,10,1.157,"Left",12,12,0,0,0,0,0,2,2
"118",2,"LTH6-LTH7",0.1868307595,0.3335783635,0.2108726305,-0.0026221823,0.00355561370000001,0.0129537325,0.1632342255,0.0566549185,0.0010859415,-0.0469112615,-0.1759762785,-0.1840545185,2170,"DG_s11",3.031,3.64,4.797,4.812,12,12,10,10,1.157,"Left",12,12,0,0,0,0,0,2,2
"119",2,"LOF2-LOF3",0.0517430487,0.2892064317,0.3406171967,0.4323018967,0.4176328507,0.3977995907,0.5552442667,0.5162526067,0.4498441277,0.2802570107,-3.38135000000003e-05,-0.1238416365,2170,"DG_s11",3.031,3.64,4.797,4.812,12,12,10,10,1.157,"Left",12,12,0,0,0,0,0,2,2
"120",2,"LTH7-LTH8",0.23614849651,0.38265426381,0.23946571381,0.05207911091,0.02459460691,-0.04189209719,0.13997704581,0.16309699981,-0.07658218019,-0.14844404119,-0.03576507019,0.36014517481,2170,"DG_s11",3.031,3.64,4.797,4.812,12,12,10,10,1.157,"Left",12,12,0,0,0,0,0,2,2
"121",2,"RTH5-RTH6",0.199258317,0.223680013,0.065989731,-0.063591567,0.045245808,0.041612758,0.023603112,0.0062482464,-0.000619272849999998,-0.02602063725,0.260570186,0.834341257,2170,"DG_s11",3.031,3.64,4.797,4.812,12,12,10,10,1.157,"Left",12,12,0,0,0,0,0,2,2
"122",2,"LPC5-LPC6",0.3518973314,0.6926394904,0.6165402004,0.5189541404,0.4463988904,0.2354075974,0.2972417094,0.2684140184,0.2093796824,0.4646294564,0.4265249154,0.1591920654,2170,"DG_s11",3.031,3.64,4.797,4.812,12,12,10,10,1.157,"Left",12,12,0,0,0,0,0,2,2
"123",2,"RIN1-RIN2",-0.168879427,-0.196645712,-0.2821950781,-0.0185499711,0.1611723711,0.00362749309999999,-0.150321906,-0.245400428,-0.404249185,-0.181546035,0.157544785,0.047425286,2170,"DG_s11",3.031,3.64,4.797,4.812,12,12,10,10,1.157,"Left",12,12,0,0,0,0,0,2,2
"124",2,"RIN5-RIN6",-0.0907729132,-0.1079466325,0.2438652725,0.3869200415,0.0969818695,0.1025018835,0.1494432031,0.2273229481,0.3110275005,0.2412439905,0.1521312805,-0.0421717532,2170,"DG_s11",3.031,3.64,4.797,4.812,12,12,10,10,1.157,"Left",12,12,0,0,0,0,0,2,2
"125",2,"RHH5-RHH6",-0.0757282645,-0.1459931215,-0.1120819025,-0.0961486745,-0.1151467045,-0.1300173775,0.1568694675,0.2511491645,0.00371405749999999,-0.0754357135,0.00203049349999999,0.0341099185,2170,"DG_s11",3.031,3.64,4.797,4.812,12,12,10,10,1.157,"Left",12,12,0,0,0,0,0,2,2
"126",2,"LAC7-LAC8",-0.03187035075,-0.04337529075,0.09688603525,0.13367015525,0.29673030525,0.32152730525,0.07818286025,-0.10395105075,-0.01780533575,-0.12668677075,-0.07282772675,0.05964578325,2170,"DG_s11",3.031,3.64,4.797,4.812,12,12,10,10,1.157,"Left",12,12,0,0,0,0,0,2,2
"127",2,"LAM2-LAM3",-0.10717928125,-0.10921501113,-0.14995831913,-0.18246776335,-0.13087985035,0.07073358265,0.31779760365,0.10272975365,-0.08806440235,0.11420121465,-0.02972546535,-0.17734974435,2170,"DG_s11",3.031,3.64,4.797,4.812,12,12,10,10,1.157,"Left",12,12,0,0,0,0,0,2,2
"128",2,"LHH7-LHH8",-0.0722570938,0.0055140702,-0.0678683868,0.0389936062,0.1743153852,0.3754147352,0.3259894952,-0.0362732468,-0.2119719038,-0.1484080971,0.0212995479,0.05929276322,2170,"DG_s11",3.031,3.64,4.797,4.812,12,12,10,10,1.157,"Left",12,12,0,0,0,0,0,2,2
"129",2,"LTH5-LTH6",-0.023900429,-0.018920409,-0.005435316,-0.000597562000000003,0.0153928208,0.0939558688,0.028697912,-0.0747302328,-0.0514785898,-0.082438817,-0.086713836,-0.116624141,2170,"DG_s11",3.031,3.64,4.797,4.812,12,12,10,10,1.157,"Left",12,12,0,0,0,0,0,2,2
"130",2,"LHH6-LHH7",-0.2080113705,-0.2494900905,-0.2590483645,-0.2531943515,-0.1940080085,0.1024444535,0.1481564395,-0.0328986815,0.1178832135,0.0111932745,-0.3348131255,-0.1514297096,2170,"DG_s11",3.031,3.64,4.797,4.812,12,12,10,10,1.157,"Left",12,12,0,0,0,0,0,2,2
"131",2,"LTH8-LTH9",0.3365197575,0.0293000455,-0.0979664085,-0.0191158145,-0.0803788905,-0.1301907735,0.0432014715,0.1720393015,0.1031856325,-0.0731394455,-0.0610492809,0.3674410211,2170,"DG_s11",3.031,3.64,4.797,4.812,12,12,10,10,1.157,"Left",12,12,0,0,0,0,0,2,2
"132",2,"RTH4-RTH5",0.29434171,0.193095801,0.200599934,0.184152677,0.119145964,0.0951156287,-0.0960041883,-0.122476221,-0.026639065,-0.201164131,-0.003488497,0.386987822,2170,"DG_s11",3.031,3.64,4.797,4.812,12,12,10,10,1.157,"Left",12,12,0,0,0,0,0,2,2
"133",3,"LOF6-LOF7",0.0729826728,0.1475625228,0.2413589968,0.2831259588,0.2392802748,0.2451310748,0.3625059481,0.1466010461,-0.0483632362,0.0324579358,0.1016869758,0.1044579058,2171,"DG_s11",5.812,6.422,7.89,7.89,10,10,8,8,1.468,"Left",8,8,0,0,0,0,0,2,2
"134",3,"RIN5-RIN6",-0.2367130025,-0.2839625565,-0.3989445255,-0.0948390415,0.0540838635,-0.0947866115,-0.1575111735,0.1368342015,0.2017262075,-0.0618293815,0.0177624635,-0.0459951075,2171,"DG_s11",5.812,6.422,7.89,7.89,10,10,8,8,1.468,"Left",8,8,0,0,0,0,0,2,2
"135",3,"LHH7-LHH8",-0.16121990105,-0.25812272405,-0.11469351405,0.12029617895,-0.08644464205,-0.27432044705,-0.21315784105,0.07385624295,0.20372018495,-0.12351932105,-0.20090505285,-0.14326794685,2171,"DG_s11",5.812,6.422,7.89,7.89,10,10,8,8,1.468,"Left",8,8,0,0,0,0,0,2,2
"136",3,"LIN1-LIN2",0.035511705055,0.092338742055,0.094683987255,0.034896863255,-0.050863460745,0.049963395255,0.076409627255,0.012330542255,0.108779479255,0.095197403255,0.155402993255,0.253399269255,2171,"DG_s11",5.812,6.422,7.89,7.89,10,10,8,8,1.468,"Left",8,8,0,0,0,0,0,2,2
"137",3,"LPC7-LPC8",0.38388209925,0.33438715525,0.21541473985,0.19854723017,0.23505994557,0.32438069525,0.40832487225,0.47871107225,0.38044990684,0.03209530684,0.00291388525,0.35732165525,2171,"DG_s11",5.812,6.422,7.89,7.89,10,10,8,8,1.468,"Left",8,8,0,0,0,0,0,2,2
"138",3,"LPC6-LPC7",0.274650272,0.2435799663,0.2078581263,0.146385208,0.1033092,0.239509052,0.25463616,0.29207793,0.3338111,0.24365346,0.09337841,0.1943732,2171,"DG_s11",5.812,6.422,7.89,7.89,10,10,8,8,1.468,"Left",8,8,0,0,0,0,0,2,2
"139",3,"LOF2-LOF3",0.265026134,0.283140576,0.402127364,0.263337171,0.046941973,0.144564465,0.1367553927,-0.0139419486,0.1940755217,0.348478422,0.1005784078,-0.1122332872,2171,"DG_s11",5.812,6.422,7.89,7.89,10,10,8,8,1.468,"Left",8,8,0,0,0,0,0,2,2
"140",3,"LOF7-LOF8",-0.1517979972,-0.1406940235,-0.0802492435,0.0689461535,0.0909611095,-0.0727329895,0.0601845565,0.1505536146,0.0510765946,-0.1134774945,-0.3262783465,-0.2592299945,2171,"DG_s11",5.812,6.422,7.89,7.89,10,10,8,8,1.468,"Left",8,8,0,0,0,0,0,2,2
"141",3,"LHH5-LHH6",0.21383384135,0.54564368135,0.56394590935,0.25127940235,0.05890567435,-0.04140219165,0.04916306735,0.07559090635,0.09818407035,0.09604795335,0.15783900835,0.25018048335,2171,"DG_s11",5.812,6.422,7.89,7.89,10,10,8,8,1.468,"Left",8,8,0,0,0,0,0,2,2
"142",3,"RTH6-RTH7",-0.0458471623,0.0263522047,-0.0962763853,-0.1844785254,-0.0298900894,0.0855418677,0.1563146307,0.1636340007,0.2910829917,0.2704747307,0.1623969076,0.3633466486,2171,"DG_s11",5.812,6.422,7.89,7.89,10,10,8,8,1.468,"Left",8,8,0,0,0,0,0,2,2
"143",3,"LIN6-LIN7",-0.08582654975,-0.08780973675,-0.13316936875,-0.09164053675,-0.06591502675,-0.11226960475,-0.07516960475,-0.15856748875,-0.34910641275,-0.13066384275,-0.09717961275,-0.18645980375,2171,"DG_s11",5.812,6.422,7.89,7.89,10,10,8,8,1.468,"Left",8,8,0,0,0,0,0,2,2
"144",3,"LIN8-LIN9",0.11970372615,0.01166287315,0.02038747545,0.06558498545,0.10352246485,0.08624257185,0.00438588145,0.12617008145,0.24929106845,0.09156046345,0.03429386775,0.20737869275,2171,"DG_s11",5.812,6.422,7.89,7.89,10,10,8,8,1.468,"Left",8,8,0,0,0,0,0,2,2
"145",3,"RTH1-RTH2",0.402226511,0.191471944,-0.026230876,-0.189851339,-0.138767919,-0.089526958,-0.1624854411,-0.2052110481,0.136394185,0.271897875,-0.007860247,0.736557987,2171,"DG_s11",5.812,6.422,7.89,7.89,10,10,8,8,1.468,"Left",8,8,0,0,0,0,0,2,2
"146",3,"LAC1-LAC2",-0.198723244,0.046748765,0.188605522,0.0751153296,-0.0399094794,-0.111827776,-0.024388271,0.168631718,0.157046939,0.017691294,-0.09744280815,-0.26453164955,2171,"DG_s11",5.812,6.422,7.89,7.89,10,10,8,8,1.468,"Left",8,8,0,0,0,0,0,2,2
"147",3,"LAM1-LAM2",-0.2429575765,-0.0532092495,0.0897281105,0.1003911255,0.0776968945,-0.1325583655,-0.0593217635,0.1122455535,0.1586950875,0.0675267605,0.1083541055,0.1685426775,2171,"DG_s11",5.812,6.422,7.89,7.89,10,10,8,8,1.468,"Left",8,8,0,0,0,0,0,2,2
"148",3,"LAC3-LAC4",0.0986911135,0.0816716384,0.1280363164,0.203538454,0.169434478,-0.0332189035,-0.1203022895,-0.1076726045,-0.1500980635,-0.2806150495,-0.2494161318,-0.0942711618,2171,"DG_s11",5.812,6.422,7.89,7.89,10,10,8,8,1.468,"Left",8,8,0,0,0,0,0,2,2
"149",3,"LOF4-LOF5",-0.11707607425,-0.04124525325,-0.07901285275,-0.07163068375,-0.01543291855,0.01496304345,0.14870063345,0.25214726245,0.25823102345,0.21925337345,0.11215194845,0.12155405145,2171,"DG_s11",5.812,6.422,7.89,7.89,10,10,8,8,1.468,"Left",8,8,0,0,0,0,0,2,2
"150",3,"RTH5-RTH6",-0.0750321077,0.0079461133,0.072663856,0.000985262000000004,0.032824124,0.110842544,0.0364947754,0.0143822151,0.2083721717,0.353328245,0.429964945,0.498842115,2171,"DG_s11",5.812,6.422,7.89,7.89,10,10,8,8,1.468,"Left",8,8,0,0,0,0,0,2,2
"151",3,"LTH6-LTH7",-0.118455717,-0.0949822965,0.0461739775,0.381181621,0.40755769599,-0.04020811771,-0.0734734647,0.24784882,0.2400836391,0.0842931671,0.0365478637,-0.0617085753,2171,"DG_s11",5.812,6.422,7.89,7.89,10,10,8,8,1.468,"Left",8,8,0,0,0,0,0,2,2
"152",3,"LAM2-LAM3",-0.14627445425,-0.06270772585,-0.0606091811,0.0798003329,0.1154331419,0.0041627952,0.0089370611,-0.0390284339,0.0185750712,0.0665155501,0.1829746501,0.2553323529,2171,"DG_s11",5.812,6.422,7.89,7.89,10,10,8,8,1.468,"Left",8,8,0,0,0,0,0,2,2
"153",3,"LAC9-LAC10",0.4329037595,0.4481618585,0.2876335386,0.2556556756,0.3520221415,0.2864539625,0.1842081825,0.1414676832,0.0334037984,-0.0187343443,-0.0405105195,-0.1201598585,2171,"DG_s11",5.812,6.422,7.89,7.89,10,10,8,8,1.468,"Left",8,8,0,0,0,0,0,2,2
"154",3,"LTH1-LTH2",0.0133178812,0.0913005072,0.1443624932,-0.0512423017,-0.1271896077,-0.0603157648,0.0654756182,0.1256169422,-0.0232395498,-0.0684017868,0.0267055052,0.0694725439,2171,"DG_s11",5.812,6.422,7.89,7.89,10,10,8,8,1.468,"Left",8,8,0,0,0,0,0,2,2
"155",3,"LHH6-LHH7",0.4455947451,0.3718177151,0.3039553004,0.1352529854,-0.056262225,-0.16927746,-0.104795512,0.207705758,0.41228378,0.172289611,-0.054848481,-0.089106304,2171,"DG_s11",5.812,6.422,7.89,7.89,10,10,8,8,1.468,"Left",8,8,0,0,0,0,0,2,2
"156",3,"LIN4-LIN5",-0.2505447067,-0.2832802167,-0.232633105,-0.118029231,-0.299903325,-0.511118694,-0.219669995,-0.135318637,-0.232597317,-0.19076274,-0.188736781,-0.103219165,2171,"DG_s11",5.812,6.422,7.89,7.89,10,10,8,8,1.468,"Left",8,8,0,0,0,0,0,2,2
"157",3,"LAC8-LAC9",0.28454453645,0.46675299255,0.30237163255,0.28657767275,0.35803593275,0.33077114375,0.30087915375,0.32709879945,0.21633430345,0.14648123475,0.07989905175,-0.04144156125,2171,"DG_s11",5.812,6.422,7.89,7.89,10,10,8,8,1.468,"Left",8,8,0,0,0,0,0,2,2
"158",3,"ROF1-ROF2",0.103749907,0.4228789525,0.1408336285,-0.0222905995,0.2393079915,0.0850128205,0.0492867435,0.1844609425,-0.0965911575,-0.2823886295,-0.1275469645,0.0310863875,2171,"DG_s11",5.812,6.422,7.89,7.89,10,10,8,8,1.468,"Left",8,8,0,0,0,0,0,2,2
"159",3,"RIN6-RIN7",-0.09786438659,-0.15579110159,-0.18357878529,-0.03660679029,0.02459156561,-0.12769493059,-0.12184090979,0.09854071141,0.13639479141,0.06151860241,0.09695947941,0.08282508641,2171,"DG_s11",5.812,6.422,7.89,7.89,10,10,8,8,1.468,"Left",8,8,0,0,0,0,0,2,2
"160",3,"LIN5-LIN6",-0.159410247,-0.182063446,-0.269647334,-0.08027714,-0.190666472,-0.35256863,-0.06630356,-0.0647960858,-0.3249375568,-0.272103491,-0.2150600787,-0.2835736537,2171,"DG_s11",5.812,6.422,7.89,7.89,10,10,8,8,1.468,"Left",8,8,0,0,0,0,0,2,2
"161",3,"LIN7-LIN8",0.2076354804,-0.0931485996,-0.184448196,0.021465794,0.071498134,-0.157764116,-0.125529511,0.016993174,0.015979641,-0.043084852,-0.009282401,0.084377902,2171,"DG_s11",5.812,6.422,7.89,7.89,10,10,8,8,1.468,"Left",8,8,0,0,0,0,0,2,2
"162",3,"ROF2-ROF3",-0.0149870857,-0.154691094,-0.253933069,-0.2490381677,-0.1469936277,-0.1946964007,-0.0724543127,0.1393381563,-0.0788338387,-0.1335623087,0.1064749763,0.00722094557,2171,"DG_s11",5.812,6.422,7.89,7.89,10,10,8,8,1.468,"Left",8,8,0,0,0,0,0,2,2
"163",3,"RTH7-RTH8",0.2551964395,0.2004198995,0.1034454275,0.00272065749999999,0.0472189375,0.0676523641,-0.0244956581,-0.0371677807,0.2105132605,0.2180247195,0.0769499455,0.0870676495,2171,"DG_s11",5.812,6.422,7.89,7.89,10,10,8,8,1.468,"Left",8,8,0,0,0,0,0,2,2
"164",3,"RTH4-RTH5",0.1415529565,-0.0220211055,0.0536358015,-0.0659202095,-0.2281404015,0.0106092665,0.0700059125,-0.0475722915,0.0557105975,0.1391277685,0.2152473985,0.3697825235,2171,"DG_s11",5.812,6.422,7.89,7.89,10,10,8,8,1.468,"Left",8,8,0,0,0,0,0,2,2
"165",3,"ROF4-ROF5",0.276177429,-0.023973688,-0.022430136,-0.0096538431,0.3444791049,0.434936406,0.035633166,0.14094726,-0.03129826,-0.321382048,-0.370504888,-0.3346140738,2171,"DG_s11",5.812,6.422,7.89,7.89,10,10,8,8,1.468,"Left",8,8,0,0,0,0,0,2,2
"166",3,"RIN9-RIN10",0.46654138265,0.35033274665,0.25170666965,0.13890056265,0.08906021965,0.24780425265,0.38644608745,0.22752942945,0.05237432765,0.19485230765,0.25789957465,0.16503489865,2171,"DG_s11",5.812,6.422,7.89,7.89,10,10,8,8,1.468,"Left",8,8,0,0,0,0,0,2,2
"167",3,"LAC2-LAC3",0.0013374399,-0.1887319801,-0.134636202,0.088119587,-0.014137081,-0.10290292,-0.12879785,-0.140042973,0.001115742,-0.117558815,-0.173030136,0.070693444,2171,"DG_s11",5.812,6.422,7.89,7.89,10,10,8,8,1.468,"Left",8,8,0,0,0,0,0,2,2
"168",3,"ROF3-ROF4",-0.01795301904,0.17562184096,0.27846429096,0.19411869696,-0.13582419304,-0.08074705904,0.16347974596,0.11133398536,0.08654160736,-0.02377272328,-0.12134102728,-0.03246807804,2171,"DG_s11",5.812,6.422,7.89,7.89,10,10,8,8,1.468,"Left",8,8,0,0,0,0,0,2,2
"169",3,"LOF5-LOF6",0.1154902345,-0.0357558065,-0.0652066468,-0.0024582268,-0.0319733955,0.0816160255,0.3919154435,0.1866132945,-0.0509109495,0.2638166595,0.3319289695,0.1659323285,2171,"DG_s11",5.812,6.422,7.89,7.89,10,10,8,8,1.468,"Left",8,8,0,0,0,0,0,2,2
"170",3,"ROF6-ROF7",0.34282351995,0.16877424095,0.37961012685,0.52433267685,0.48305707785,0.39273022925,0.27259816111,0.47240720971,0.46601558685,0.13528847685,0.02772128385,0.12456726885,2171,"DG_s11",5.812,6.422,7.89,7.89,10,10,8,8,1.468,"Left",8,8,0,0,0,0,0,2,2
"171",3,"RAM6-RAM7",0.44034967296,0.43497643496,-0.03923657504,-0.25244038504,-0.19977665804,-0.0167429979,-0.0395408329,-0.05114212304,0.07651065496,0.05697958296,-0.16147604704,-0.08559637504,2171,"DG_s11",5.812,6.422,7.89,7.89,10,10,8,8,1.468,"Left",8,8,0,0,0,0,0,2,2
"172",3,"LOF3-LOF4",0.236575384,0.126803125,0.183838829,0.112709646,-0.01557448181,-0.03083351281,0.151905051,0.087572591,-0.033885265,-0.055274635,-0.087938611,0.167450788,2171,"DG_s11",5.812,6.422,7.89,7.89,10,10,8,8,1.468,"Left",8,8,0,0,0,0,0,2,2
"173",3,"LAM3-LAM4",-0.0996047579,-0.0365969689,-0.0833461139,0.1500827321,0.2711914521,0.0042963541,0.1285446851,-0.0105758169,-0.2716053739,-0.2375175289,-0.1357912069,0.1383657481,2171,"DG_s11",5.812,6.422,7.89,7.89,10,10,8,8,1.468,"Left",8,8,0,0,0,0,0,2,2
"174",3,"ROF5-ROF6",0.018728153,0.08489366,0.310287327,0.239722916,0.161607516,0.340098325,0.178930605,-0.029946235,-0.1078630291,0.0300126909,0.131358627,0.092602963,2171,"DG_s11",5.812,6.422,7.89,7.89,10,10,8,8,1.468,"Left",8,8,0,0,0,0,0,2,2
"175",3,"LOF1-LOF2",0.1923762104,0.0576328744,0.1110945194,0.2541936394,0.10097303201,-0.12701703499,-0.2385331356,-0.3128713486,-0.2765554936,-0.2049053331,-0.2192772621,-0.1822644996,2171,"DG_s11",5.812,6.422,7.89,7.89,10,10,8,8,1.468,"Left",8,8,0,0,0,0,0,2,2
"176",3,"RAM5-RAM6",-0.000435495000000001,0.455736895,0.453045307,0.1971629824,0.1106385054,0.125802951,0.241995236,0.223967915,0.291908069,0.081235349,-0.197364667,0.033017992,2171,"DG_s11",5.812,6.422,7.89,7.89,10,10,8,8,1.468,"Left",8,8,0,0,0,0,0,2,2
"177",3,"RAM3-RAM4",0.1272604611,0.25435233165,0.27567959355,0.02943762515,-0.05599727495,-0.03743675995,0.14243905825,0.31436434825,0.35122235825,0.23398553825,0.10397951825,0.39711945825,2171,"DG_s11",5.812,6.422,7.89,7.89,10,10,8,8,1.468,"Left",8,8,0,0,0,0,0,2,2
"178",3,"RAM2-RAM3",0.17058264557,0.2020357696,0.1389858088,-0.000641111899999998,-0.0726801911,-0.1078522354,-0.0940594844,0.3680054256,0.6910413926,0.3854216826,0.2578364136,1.3180884436,2171,"DG_s11",5.812,6.422,7.89,7.89,10,10,8,8,1.468,"Left",8,8,0,0,0,0,0,2,2
"179",3,"LAC6-LAC7",0.151900664,0.009393542,0.329409659,0.5363821248,0.32077780913,0.07573970723,0.3184129729,0.445076403,0.038850303,-0.091887291,-0.014749562,-0.011516256,2171,"DG_s11",5.812,6.422,7.89,7.89,10,10,8,8,1.468,"Left",8,8,0,0,0,0,0,2,2
"180",3,"LTH5-LTH6",-0.0362503459,0.0400392971,0.142896517,0.661655417,0.676980604,0.033062415,-0.0945504593,0.0911375817,0.119566713,-0.168408139,-0.089774416,0.088750284,2171,"DG_s11",5.812,6.422,7.89,7.89,10,10,8,8,1.468,"Left",8,8,0,0,0,0,0,2,2
"181",3,"RAM1-RAM2",1.15490965945,0.54272446445,0.02890936445,-0.21848636055,-0.25287166055,-0.32812936055,-0.36522154055,-0.12431468755,0.13595738145,0.08900814845,0.34128539945,1.46924869945,2171,"DG_s11",5.812,6.422,7.89,7.89,10,10,8,8,1.468,"Left",8,8,0,0,0,0,0,2,2
"182",3,"RIN7-RIN8",-0.2350568541,-0.2964380961,-0.1928176291,0.0329331969,-0.0279818591,-0.0370821491,0.0792101919,-0.00893442009999999,0.0445207029,0.1883947069,0.3087118219,0.2901392199,2171,"DG_s11",5.812,6.422,7.89,7.89,10,10,8,8,1.468,"Left",8,8,0,0,0,0,0,2,2
"183",3,"RHH4-RHH5",-0.06727531785,0.14863871215,0.30370904315,0.18837567515,0.12675432115,0.16828258815,0.23576929215,0.38435417315,0.35580816615,0.26461850615,0.15305948415,0.15571263515,2171,"DG_s11",5.812,6.422,7.89,7.89,10,10,8,8,1.468,"Left",8,8,0,0,0,0,0,2,2
"184",3,"RIN2-RIN3",0.3761786179,0.33521440989,0.26647184789,0.3147087859,0.15210069195,0.06503231895,0.1215830588,0.10542654934,0.21929312544,0.1920434853,0.1008849943,0.2886718449,2171,"DG_s11",5.812,6.422,7.89,7.89,10,10,8,8,1.468,"Left",8,8,0,0,0,0,0,2,2
"185",3,"LIN3-LIN4",-0.08028494595,0.03638314905,-0.11999556595,-0.10046108595,-0.00534392465,0.01452229935,0.17086914205,0.27469480505,0.35130133105,0.19928486805,0.11463375805,0.34009986805,2171,"DG_s11",5.812,6.422,7.89,7.89,10,10,8,8,1.468,"Left",8,8,0,0,0,0,0,2,2
"186",3,"LAC10-LAC11",-0.22736951055,-0.38266861955,-0.3758513025,-0.3485320205,-0.4818112325,-0.3923281735,-0.2831983825,-0.4170995315,-0.4812662695,-0.3217885345,-0.1240800465,-0.2149554635,2171,"DG_s11",5.812,6.422,7.89,7.89,10,10,8,8,1.468,"Left",8,8,0,0,0,0,0,2,2
"187",3,"LIN9-LIN10",-0.1305243695,0.0670868855,0.22809582771,0.07256432671,-0.0135146925,-0.00966966350000001,0.1220987165,0.0975886295,0.00332420549999998,-0.0367197885,0.0290703355,0.1344689765,2171,"DG_s11",5.812,6.422,7.89,7.89,10,10,8,8,1.468,"Left",8,8,0,0,0,0,0,2,2
"188",3,"LTH8-LTH9",-0.0545154695,0.0203975705,0.0612969555,-0.0871297055,-0.1979911357,-0.0791854037,0.0910805785,0.1777728075,0.2166898675,0.1772404965,0.2437774265,0.2144607175,2171,"DG_s11",5.812,6.422,7.89,7.89,10,10,8,8,1.468,"Left",8,8,0,0,0,0,0,2,2
"189",3,"LTH7-LTH8",-0.0530582205,-0.0862346475,-0.1262054285,-0.2198103845,-0.2277305835,-0.1749423605,-0.0532414995,0.1616359375,0.0943254275,-0.0952464655,-0.1021094535,-0.00874454650000001,2171,"DG_s11",5.812,6.422,7.89,7.89,10,10,8,8,1.468,"Left",8,8,0,0,0,0,0,2,2
"190",3,"LPC8-LPC9",-0.1003095414,-0.0464258644,-0.0252260764,0.1278338936,0.1253968706,-0.0200465024,0.1753937806,0.2537313826,0.0221146656,0.0965937666,0.3448003136,0.1566927616,2171,"DG_s11",5.812,6.422,7.89,7.89,10,10,8,8,1.468,"Left",8,8,0,0,0,0,0,2,2
"191",3,"LIN2-LIN3",-0.145130849,-0.176689474,0.108482059,0.268418239,0.117497973,0.13849108739,0.09876946849,0.1435675301,0.245391165,0.147960084,0.2889516213,0.4591113123,2171,"DG_s11",5.812,6.422,7.89,7.89,10,10,8,8,1.468,"Left",8,8,0,0,0,0,0,2,2
"192",3,"RIN8-RIN9",0.063901363745,0.035170874245,-0.072161285355,0.041170570645,0.132335787845,0.113235737845,0.205275025845,-0.026355205845,-0.181063314845,-0.123048594155,0.044507518845,0.224900299845,2171,"DG_s11",5.812,6.422,7.89,7.89,10,10,8,8,1.468,"Left",8,8,0,0,0,0,0,2,2
"193",3,"LAC7-LAC8",0.0018435923,0.1570660272,0.2077931322,0.2901604203,0.3032083713,0.2791882242,0.0747296272,-0.0639184408,-0.0780143368,0.2046625642,0.33311892019,0.12428541019,2171,"DG_s11",5.812,6.422,7.89,7.89,10,10,8,8,1.468,"Left",8,8,0,0,0,0,0,2,2
"194",3,"LPC1-LPC2",-0.11389087629,-0.0281928188,0.0751739035,0.1115792555,-0.0504155635,-0.2603283255,-0.3278592595,-0.3112197595,-0.1442231545,0.0918812035,0.0786920385,-0.0397711895,2171,"DG_s11",5.812,6.422,7.89,7.89,10,10,8,8,1.468,"Left",8,8,0,0,0,0,0,2,2
"195",3,"RIN1-RIN2",0.2757832418,0.0728610448,0.1201068468,0.1437406648,0.1334590768,0.1668948188,0.1615452068,0.0472444428,0.1704031205,0.1697685095,0.0255353248,0.2481684318,2171,"DG_s11",5.812,6.422,7.89,7.89,10,10,8,8,1.468,"Left",8,8,0,0,0,0,0,2,2
"196",3,"RIN3-RIN4",-0.0146706049,0.0051545823,-0.015087495,0.015558546,-0.036540557,-0.19351849596,-0.22057409486,-0.0552653649,0.053267286,-0.113668396,-0.253437246,-0.129960157,2171,"DG_s11",5.812,6.422,7.89,7.89,10,10,8,8,1.468,"Left",8,8,0,0,0,0,0,2,2
"197",3,"LPC5-LPC6",0.1360563152,0.1502365742,0.1393318875,0.1580701145,-0.0157827025,0.0349008505,0.0707471315,0.3425842695,0.2857887785,0.1623613485,0.3788016515,0.1785463495,2171,"DG_s11",5.812,6.422,7.89,7.89,10,10,8,8,1.468,"Left",8,8,0,0,0,0,0,2,2
"198",3,"RHH5-RHH6",0.22530487905,0.21615999105,0.16784236305,0.14378459005,0.03798923005,-0.03726059895,0.03845894105,0.06455303105,-0.00968308695,-0.04023376365,-0.10892053565,0.11777065305,2171,"DG_s11",5.812,6.422,7.89,7.89,10,10,8,8,1.468,"Left",8,8,0,0,0,0,0,2,2
"199",4,"RIN6-RIN7",-0.099906226,-0.0414692645,-0.0280225905,0.005750688,0.098772044,0.150653471,0.150057514,0.043559177,0.043651782,0.223432142,0.219384564,-0.0539508754,2172,"DG_s11",8.89,9.5,10.922,10.922,10,10,28,4,1.422,"Right",28,4,24,0,24,0,-24,-18,6
"200",4,"ROF4-ROF5",0.1012730289,-0.088030231,0.115089139,0.107549891,0.0558402293,-0.0037680157,-0.135522112,0.148128289,0.232260975,0.00708971399999999,-0.12143784,-0.062324146,2172,"DG_s11",8.89,9.5,10.922,10.922,10,10,28,4,1.422,"Right",28,4,24,0,24,0,-24,-18,6
"201",4,"RTH1-RTH2",-0.20655696123,-0.20247002923,-0.19051135453,-0.15782654853,-0.18513811123,-0.12648285623,-0.13936071923,-0.06469583923,0.05064957577,0.04220277577,0.12212093577,-0.02390196823,2172,"DG_s11",8.89,9.5,10.922,10.922,10,10,28,4,1.422,"Right",28,4,24,0,24,0,-24,-18,6
"202",4,"ROF3-ROF4",0.2079326967,0.2424520077,0.340875508,0.028261374,-0.085247506,0.039306114,0.106220445,0.231095976,0.263998596,0.329320485,0.185440867,0.144907356,2172,"DG_s11",8.89,9.5,10.922,10.922,10,10,28,4,1.422,"Right",28,4,24,0,24,0,-24,-18,6
"203",4,"RIN9-RIN10",-0.0463409115,0.0695825825,-0.0974097695,-0.1598737325,-0.0691176045,0.0082227945,0.1446185315,0.0117056505,-0.1968996585,0.0680919225,0.3068146665,0.2964392665,2172,"DG_s11",8.89,9.5,10.922,10.922,10,10,28,4,1.422,"Right",28,4,24,0,24,0,-24,-18,6
"204",4,"ROF5-ROF6",-0.025404475,0.005569039,0.256528826,0.366577382,0.422116958,0.299758838,0.086437628,0.248172778,0.330287453,-0.077159477,-0.095562595,0.125954955,2172,"DG_s11",8.89,9.5,10.922,10.922,10,10,28,4,1.422,"Right",28,4,24,0,24,0,-24,-18,6
"205",4,"LHH5-LHH6",-0.072948019,-0.068962393,-0.096112584,-0.184447583,-0.304583343,-0.110858813,0.012531808,0.002399758,0.101417661,0.119810556,-0.02042009951,0.11485246549,2172,"DG_s11",8.89,9.5,10.922,10.922,10,10,28,4,1.422,"Right",28,4,24,0,24,0,-24,-18,6
"206",4,"ROF6-ROF7",0.1569059732,0.1155292112,0.177590377,0.281548445,0.272247874,0.157815291,0.190004683,0.450514836,0.436590921,0.146837657,0.168326126,0.14332326,2172,"DG_s11",8.89,9.5,10.922,10.922,10,10,28,4,1.422,"Right",28,4,24,0,24,0,-24,-18,6
"207",4,"LAC9-LAC10",-0.2207608005,-0.147725606,-0.0111743386,-0.00720135559999999,-0.098282774,0.060478348,0.250230216,0.261049991,0.158653033,0.028648943,0.015198123,-0.0042330827,2172,"DG_s11",8.89,9.5,10.922,10.922,10,10,28,4,1.422,"Right",28,4,24,0,24,0,-24,-18,6
"208",4,"LAM2-LAM3",-0.301108677,-0.2021745329,0.0910503071,0.278618498,0.103597929,-0.1112133914,-0.0840088684,-0.187876069,-0.160395814,-0.078570453,-0.093479145,0.155779495,2172,"DG_s11",8.89,9.5,10.922,10.922,10,10,28,4,1.422,"Right",28,4,24,0,24,0,-24,-18,6
"209",4,"RAM6-RAM7",0.0193916583,0.0700063413,0.00233913300000001,0.142719758,-0.048175885,-0.33002546,-0.08070926,0.103673148,-0.001606512,-0.07118243,0.062148637,0.259633106,2172,"DG_s11",8.89,9.5,10.922,10.922,10,10,28,4,1.422,"Right",28,4,24,0,24,0,-24,-18,6
"210",4,"LIN4-LIN5",-0.1915495852,-0.065611337,-0.090894768,-0.315952856,-0.487355996,-0.414974245,-0.2912858125,-0.2108873625,-0.043621785,-0.067053946,-0.086053581,0.045289996,2172,"DG_s11",8.89,9.5,10.922,10.922,10,10,28,4,1.422,"Right",28,4,24,0,24,0,-24,-18,6
"211",4,"RTH4-RTH5",0.06990795695,0.04034789095,0.06406155995,0.04868821795,0.03602527895,0.08077897895,0.06639686532,0.00646589932,-0.03762417805,-0.11584789305,-0.05377350105,0.04599277795,2172,"DG_s11",8.89,9.5,10.922,10.922,10,10,28,4,1.422,"Right",28,4,24,0,24,0,-24,-18,6
"212",4,"LIN1-LIN2",-0.1602145235,0.0275945935,0.0537287445,-0.0836927665,-0.1773389635,-0.2123297425,-0.1603880835,-0.1896488755,-0.2137009035,-0.0576204671,-0.0126772301,-0.1321036525,2172,"DG_s11",8.89,9.5,10.922,10.922,10,10,28,4,1.422,"Right",28,4,24,0,24,0,-24,-18,6
"213",4,"LOF1-LOF2",-0.270134656,-0.160015705,-0.168577191,-0.1989719216,0.00359664839999999,0.451092628,0.412305657,0.242162857,0.0967228121,-0.0213490529,-0.002317707,-0.101698177,2172,"DG_s11",8.89,9.5,10.922,10.922,10,10,28,4,1.422,"Right",28,4,24,0,24,0,-24,-18,6
"214",4,"ROF1-ROF2",0.1139841565,0.0848631445,-0.1102105795,-0.2336782564,-0.1090363954,0.0365089975,-0.1262939015,-0.3361152875,-0.2181792575,0.1878004225,0.2944690145,-0.0176204455,2172,"DG_s11",8.89,9.5,10.922,10.922,10,10,28,4,1.422,"Right",28,4,24,0,24,0,-24,-18,6
"215",4,"LTH7-LTH8",0.2846143153,0.3560860633,0.1024021833,-0.12242854835,0.00872299685,0.0306244033,0.0473513671,0.0504597503,0.1061238043,0.1862914413,0.1293275673,0.2620322343,2172,"DG_s11",8.89,9.5,10.922,10.922,10,10,28,4,1.422,"Right",28,4,24,0,24,0,-24,-18,6
"216",4,"ROF2-ROF3",0.17022570978,0.3536320925,0.1761223025,0.0505885435,0.0872974635,-0.0681289256,-0.2861357306,-0.2204031825,-0.0552362665,0.0463273825,0.1112241245,0.0089599111,2172,"DG_s11",8.89,9.5,10.922,10.922,10,10,28,4,1.422,"Right",28,4,24,0,24,0,-24,-18,6
"217",4,"LIN7-LIN8",-0.0865403489,0.0364432291,0.0864869191,0.0768189291,0.2174437311,0.2555848709,0.1898970259,0.2206762781,0.2336255091,0.2326793481,0.3797964101,0.2850226511,2172,"DG_s11",8.89,9.5,10.922,10.922,10,10,28,4,1.422,"Right",28,4,24,0,24,0,-24,-18,6
"218",4,"LAC2-LAC3",0.0403882461,0.0120225641,0.0762546721,0.0881902871,-0.0073966349,-0.1326857169,-0.0970760439,0.2571189661,0.5510059881,0.5196915581,0.4961905781,0.2782191471,2172,"DG_s11",8.89,9.5,10.922,10.922,10,10,28,4,1.422,"Right",28,4,24,0,24,0,-24,-18,6
"219",4,"LOF4-LOF5",-0.0284893835,0.3557320465,0.2652257285,0.0678011295,0.1654401065,0.0848711675,-0.0077289165,0.0015092615,0.1785797185,0.1862807275,-0.0387486305,-0.0234878435,2172,"DG_s11",8.89,9.5,10.922,10.922,10,10,28,4,1.422,"Right",28,4,24,0,24,0,-24,-18,6
"220",4,"LAC10-LAC11",0.1462750107,0.1653847025,0.2998195555,0.3551121605,0.2414447525,0.2415434795,0.1883029465,0.0777258145,0.1680725781,0.4271251231,0.4182318225,0.2992570005,2172,"DG_s11",8.89,9.5,10.922,10.922,10,10,28,4,1.422,"Right",28,4,24,0,24,0,-24,-18,6
"221",4,"LAC7-LAC8",-0.13326395455,0.11979347745,0.30103753245,0.16430450345,0.05436706945,0.13898126645,0.12100449045,-0.04096183955,-0.01327660855,-0.01224610855,0.06688280745,0.03548200145,2172,"DG_s11",8.89,9.5,10.922,10.922,10,10,28,4,1.422,"Right",28,4,24,0,24,0,-24,-18,6
"222",4,"RAM2-RAM3",0.0108445308,0.000456951800000001,0.0910836518,0.1657485998,0.2497133848,0.0484045248,-0.0414758642,-0.0024263772,-0.1208381562,-0.0579092812,-0.0156620362,0.0177988218,2172,"DG_s11",8.89,9.5,10.922,10.922,10,10,28,4,1.422,"Right",28,4,24,0,24,0,-24,-18,6
"223",4,"LHH7-LHH8",-0.09807529035,0.02726704345,0.07934706245,0.09097997165,0.03417768165,0.07646082165,0.12269241841,0.14101423841,0.24246904265,0.30597663665,0.15028361665,-0.10615151535,2172,"DG_s11",8.89,9.5,10.922,10.922,10,10,28,4,1.422,"Right",28,4,24,0,24,0,-24,-18,6
"224",4,"RAM3-RAM4",-0.04218576475,-0.15926149475,-0.04516549475,0.07760484725,0.05278373725,0.20835726325,0.24609443005,0.04838558405,0.11687916925,0.31238950025,0.25755964225,0.07270648025,2172,"DG_s11",8.89,9.5,10.922,10.922,10,10,28,4,1.422,"Right",28,4,24,0,24,0,-24,-18,6
"225",4,"LOF6-LOF7",-0.388531238,-0.280837447,-0.228255172,-0.23249794,-0.218974918,-0.256839383,-0.25132494,-0.275103972,-0.045808183,0.152677755,0.034833525,0.022426639,2172,"DG_s11",8.89,9.5,10.922,10.922,10,10,28,4,1.422,"Right",28,4,24,0,24,0,-24,-18,6
"226",4,"RHH4-RHH5",-0.23751709195,-0.02258907795,0.09993106175,0.08767204775,0.07235260923,-0.08410134677,-0.14998726395,0.00986629205,0.05740009305,0.05263383105,0.17008781695,0.18212300795,2172,"DG_s11",8.89,9.5,10.922,10.922,10,10,28,4,1.422,"Right",28,4,24,0,24,0,-24,-18,6
"227",4,"LHH6-LHH7",-0.0575531755,-0.1002397115,0.0087535385,0.0410276616,-0.0227004074,-0.1484367875,-0.0510086605,0.0720668655,0.1296353875,0.2596693015,0.2746144715,0.3523949415,2172,"DG_s11",8.89,9.5,10.922,10.922,10,10,28,4,1.422,"Right",28,4,24,0,24,0,-24,-18,6
"228",4,"LIN9-LIN10",0.15824268765,0.22519367065,0.24769660865,0.16946797965,-0.00652100735,-0.00846427635,-0.15159968435,-0.12318434535,0.09630894265,0.28366833765,0.47987397965,0.25155781265,2172,"DG_s11",8.89,9.5,10.922,10.922,10,10,28,4,1.422,"Right",28,4,24,0,24,0,-24,-18,6
"229",4,"LAC1-LAC2",-0.0895235555,-0.1536455105,-0.00756270950000001,0.1698249155,0.2087841485,0.0708744105,-0.1386656897,-0.1971309407,0.1477266095,0.2838724025,-0.0126904915,-0.0781362455,2172,"DG_s11",8.89,9.5,10.922,10.922,10,10,28,4,1.422,"Right",28,4,24,0,24,0,-24,-18,6
"230",4,"RAM5-RAM6",-0.2598902573,-0.052087389,-0.016277747,-0.1073513483,-0.1669769233,-0.2270694783,-0.0794078853,-0.127738127,-0.314342562,-0.2487119703,-0.2416064253,-0.2171234073,2172,"DG_s11",8.89,9.5,10.922,10.922,10,10,28,4,1.422,"Right",28,4,24,0,24,0,-24,-18,6
"231",4,"LIN6-LIN7",0.0671076807,-0.0796196403,-0.3346274303,-0.3380337323,-0.2282633211,-0.2157557791,-0.1339990113,-0.1536924913,-0.1879172723,-0.1760396293,-0.3143086073,-0.2201750377,2172,"DG_s11",8.89,9.5,10.922,10.922,10,10,28,4,1.422,"Right",28,4,24,0,24,0,-24,-18,6
"232",4,"LPC5-LPC6",0.558956293,0.695234006,0.686676856,0.666559891,0.654094131,0.769804783,0.672730563,0.787341789,0.520264466,0.250152026,0.476319569,0.644381446,2172,"DG_s11",8.89,9.5,10.922,10.922,10,10,28,4,1.422,"Right",28,4,24,0,24,0,-24,-18,6
"233",4,"RIN3-RIN4",0.586363454,0.387399468,0.2110704145,0.1823422765,0.051826336,0.0650886593,0.0280801033,0.050386531,0.292859588,0.2450884485,0.0319595285,0.015558715,2172,"DG_s11",8.89,9.5,10.922,10.922,10,10,28,4,1.422,"Right",28,4,24,0,24,0,-24,-18,6
"234",4,"LAC6-LAC7",0.15805650275,0.48256684675,0.67830818675,0.56561016675,0.40511900675,0.25176816675,0.12131670475,-0.04262513025,0.16208069175,0.42316188675,0.27549127675,0.14195612875,2172,"DG_s11",8.89,9.5,10.922,10.922,10,10,28,4,1.422,"Right",28,4,24,0,24,0,-24,-18,6
"235",4,"LIN3-LIN4",0.12950745,0.113006338,0.112764126,0.09897123,0.042769375,-0.021719176,0.014517141,-0.0196151282,0.0924354118,0.132462657,0.12777022,0.150098924,2172,"DG_s11",8.89,9.5,10.922,10.922,10,10,28,4,1.422,"Right",28,4,24,0,24,0,-24,-18,6
"236",4,"LOF7-LOF8",-0.3444195923,-0.3012110193,-0.281785458,-0.296410791,-0.252027124,-0.249279227,-0.352363653,-0.333152094,-0.211545581,-0.071408024,-0.156690791,-0.371286424,2172,"DG_s11",8.89,9.5,10.922,10.922,10,10,28,4,1.422,"Right",28,4,24,0,24,0,-24,-18,6
"237",4,"RIN5-RIN6",-0.035179087,0.027523055,0.036577425,-0.031070725,0.019663655,0.00914783399999997,-0.058276846,-0.021832255,-0.00171576734000001,0.10177502766,0.070109852,-0.098066753,2172,"DG_s11",8.89,9.5,10.922,10.922,10,10,28,4,1.422,"Right",28,4,24,0,24,0,-24,-18,6
"238",4,"LAC8-LAC9",0.00281619625,0.01372397605,0.02172975605,0.10961081525,0.12480103625,0.34624351125,0.37893532125,0.09348463925,0.11457644525,0.28488840725,0.47083495025,0.40486542025,2172,"DG_s11",8.89,9.5,10.922,10.922,10,10,28,4,1.422,"Right",28,4,24,0,24,0,-24,-18,6
"239",4,"LOF5-LOF6",-0.0876912472,0.2129680758,0.358671197,0.250032366,0.295220301,0.223800487,0.257304842,0.254174314,0.407070529,0.5218779795,0.3743175445,0.514126744,2172,"DG_s11",8.89,9.5,10.922,10.922,10,10,28,4,1.422,"Right",28,4,24,0,24,0,-24,-18,6
"240",4,"LOF2-LOF3",-0.059237679,-0.017257648,-0.124425592,0.021313985,0.217151589,0.406928941,0.445813672,0.458766172,0.455465537,0.373533337,0.267427737,0.231279137,2172,"DG_s11",8.89,9.5,10.922,10.922,10,10,28,4,1.422,"Right",28,4,24,0,24,0,-24,-18,6
"241",4,"LTH6-LTH7",0.03050451865,0.21268476865,0.22427053965,0.16448062965,0.20180313565,0.23841755865,0.19480751165,0.27769671765,0.27910856165,0.10766717165,0.18273914765,0.24183799865,2172,"DG_s11",8.89,9.5,10.922,10.922,10,10,28,4,1.422,"Right",28,4,24,0,24,0,-24,-18,6
"242",4,"LAM3-LAM4",0.011199696,-0.141968949,-0.175225191,-0.127812821,-0.031301702,0.099569893,0.178159176,0.160641825,0.211361735,0.187475562,-0.017323669,-0.001784401,2172,"DG_s11",8.89,9.5,10.922,10.922,10,10,28,4,1.422,"Right",28,4,24,0,24,0,-24,-18,6
"243",4,"LPC6-LPC7",0.72074248295,0.95181500295,0.82238570295,0.65900763995,0.41054194795,0.33578115105,0.43782786305,0.54698647295,0.42898919595,0.24912386595,0.21769778695,0.24588513195,2172,"DG_s11",8.89,9.5,10.922,10.922,10,10,28,4,1.422,"Right",28,4,24,0,24,0,-24,-18,6
"244",4,"RTH5-RTH6",0.0445046025,-0.0291576385,0.0612569875,0.1802256515,0.3885473575,0.4209057335,0.1663280375,0.0605233135,-0.0163603075,-0.2447445595,-0.1920151845,0.0288426752,2172,"DG_s11",8.89,9.5,10.922,10.922,10,10,28,4,1.422,"Right",28,4,24,0,24,0,-24,-18,6
"245",4,"LIN2-LIN3",0.1394579913,0.248974717,0.1816362118,0.0814444228,0.181291886,0.183496012,0.031906724,0.066148686,0.431634654,0.392549393,0.096967861,0.155872131,2172,"DG_s11",8.89,9.5,10.922,10.922,10,10,28,4,1.422,"Right",28,4,24,0,24,0,-24,-18,6
"246",4,"RTH6-RTH7",0.1899922576,0.2009914936,0.0256103836,-0.0020594764,0.2211359636,0.2888448436,0.1198593136,0.0180879216,-0.0577392384,-0.1687335264,0.1058314736,0.3700278832,2172,"DG_s11",8.89,9.5,10.922,10.922,10,10,28,4,1.422,"Right",28,4,24,0,24,0,-24,-18,6
"247",4,"LPC1-LPC2",0.23028294825,0.16227800225,0.12629858525,-0.02278587075,-0.12126597575,-0.09235029575,-0.24094058375,0.10186217625,0.28992461625,0.20263400625,0.16274797625,0.03567086865,2172,"DG_s11",8.89,9.5,10.922,10.922,10,10,28,4,1.422,"Right",28,4,24,0,24,0,-24,-18,6
"248",4,"LTH8-LTH9",-0.06205127745,-0.19821141725,-0.32294947625,-0.21473471385,-0.08889194685,-0.09932365125,-0.07029379595,-0.11272578915,-0.17561084445,-0.09317624925,-0.10314819627,0.02472872573,2172,"DG_s11",8.89,9.5,10.922,10.922,10,10,28,4,1.422,"Right",28,4,24,0,24,0,-24,-18,6
"249",4,"RHH5-RHH6",0.0284183635,0.0928011385,-0.1881051435,0.0257817745,0.2147591265,0.0453498651,-0.1717642749,-0.2887891525,-0.0278886995,-0.0397713475,-0.2354026555,-0.1927406285,2172,"DG_s11",8.89,9.5,10.922,10.922,10,10,28,4,1.422,"Right",28,4,24,0,24,0,-24,-18,6
"250",4,"LTH1-LTH2",0.3334446775,0.2533449895,0.1306506275,0.2046881855,0.2118756875,0.2048553265,0.2532521475,0.2725877115,0.2819604305,0.4866253875,0.4788626575,0.2703359615,2172,"DG_s11",8.89,9.5,10.922,10.922,10,10,28,4,1.422,"Right",28,4,24,0,24,0,-24,-18,6
"251",4,"LIN8-LIN9",-0.1600027646,-0.0665300076,0.0370997204,-0.0772512046,-0.0393778826,0.0414248434,-0.0817054946,-0.0412239126,0.1210009554,0.2667999974,0.3504157054,0.0902798154,2172,"DG_s11",8.89,9.5,10.922,10.922,10,10,28,4,1.422,"Right",28,4,24,0,24,0,-24,-18,6
"252",4,"LAM1-LAM2",-0.028829308785,0.033071271215,0.041884012215,0.226378902215,0.465922416215,0.381018326215,0.019306822215,-0.203437715785,-0.134083188785,-0.051699839785,-0.098330537785,-0.173529505785,2172,"DG_s11",8.89,9.5,10.922,10.922,10,10,28,4,1.422,"Right",28,4,24,0,24,0,-24,-18,6
"253",4,"LIN5-LIN6",-0.1129981805,-0.1017184255,-0.2278268345,-0.3038740935,-0.2487243362,-0.2440516792,-0.3116579125,-0.3365109025,-0.3146221745,-0.2248224055,-0.2048009275,-0.2193619621,2172,"DG_s11",8.89,9.5,10.922,10.922,10,10,28,4,1.422,"Right",28,4,24,0,24,0,-24,-18,6
"254",4,"LPC8-LPC9",0.14766165835,0.08538862435,0.12932264435,0.07263657135,0.04823346135,0.14870397335,-0.08361990665,-0.21783514265,-0.15696369095,-0.09930144095,-0.10527160385,-0.09495206285,2172,"DG_s11",8.89,9.5,10.922,10.922,10,10,28,4,1.422,"Right",28,4,24,0,24,0,-24,-18,6
"255",4,"RTH7-RTH8",-0.15703780571,-0.02285828671,-0.04391186571,0.01088351329,0.15599534009,0.10716408309,0.06448827229,-0.07752696071,-0.17891182571,0.08047662429,0.07250562499,-0.14138049901,2172,"DG_s11",8.89,9.5,10.922,10.922,10,10,28,4,1.422,"Right",28,4,24,0,24,0,-24,-18,6
"256",4,"RIN8-RIN9",-0.0101209387,0.0987559523,-0.0495216406,-0.0675106786,0.0334221123,-0.1787246077,-0.2492731357,-0.1594856684,0.0368310816,0.3262405143,0.2580574633,-0.0287171837,2172,"DG_s11",8.89,9.5,10.922,10.922,10,10,28,4,1.422,"Right",28,4,24,0,24,0,-24,-18,6
"257",4,"RIN2-RIN3",0.2216251155,0.1703883255,0.1837072745,0.1844156665,-0.0973369225,-0.0504316145,0.0492832755,0.0552206035,0.0664253531,-0.0541388529,-0.1440088955,-0.2742576375,2172,"DG_s11",8.89,9.5,10.922,10.922,10,10,28,4,1.422,"Right",28,4,24,0,24,0,-24,-18,6
"258",4,"RIN1-RIN2",-0.205321793,-0.072121413,-0.061320284,-0.0254458335,-0.0191915915,0.016770487,-0.007236092,0.012015566,0.119883044,0.325970597,0.373615803,0.244156943,2172,"DG_s11",8.89,9.5,10.922,10.922,10,10,28,4,1.422,"Right",28,4,24,0,24,0,-24,-18,6
"259",4,"LPC7-LPC8",0.5632793585,0.7513516625,0.7949073625,0.5695908535,0.4049698555,0.5060068315,0.5943099995,0.3059720405,0.2446011905,0.2576276557,0.0842562047,0.1789647635,2172,"DG_s11",8.89,9.5,10.922,10.922,10,10,28,4,1.422,"Right",28,4,24,0,24,0,-24,-18,6
"260",4,"RAM1-RAM2",0.074492319055,0.056321674055,-0.112862846045,-0.079594276045,-0.047350053945,-0.079635673345,-0.062295394245,-0.033178302845,0.059718877855,0.108267263455,-0.047646914345,-0.255575588945,2172,"DG_s11",8.89,9.5,10.922,10.922,10,10,28,4,1.422,"Right",28,4,24,0,24,0,-24,-18,6
"261",4,"LTH5-LTH6",0.15188313675,0.09191664875,0.01461738885,0.04566607985,0.03733702875,0.06925894575,-0.03490450025,-0.03722952725,0.08802225075,0.07870261075,-0.02080232525,-0.11939411525,2172,"DG_s11",8.89,9.5,10.922,10.922,10,10,28,4,1.422,"Right",28,4,24,0,24,0,-24,-18,6
"262",4,"LOF3-LOF4",0.2731186875,0.2478475985,0.1679827745,0.2123739625,0.1852514235,0.1537177095,0.2139057645,0.3200960985,0.2862964525,0.0924020485,0.0317001295,-0.0259608225,2172,"DG_s11",8.89,9.5,10.922,10.922,10,10,28,4,1.422,"Right",28,4,24,0,24,0,-24,-18,6
"263",4,"LAC3-LAC4",0.0905915315,-0.1556472994,-0.2246709313,-0.1330915724,-0.1897024735,-0.2578071175,-0.1236066136,0.1018696124,0.1706965365,0.1341768145,0.0573086045,-0.0477024085,2172,"DG_s11",8.89,9.5,10.922,10.922,10,10,28,4,1.422,"Right",28,4,24,0,24,0,-24,-18,6
"264",4,"RIN7-RIN8",0.0914533957,-0.1255909963,-0.2803518945,-0.0768418495,0.2038819385,0.1728425069,0.2119916489,0.0758674895,-0.0801111915,0.0682517325,0.0429983935,-0.1032340555,2172,"DG_s11",8.89,9.5,10.922,10.922,10,10,28,4,1.422,"Right",28,4,24,0,24,0,-24,-18,6
"265",5,"LIN2-LIN3",-0.124193770075,-0.112767839975,-0.106216371975,-0.051633726975,0.215519408025,0.122923453025,-0.167596878975,0.015369161025,0.062554753025,-0.075853552975,-0.194871366975,-0.086272609975,2173,"DG_s11",11.922,12.531,13.968,13.968,10,10,22,6,1.437,"Left",22,6,16,0,16,0,-16,-12,4
"266",5,"LOF5-LOF6",0.025122079,0.116171869,-0.027786906,-0.00844624199999999,-0.045207717,-0.285916629,-0.295872953,-0.007336115,-0.092926641,-0.299776822,-0.169762171,0.07650567,2173,"DG_s11",11.922,12.531,13.968,13.968,10,10,22,6,1.437,"Left",22,6,16,0,16,0,-16,-12,4
"267",5,"RHH4-RHH5",0.084441537,-0.022903536,-0.022956688,-0.093501652,-0.056071646,-0.079392221,-0.053987515,0.0024275537,-0.113293357,-0.1854737637,-0.155748042,-0.08905505,2173,"DG_s11",11.922,12.531,13.968,13.968,10,10,22,6,1.437,"Left",22,6,16,0,16,0,-16,-12,4
"268",5,"RTH7-RTH8",0.08842371136,0.14317833936,0.22023311236,0.37480715236,0.36671775036,0.19625161436,0.19773025236,0.20297489636,0.05842501736,0.01252094936,0.18646963636,0.32177555816,2173,"DG_s11",11.922,12.531,13.968,13.968,10,10,22,6,1.437,"Left",22,6,16,0,16,0,-16,-12,4
"269",5,"LHH6-LHH7",0.3477098355,0.1893082075,0.1932923396,0.1612433746,-0.0294394365,0.0166573445,0.1107556835,-0.0111379805,-0.0604986205,0.1310817885,0.2774222585,0.2034753765,2173,"DG_s11",11.922,12.531,13.968,13.968,10,10,22,6,1.437,"Left",22,6,16,0,16,0,-16,-12,4
"270",5,"RAM2-RAM3",0.0392876893,0.0608446666,-0.1256482444,-0.0425017597,0.0317382503,-0.0710145917,-0.1053008757,0.0453367043,0.1665580783,0.2242556443,0.1490480243,0.1315688373,2173,"DG_s11",11.922,12.531,13.968,13.968,10,10,22,6,1.437,"Left",22,6,16,0,16,0,-16,-12,4
"271",5,"ROF2-ROF3",-0.0400586335,-0.0970961215,-0.0725211095,0.0357894895,0.1769454905,0.0806546185,0.1433171575,0.0653115755,0.0052695285,0.1729751375,0.0011865105,-0.1913787455,2173,"DG_s11",11.922,12.531,13.968,13.968,10,10,22,6,1.437,"Left",22,6,16,0,16,0,-16,-12,4
"272",5,"LOF4-LOF5",0.26656701535,0.13756670435,-0.06359688065,-0.02862950365,0.11420526935,0.18980119235,0.29935300435,0.42734862035,0.19128621635,-0.01973905365,0.20866700435,0.33731736935,2173,"DG_s11",11.922,12.531,13.968,13.968,10,10,22,6,1.437,"Left",22,6,16,0,16,0,-16,-12,4
"273",5,"LTH1-LTH2",0.13168678684,0.42072298984,0.436050725,0.440271195,0.411243967,0.010654297,-0.004926135,0.244880949,0.487308023,0.565234591,0.428733067,0.166333555,2173,"DG_s11",11.922,12.531,13.968,13.968,10,10,22,6,1.437,"Left",22,6,16,0,16,0,-16,-12,4
"274",5,"LAC6-LAC7",0.401148779,0.377573756,0.366824838,0.2307465778,0.3470822778,0.562673071,0.318185401,0.181905128,0.258528865,0.240241274,0.126486287,0.024594714,2173,"DG_s11",11.922,12.531,13.968,13.968,10,10,22,6,1.437,"Left",22,6,16,0,16,0,-16,-12,4
"275",5,"LTH7-LTH8",-0.157454493,-0.277037008,0.017982908,0.277137963,0.359861892,0.069959792,-0.272982117,-0.138259146,-0.014562016,-0.0737724639,-0.1166440839,0.041815053,2173,"DG_s11",11.922,12.531,13.968,13.968,10,10,22,6,1.437,"Left",22,6,16,0,16,0,-16,-12,4
"276",5,"LIN7-LIN8",-0.0655643804,0.0876168986,0.0503063162,-0.1715015468,-0.2561272012,-0.16098242383,-0.11318098283,-0.1141397812,0.0719362278,0.2946690608,0.2138822008,0.0194815838,2173,"DG_s11",11.922,12.531,13.968,13.968,10,10,22,6,1.437,"Left",22,6,16,0,16,0,-16,-12,4
"277",5,"RAM6-RAM7",-0.2017658717,-0.0318662677,0.0184746875,-0.0219804915,0.0270503655,0.3721496237,0.2287271457,-0.1377567815,0.0562665215,0.1331196805,0.0735063275,0.0102612095,2173,"DG_s11",11.922,12.531,13.968,13.968,10,10,22,6,1.437,"Left",22,6,16,0,16,0,-16,-12,4
"278",5,"LAM3-LAM4",0.113751657,0.021883496,-0.1089412975,0.000656524500000002,0.100086821,-0.127671349,-0.120459126,0.04706952,0.102480799,0.221738233,0.077977522,-0.058248121,2173,"DG_s11",11.922,12.531,13.968,13.968,10,10,22,6,1.437,"Left",22,6,16,0,16,0,-16,-12,4
"279",5,"LIN3-LIN4",0.068721481,0.059783537,0.076188419,0.018843442,0.258403322,0.304443733,0.196407603,0.339218702,0.219355294,0.1756295543,0.1379019123,0.259962072,2173,"DG_s11",11.922,12.531,13.968,13.968,10,10,22,6,1.437,"Left",22,6,16,0,16,0,-16,-12,4
"280",5,"LOF3-LOF4",0.2827592735,0.3833561195,0.2674241515,0.3357014075,0.3009528374,0.2194410594,0.4215136515,0.4493191764,0.3559467264,0.286411159,0.289683408,0.3601922945,2173,"DG_s11",11.922,12.531,13.968,13.968,10,10,22,6,1.437,"Left",22,6,16,0,16,0,-16,-12,4
"281",5,"RIN6-RIN7",-0.15163446764,-0.02453788764,0.08582089136,0.01257023136,0.44117414136,0.53289672036,0.43629622036,0.51193862336,0.25388135336,0.12068611736,0.06166879736,0.08759855336,2173,"DG_s11",11.922,12.531,13.968,13.968,10,10,22,6,1.437,"Left",22,6,16,0,16,0,-16,-12,4
"282",5,"ROF3-ROF4",0.3489368925,0.2914154105,0.2179242875,0.2703582715,0.0510469215,-0.083892368,-0.00872614499999999,0.0648335135,0.1520608935,0.2436396275,0.1686426175,0.1307987075,2173,"DG_s11",11.922,12.531,13.968,13.968,10,10,22,6,1.437,"Left",22,6,16,0,16,0,-16,-12,4
"283",5,"RAM3-RAM4",-0.0823254365,-0.0288808055,-0.0335615445,-0.1570732105,-0.2257858915,-0.1429621155,-0.0525991375,-0.0238623975,-0.0628273625,-0.0758890365,-0.1581840205,-0.2394518895,2173,"DG_s11",11.922,12.531,13.968,13.968,10,10,22,6,1.437,"Left",22,6,16,0,16,0,-16,-12,4
"284",5,"ROF5-ROF6",0.0538197425,-0.1080273845,-0.0612719155,0.0264618355,-0.0025890205,0.1046206795,0.0456780375,-0.0840161325,-0.2054366435,-0.0824576065,0.0839824405,0.0724708595,2173,"DG_s11",11.922,12.531,13.968,13.968,10,10,22,6,1.437,"Left",22,6,16,0,16,0,-16,-12,4
"285",5,"LOF7-LOF8",0.08323437271,-0.00908412728999999,0.0347940989,0.0846681419,-0.1344074481,-0.1056230571,0.0797430229,-0.0539290011,-0.2261216341,-0.2877669401,-0.0510526371,0.0778619821,2173,"DG_s11",11.922,12.531,13.968,13.968,10,10,22,6,1.437,"Left",22,6,16,0,16,0,-16,-12,4
"286",5,"LIN4-LIN5",0.04296424045,-0.11837987455,0.04031564345,0.26027209245,0.09486468635,-0.04845144365,0.15949583445,0.33634631545,0.27725277245,0.09689765745,-0.03642503055,-0.07948410755,2173,"DG_s11",11.922,12.531,13.968,13.968,10,10,22,6,1.437,"Left",22,6,16,0,16,0,-16,-12,4
"287",5,"LPC5-LPC6",0.372873491,0.374531751,0.504706581,0.5364245954,0.5465365874,0.757726873,0.60697045,0.44450794,0.420422951,0.380143211,0.202547616,0.100210093,2173,"DG_s11",11.922,12.531,13.968,13.968,10,10,22,6,1.437,"Left",22,6,16,0,16,0,-16,-12,4
"288",5,"RIN8-RIN9",0.224811178,0.31541456,0.321298322,0.340551722,0.520499067,0.281646927,0.078406291,0.1391631224,0.1854184784,0.224239389,0.1278399304,0.0492137304,2173,"DG_s11",11.922,12.531,13.968,13.968,10,10,22,6,1.437,"Left",22,6,16,0,16,0,-16,-12,4
"289",5,"LPC7-LPC8",0.4897845647,0.6898597927,0.6323287327,0.4121316927,0.4269201927,0.4191981844,0.2425458721,0.2531813073,0.2435814676,0.15134076,0.177899322,0.2928876127,2173,"DG_s11",11.922,12.531,13.968,13.968,10,10,22,6,1.437,"Left",22,6,16,0,16,0,-16,-12,4
"290",5,"RTH5-RTH6",-0.1003379312,-0.096725801,-0.018893791,-0.040114066,0.116714809,0.416061169,0.350608959,0.045034498,-0.17090113,-0.16449967,-0.178532643,-0.083696992,2173,"DG_s11",11.922,12.531,13.968,13.968,10,10,22,6,1.437,"Left",22,6,16,0,16,0,-16,-12,4
"291",5,"RAM5-RAM6",0.02521889098,-0.050886771,0.023868204,-0.0272271159,-0.146416808,0.0519776809,-0.057411817,-0.10753971631,0.01192214569,-0.146021655,-0.187259888,-0.082198024,2173,"DG_s11",11.922,12.531,13.968,13.968,10,10,22,6,1.437,"Left",22,6,16,0,16,0,-16,-12,4
"292",5,"RTH1-RTH2",-0.127507222,-0.129736775,-0.094150011,-0.078253006,-0.105946863,-0.153763298,0.048488979,0.218297759,0.20903308637,-0.05683444363,-0.106298596,0.149517683,2173,"DG_s11",11.922,12.531,13.968,13.968,10,10,22,6,1.437,"Left",22,6,16,0,16,0,-16,-12,4
"293",5,"LIN1-LIN2",0.2091446545,0.1012929355,0.0394416245,0.2266720569,0.2627012759,0.3037656465,0.4966391965,0.5247876765,0.3429946505,0.1771651555,0.4752883515,0.6480949625,2173,"DG_s11",11.922,12.531,13.968,13.968,10,10,22,6,1.437,"Left",22,6,16,0,16,0,-16,-12,4
"294",5,"LAM1-LAM2",0.1333584645,0.1516615785,0.2101817505,0.1041163795,0.0478947925,0.000137216299999993,0.1336732933,0.2459850885,0.0537731385,0.1053081095,0.1280510895,0.0558313165,2173,"DG_s11",11.922,12.531,13.968,13.968,10,10,22,6,1.437,"Left",22,6,16,0,16,0,-16,-12,4
"295",5,"RIN9-RIN10",0.303436199,0.042736859,-0.008620673,0.00540507480000001,0.1065012428,0.281644545,0.46594024,0.2971104507,0.1665748467,0.209517149,0.216308154,0.225150595,2173,"DG_s11",11.922,12.531,13.968,13.968,10,10,22,6,1.437,"Left",22,6,16,0,16,0,-16,-12,4
"296",5,"LHH7-LHH8",-0.1580162867,0.0315714463,0.0526748245,-0.2701511055,-0.3296725355,-0.2914427215,0.2059013485,0.5155851465,0.1556341185,-0.1233956025,-0.1838878115,-0.1235064565,2173,"DG_s11",11.922,12.531,13.968,13.968,10,10,22,6,1.437,"Left",22,6,16,0,16,0,-16,-12,4
"297",5,"ROF4-ROF5",0.04370364473,0.02591808643,0.0436592042,-0.00114567350000001,0.0618910995,0.2288469525,0.2278776107,0.1402932417,0.1933548495,0.1789248185,-0.0325036925,-0.0995730125,2173,"DG_s11",11.922,12.531,13.968,13.968,10,10,22,6,1.437,"Left",22,6,16,0,16,0,-16,-12,4
"298",5,"LPC6-LPC7",0.571293414,0.520574489,0.5432945573,0.6238976813,0.492253347,0.504028291,0.338497949,0.038205619,0.12504188,0.297458947,0.299518799,0.244573936,2173,"DG_s11",11.922,12.531,13.968,13.968,10,10,22,6,1.437,"Left",22,6,16,0,16,0,-16,-12,4
"299",5,"LPC1-LPC2",-0.27925783455,-0.35484522355,-0.12655395355,0.09394319845,0.08239019445,0.10077111245,0.16344227645,0.03258871645,0.09963646645,0.13422452245,-0.01190804965,-0.06202665565,2173,"DG_s11",11.922,12.531,13.968,13.968,10,10,22,6,1.437,"Left",22,6,16,0,16,0,-16,-12,4
"300",5,"RTH6-RTH7",-0.32711305725,-0.37599171125,-0.35373528615,-0.23513525315,-0.04570419915,0.14856394585,-0.00819468915000002,-0.28811463315,-0.24574208215,-0.10257406815,-0.12357169415,-0.23486622815,2173,"DG_s11",11.922,12.531,13.968,13.968,10,10,22,6,1.437,"Left",22,6,16,0,16,0,-16,-12,4
"301",5,"LPC8-LPC9",0.16989262545,-0.02364025955,0.13392386445,0.32304408945,0.07578684545,0.14277310545,0.02022814345,0.25898352445,0.39805534345,0.04030020845,0.04678804945,-0.01340694655,2173,"DG_s11",11.922,12.531,13.968,13.968,10,10,22,6,1.437,"Left",22,6,16,0,16,0,-16,-12,4
"302",5,"LIN5-LIN6",-0.1063215585,-0.3254829605,-0.3176154405,-0.1246649795,-0.1542304965,-0.2696835375,-0.1013408385,-0.0313234818,-0.0496223208,-0.0076322155,-0.1968154955,-0.2639837005,2173,"DG_s11",11.922,12.531,13.968,13.968,10,10,22,6,1.437,"Left",22,6,16,0,16,0,-16,-12,4
"303",5,"RAM1-RAM2",-0.6268057705,-0.5876770165,-0.5104748155,-0.5758355695,-0.4804361715,-0.4074951915,-0.4047621005,-0.3886461925,-0.3798643755,-0.3428258582,-0.3912130978,-0.2945435661,2173,"DG_s11",11.922,12.531,13.968,13.968,10,10,22,6,1.437,"Left",22,6,16,0,16,0,-16,-12,4
"304",5,"RIN5-RIN6",-0.042381913,-0.052197296,0.119691305,0.092356061,0.41298603,0.496276964,0.582421464,0.576553677,0.2085112712,0.1204290562,0.018445366,0.085680213,2173,"DG_s11",11.922,12.531,13.968,13.968,10,10,22,6,1.437,"Left",22,6,16,0,16,0,-16,-12,4
"305",5,"LAC2-LAC3",0.24567067465,0.21823346965,-0.02347034675,0.06956917625,0.13157921365,0.11368220765,0.20679892035,0.15030183435,0.06036871065,0.13112692465,0.03708808465,-0.03289050335,2173,"DG_s11",11.922,12.531,13.968,13.968,10,10,22,6,1.437,"Left",22,6,16,0,16,0,-16,-12,4
"306",5,"LAC9-LAC10",0.16583795455,0.10926737155,-0.01471973845,0.07899870055,0.10042959655,0.14245075855,0.11110887455,0.01680341255,0.33559935055,0.40773131055,0.26997710255,0.34929672155,2173,"DG_s11",11.922,12.531,13.968,13.968,10,10,22,6,1.437,"Left",22,6,16,0,16,0,-16,-12,4
"307",5,"ROF1-ROF2",0.17191443485,0.21232131805,-0.11971317295,-0.16052800145,-0.05256622675,0.01771590035,-0.03650997535,-0.12805578245,-0.09112790145,-0.13507868235,-0.06814981635,-0.04459190545,2173,"DG_s11",11.922,12.531,13.968,13.968,10,10,22,6,1.437,"Left",22,6,16,0,16,0,-16,-12,4
"308",5,"LAC3-LAC4",0.37234981812,0.4144625198,0.2628434079,0.0389217679,0.00542432179999999,0.1042719518,0.1152237235,0.1481454975,0.0429743396,0.0436374626,0.1522809108,0.0902636678,2173,"DG_s11",11.922,12.531,13.968,13.968,10,10,22,6,1.437,"Left",22,6,16,0,16,0,-16,-12,4
"309",5,"LOF1-LOF2",-0.2120121865,-0.1396530265,-0.0146803935,0.1113492965,-0.0936921165,0.0718553335,0.1699856295,-0.0405846105,-0.0039178465,0.2020335845,0.1923171095,0.00289546449999999,2173,"DG_s11",11.922,12.531,13.968,13.968,10,10,22,6,1.437,"Left",22,6,16,0,16,0,-16,-12,4
"310",5,"RHH5-RHH6",0.091083524,-0.069480771,-0.036638007,0.027291355,0.040848905,0.060957219,0.079697175,0.129706762,0.184190617,0.26658508,0.104898895,0.00856388199999999,2173,"DG_s11",11.922,12.531,13.968,13.968,10,10,22,6,1.437,"Left",22,6,16,0,16,0,-16,-12,4
"311",5,"LTH6-LTH7",0.071163227,0.131697815,0.201342275,0.255672821,0.325343671,0.189352445,0.158329422,0.3454442935,0.3339156848,0.0278114093,-0.031914939,0.063559611,2173,"DG_s11",11.922,12.531,13.968,13.968,10,10,22,6,1.437,"Left",22,6,16,0,16,0,-16,-12,4
"312",5,"LAC7-LAC8",0.056929494,-0.057130341,0.042355463,0.15740611,0.087812114,0.1337725,0.0523400759,-0.0746005771,-0.126054049,-0.012302814,0.024113682,-0.050320908,2173,"DG_s11",11.922,12.531,13.968,13.968,10,10,22,6,1.437,"Left",22,6,16,0,16,0,-16,-12,4
"313",5,"RIN1-RIN2",0.2691486149,0.2873893049,0.2648770715,0.2508958735,0.1314467785,0.0264127635,0.0034151645,-0.0719352615,-0.0622101855,0.0403719105,0.0699116265,0.0608461705,2173,"DG_s11",11.922,12.531,13.968,13.968,10,10,22,6,1.437,"Left",22,6,16,0,16,0,-16,-12,4
"314",5,"RIN2-RIN3",-0.056056449,0.040576345,0.036080884,0.091538262,0.280825538,0.14554947,0.030249707,-0.026740403,-0.082062317,0.208626313,0.31001735,0.215565725,2173,"DG_s11",11.922,12.531,13.968,13.968,10,10,22,6,1.437,"Left",22,6,16,0,16,0,-16,-12,4
"315",5,"RIN3-RIN4",0.2257760915,0.0276859885,0.1811957705,0.3577348525,0.2373681007,0.0513542797,-0.0117637115,0.0633145615,0.0309430311,0.2842681371,0.4875816585,0.3555076095,2173,"DG_s11",11.922,12.531,13.968,13.968,10,10,22,6,1.437,"Left",22,6,16,0,16,0,-16,-12,4
"316",5,"RTH4-RTH5",0.0081464422,0.029648513,0.051047999,-0.073641891,-0.061479979,0.186331501,0.3238936015,0.1013488265,0.061674888,0.1255823382,-0.0471186668,-0.056675704,2173,"DG_s11",11.922,12.531,13.968,13.968,10,10,22,6,1.437,"Left",22,6,16,0,16,0,-16,-12,4
"317",5,"LAM2-LAM3",-0.02271671355,0.01102402245,0.13796828945,-0.00389581365,-0.08786802365,-0.00123720155,-0.000139201550000002,-0.03094461955,-0.08086722841,-0.02048791941,0.12153317945,0.28130042745,2173,"DG_s11",11.922,12.531,13.968,13.968,10,10,22,6,1.437,"Left",22,6,16,0,16,0,-16,-12,4
"318",5,"LIN6-LIN7",0.04323243385,-0.13798556755,-0.17949970755,0.01653365745,0.16506100045,0.26950154545,0.26397958345,0.21715474345,0.32553021145,0.46422344145,0.21614646245,-0.12820163755,2173,"DG_s11",11.922,12.531,13.968,13.968,10,10,22,6,1.437,"Left",22,6,16,0,16,0,-16,-12,4
"319",5,"RIN7-RIN8",0.0052468351,0.0602336561,0.0827064681,0.0382944161,0.1580931741,0.1208340981,0.0080094681,-0.1075398599,-0.0700905449,0.1677350471,0.2981748191,0.3425667981,2173,"DG_s11",11.922,12.531,13.968,13.968,10,10,22,6,1.437,"Left",22,6,16,0,16,0,-16,-12,4
"320",5,"LHH5-LHH6",0.2134697015,0.2435801715,0.22742549,0.105447092,-0.0227350167,0.1821284143,0.2597223416,0.3179481786,0.334709538,0.140872017,0.1090112644,0.2106569384,2173,"DG_s11",11.922,12.531,13.968,13.968,10,10,22,6,1.437,"Left",22,6,16,0,16,0,-16,-12,4
"321",5,"LAC1-LAC2",-0.2438255255,-0.1914968155,0.0387216865,-0.2131397775,-0.3108049935,0.0325807505,-0.0320426773,-0.2980754473,-0.1318482115,-0.0929866355,-0.3065946065,-0.1955945785,2173,"DG_s11",11.922,12.531,13.968,13.968,10,10,22,6,1.437,"Left",22,6,16,0,16,0,-16,-12,4
"322",5,"LOF2-LOF3",-0.0483052985,-0.0365624685,-0.0267380435,-0.0164753515,0.0484275435,0.3473359296,0.0992784796,-0.0451723385,0.0742560255,0.0249412775,0.0013726475,-0.1141000675,2173,"DG_s11",11.922,12.531,13.968,13.968,10,10,22,6,1.437,"Left",22,6,16,0,16,0,-16,-12,4
"323",5,"LAC8-LAC9",-0.0089241709,-0.0099294799,-0.037066353,-0.009373069,0.03002394,0.09721919,0.10685008,0.122899821,0.020268101,-0.098403549753,-0.021032871753,-0.034089853,2173,"DG_s11",11.922,12.531,13.968,13.968,10,10,22,6,1.437,"Left",22,6,16,0,16,0,-16,-12,4
"324",5,"LAC10-LAC11",-0.14991817185,-0.15936919785,-0.07422908985,0.13197627615,0.06781764015,-0.00489927984999999,0.09071005615,0.06694215315,0.13234347615,0.15244836115,-0.03045166185,-0.09027278985,2173,"DG_s11",11.922,12.531,13.968,13.968,10,10,22,6,1.437,"Left",22,6,16,0,16,0,-16,-12,4
"325",5,"LIN9-LIN10",0.0510488997,-0.0427307903,-0.1916694073,0.0992479127,0.1758097327,0.1063846127,-0.0269365945,0.1262374555,0.1712327677,-0.0140514143,0.0923189307,0.0142322367,2173,"DG_s11",11.922,12.531,13.968,13.968,10,10,22,6,1.437,"Left",22,6,16,0,16,0,-16,-12,4
"326",5,"LIN8-LIN9",0.0319978182,0.1381237212,0.1522040545,0.0571874885,-0.1096069785,-0.1034554915,0.00269889649999999,0.1680155445,0.2846002765,0.2086067745,-0.00772655550000001,-0.0394479585,2173,"DG_s11",11.922,12.531,13.968,13.968,10,10,22,6,1.437,"Left",22,6,16,0,16,0,-16,-12,4
"327",5,"LTH8-LTH9",-0.22074549875,-0.10965617075,0.0911394235,0.3266852935,0.3538871935,0.0279696635,-0.3673239365,-0.3649948875,-0.2496067835,-0.3253227062,-0.3656749102,-0.154879546,2173,"DG_s11",11.922,12.531,13.968,13.968,10,10,22,6,1.437,"Left",22,6,16,0,16,0,-16,-12,4
"328",5,"LOF6-LOF7",-0.1240423038,-0.2386586018,-0.2642883234,-0.1807475084,-0.240945835,-0.299223434,-0.196472555,-0.075876385,-0.151396728,-0.424494916,-0.167864289,-0.016317816,2173,"DG_s11",11.922,12.531,13.968,13.968,10,10,22,6,1.437,"Left",22,6,16,0,16,0,-16,-12,4
"329",5,"ROF6-ROF7",0.01390826,-0.295501705,-0.19919719478,-0.08402188878,-0.090325454,-0.058917243,-0.00281879900000001,-0.116876665,-0.352900084,-0.2732584414,-0.000208601400000008,-0.1082676278,2173,"DG_s11",11.922,12.531,13.968,13.968,10,10,22,6,1.437,"Left",22,6,16,0,16,0,-16,-12,4
"330",5,"LTH5-LTH6",0.0478168635,0.1393260655,0.1912245085,0.0184711005,-0.0261902565,0.0244724005,0.1129202245,0.0868521275,0.0587792535,0.2623611575,0.0578474615,-0.0989197885,2173,"DG_s11",11.922,12.531,13.968,13.968,10,10,22,6,1.437,"Left",22,6,16,0,16,0,-16,-12,4
"331",6,"LPC1-LPC2",-0.15452762393,0.16439406607,0.1842723236,-0.0106814104,0.0380904316,0.0624982645,0.0155647935,0.1617055746,0.3729206196,0.2149243816,0.1088342946,0.0509062516,2174,"DG_s11",14.984,15.593,16.828,16.843,10,10,30,15,1.235,"Right",30,15,15,0,15,0,-15,-20,-5
"332",6,"LPC8-LPC9",0.218882377,-0.0561905578,0.2395095084,0.4512704284,0.2476749982,0.0564475482,0.1271717144,0.1574428754,0.1890777612,0.3138239802,0.3040808922,0.3496282922,2174,"DG_s11",14.984,15.593,16.828,16.843,10,10,30,15,1.235,"Right",30,15,15,0,15,0,-15,-20,-5
"333",6,"RIN2-RIN3",0.179024176,0.167123094,0.019642853,-0.1406575728,-0.1426577518,-0.081982131,-0.176191781,-0.141051379,0.185008661,0.297215001,0.027952752,-0.10982524,2174,"DG_s11",14.984,15.593,16.828,16.843,10,10,30,15,1.235,"Right",30,15,15,0,15,0,-15,-20,-5
"334",6,"LAC3-LAC4",-0.1472461585,-0.1280741515,-0.056006748,-0.103203556,0.0411869905,0.2411413105,0.1294700395,0.0828970119,0.2442155829,0.3521884815,0.3738405585,0.3117623985,2174,"DG_s11",14.984,15.593,16.828,16.843,10,10,30,15,1.235,"Right",30,15,15,0,15,0,-15,-20,-5
"335",6,"RIN8-RIN9",0.18721068125,0.12436786105,0.03570724105,0.00911777125,0.18906625125,0.15268805125,0.02453106525,0.24335174525,0.41752222225,0.33879614225,0.16103793425,0.11230935425,2174,"DG_s11",14.984,15.593,16.828,16.843,10,10,30,15,1.235,"Right",30,15,15,0,15,0,-15,-20,-5
"336",6,"LAC2-LAC3",-0.0059137065,-0.0737284985,-0.1056668175,-0.0991535455,-0.0849575265,0.1751600135,0.0395081925,-0.0653680065,0.0597723985,0.0815605555,0.2003190095,0.0950137035,2174,"DG_s11",14.984,15.593,16.828,16.843,10,10,30,15,1.235,"Right",30,15,15,0,15,0,-15,-20,-5
"337",6,"ROF5-ROF6",0.0117563535,0.0955174435,0.0394694135,0.1300931105,0.1579061895,-0.0207373815,-0.1647946575,-0.1858637765,0.0049022265,0.1324890685,-0.0664410665,0.0250939485,2174,"DG_s11",14.984,15.593,16.828,16.843,10,10,30,15,1.235,"Right",30,15,15,0,15,0,-15,-20,-5
"338",6,"RHH5-RHH6",-0.047483364,-0.099035934,-0.014057909,0.137024381,0.2013146001,0.3607980001,0.290141367,0.095454575,0.159519733,0.1075015531,0.0537617601,0.149815085,2174,"DG_s11",14.984,15.593,16.828,16.843,10,10,30,15,1.235,"Right",30,15,15,0,15,0,-15,-20,-5
"339",6,"ROF6-ROF7",0.24855280945,0.27131549025,0.26688559025,0.33487699025,0.25601351025,-0.03147109975,-0.11816073975,-0.06572388975,0.01254065525,0.05364701825,0.02991144925,0.06893152725,2174,"DG_s11",14.984,15.593,16.828,16.843,10,10,30,15,1.235,"Right",30,15,15,0,15,0,-15,-20,-5
"340",6,"LPC6-LPC7",0.2311942265,0.5688229275,0.5150883195,0.5229841995,0.3446791185,0.1403661095,0.2443249185,0.4708668275,0.5663845775,0.2054967625,0.1600358425,0.2554182305,2174,"DG_s11",14.984,15.593,16.828,16.843,10,10,30,15,1.235,"Right",30,15,15,0,15,0,-15,-20,-5
"341",6,"RTH6-RTH7",-0.22668966055,-0.29293967055,-0.39572623155,-0.39916531155,-0.27433045055,-0.16570652465,-0.22638378365,-0.14977028037,0.08024073873,-0.07282332045,-0.21279063155,-0.01670483755,2174,"DG_s11",14.984,15.593,16.828,16.843,10,10,30,15,1.235,"Right",30,15,15,0,15,0,-15,-20,-5
"342",6,"LAM2-LAM3",-0.05335384755,0.07387339845,0.14956012445,0.27565736945,0.34466613745,0.27153170245,0.15990018345,0.04601306045,0.36121255745,0.46083388045,0.39785461845,0.26425011445,2174,"DG_s11",14.984,15.593,16.828,16.843,10,10,30,15,1.235,"Right",30,15,15,0,15,0,-15,-20,-5
"343",6,"LOF7-LOF8",-0.018483307,-0.046635036,-0.114052128,-0.086310191,-0.069608439,-0.1850597744,-0.1790278894,-0.137009996,-0.293335011,-0.376841951,-0.277374261,-0.260113822,2174,"DG_s11",14.984,15.593,16.828,16.843,10,10,30,15,1.235,"Right",30,15,15,0,15,0,-15,-20,-5
"344",6,"LPC5-LPC6",0.41850297675,0.84025504675,0.84392426075,0.61569840375,0.40791105375,0.13465730075,0.41262258675,0.81195232675,0.85166910675,0.49298647775,0.14865817775,-0.00030182325,2174,"DG_s11",14.984,15.593,16.828,16.843,10,10,30,15,1.235,"Right",30,15,15,0,15,0,-15,-20,-5
"345",6,"LOF4-LOF5",0.0446621024,0.0620023244,0.0838413705,0.0237555065,-0.0229553085,0.1082448035,0.0392316675,0.0871107935,0.1226613674,-0.0413144436,0.0015131435,-0.0631580155,2174,"DG_s11",14.984,15.593,16.828,16.843,10,10,30,15,1.235,"Right",30,15,15,0,15,0,-15,-20,-5
"346",6,"LOF5-LOF6",-0.2185765625,-0.2489088835,-0.2572493035,-0.3116882085,-0.2364850765,0.0410735565,-0.0439025935,-0.0702134425,-0.1383142855,-0.2386045425,-0.0266790355,0.0517393365,2174,"DG_s11",14.984,15.593,16.828,16.843,10,10,30,15,1.235,"Right",30,15,15,0,15,0,-15,-20,-5
"347",6,"LIN3-LIN4",0.0765425435,0.1711711455,0.0170040145,-0.0226142235,0.0527447435,0.0523951365,-0.0688016905,-0.1807530575,-0.1440970185,0.1362290185,0.1354154635,0.0844574395,2174,"DG_s11",14.984,15.593,16.828,16.843,10,10,30,15,1.235,"Right",30,15,15,0,15,0,-15,-20,-5
"348",6,"LIN5-LIN6",-0.2872872676,-0.3014553,-0.465162873,-0.572715603,-0.540411129,-0.334457019,-0.41280597,-0.538292905,-0.446150471,-0.474314715,-0.669195119,-0.684882244,2174,"DG_s11",14.984,15.593,16.828,16.843,10,10,30,15,1.235,"Right",30,15,15,0,15,0,-15,-20,-5
"349",6,"LHH7-LHH8",0.141910161,-0.027304549,0.003225504,0.271699584,0.158128512,-0.002638236,0.0251240951,-0.0010672209,0.086222257,0.049476421,-0.05404884097,0.00691150053,2174,"DG_s11",14.984,15.593,16.828,16.843,10,10,30,15,1.235,"Right",30,15,15,0,15,0,-15,-20,-5
"350",6,"LHH6-LHH7",-0.06009662155,-0.22601152005,-0.20877695605,-0.16645046955,-0.11348403755,-0.04451550945,-0.10908622875,-0.04216758485,0.17267657045,0.03247315445,-0.18852835055,-0.14410855655,2174,"DG_s11",14.984,15.593,16.828,16.843,10,10,30,15,1.235,"Right",30,15,15,0,15,0,-15,-20,-5
"351",6,"RTH7-RTH8",-0.04692594595,0.03490007505,-0.23469678495,-0.40448996595,-0.23788243595,0.01073093405,0.04235951405,-0.14584711515,-0.23890855915,-0.00197871995,0.22751459005,0.08225007405,2174,"DG_s11",14.984,15.593,16.828,16.843,10,10,30,15,1.235,"Right",30,15,15,0,15,0,-15,-20,-5
"352",6,"LAC6-LAC7",-0.12820652915,-0.16028339515,-0.06004927015,-0.01837891315,0.13490777113,0.15526567113,0.03287492185,-0.01945610915,0.13391703085,0.16035988585,0.05478856585,0.02004691185,2174,"DG_s11",14.984,15.593,16.828,16.843,10,10,30,15,1.235,"Right",30,15,15,0,15,0,-15,-20,-5
"353",6,"RTH4-RTH5",-0.0996810083,0.0167427097,-0.1446513293,-0.2820789173,-0.1702999443,-0.1877405443,-0.2486083623,-0.0587233223,0.0153439587,0.0337151597,0.0674045837,-0.0702721573,2174,"DG_s11",14.984,15.593,16.828,16.843,10,10,30,15,1.235,"Right",30,15,15,0,15,0,-15,-20,-5
"354",6,"RTH1-RTH2",-0.0268656325,0.2128394855,0.1705111025,0.1606931025,0.2554353355,0.0278579526,0.0343613947,0.3149217476,0.3675334655,0.1884890625,0.1430247835,-0.0630149835,2174,"DG_s11",14.984,15.593,16.828,16.843,10,10,30,15,1.235,"Right",30,15,15,0,15,0,-15,-20,-5
"355",6,"LIN7-LIN8",-0.0186607523,-0.1201670858,-0.0261563598,0.0868720717,0.0970516897,0.0782118967,-0.0230168443,-0.0693020713,0.1446925077,0.3926631077,0.1973400937,0.0306645531,2174,"DG_s11",14.984,15.593,16.828,16.843,10,10,30,15,1.235,"Right",30,15,15,0,15,0,-15,-20,-5
"356",6,"RIN5-RIN6",0.2285501415,0.2989542285,0.0158212485,0.1612380725,0.5627723525,0.7018609525,0.4492035455,0.3503095495,0.3272492505,0.0496471045,0.0339198805,0.1195924225,2174,"DG_s11",14.984,15.593,16.828,16.843,10,10,30,15,1.235,"Right",30,15,15,0,15,0,-15,-20,-5
"357",6,"RAM1-RAM2",0.154475736,0.253462282,0.058304369,0.01253556,0.0239829,0.282329274,0.424449987,0.220366706,0.272576411,0.440092602,0.333807947,0.155099147,2174,"DG_s11",14.984,15.593,16.828,16.843,10,10,30,15,1.235,"Right",30,15,15,0,15,0,-15,-20,-5
"358",6,"LAC1-LAC2",-0.044125997,-0.0648013238,-0.1336791318,-0.146520695,-0.242429645,-0.080359315,0.113321298,0.199429898,0.057750463,-0.157939462,-0.273074652,-0.197115918,2174,"DG_s11",14.984,15.593,16.828,16.843,10,10,30,15,1.235,"Right",30,15,15,0,15,0,-15,-20,-5
"359",6,"LAC9-LAC10",-0.160288183,0.069159087,0.3049640598,0.3053257498,0.119551914,0.062714197,0.06622426,0.094794036,0.31115849,0.368249127,0.340866053,0.285767921,2174,"DG_s11",14.984,15.593,16.828,16.843,10,10,30,15,1.235,"Right",30,15,15,0,15,0,-15,-20,-5
"360",6,"LAC8-LAC9",-0.0231261835,0.1370448095,0.0554465795,-0.00587662536,0.24590298964,0.1392614815,-0.1610055005,0.0071126225,0.1206233895,0.1488425415,-0.0240777735,-0.0797192378,2174,"DG_s11",14.984,15.593,16.828,16.843,10,10,30,15,1.235,"Right",30,15,15,0,15,0,-15,-20,-5
"361",6,"RAM3-RAM4",-0.20337412595,-0.14827404595,-0.15530651765,-0.16613463465,-0.30838747165,-0.11977084065,0.08312254435,-0.08172693865,-0.13912228025,0.03065223275,0.15584784355,-0.08967694145,2174,"DG_s11",14.984,15.593,16.828,16.843,10,10,30,15,1.235,"Right",30,15,15,0,15,0,-15,-20,-5
"362",6,"RTH5-RTH6",-0.0720583082,-0.0279172922,-0.2277184235,-0.3124758185,-0.2111852533,-0.2242504433,-0.2617064425,-0.1938445535,-0.1433965785,-0.1563462115,-0.0271483281,-0.0639649861,2174,"DG_s11",14.984,15.593,16.828,16.843,10,10,30,15,1.235,"Right",30,15,15,0,15,0,-15,-20,-5
"363",6,"RAM5-RAM6",0.0341163605,0.1980731605,0.2495538175,0.1959942665,0.0570507995,0.0427137995,0.2769994415,0.3026757315,0.1309221205,0.4133148915,0.3968699705,0.0094247005,2174,"DG_s11",14.984,15.593,16.828,16.843,10,10,30,15,1.235,"Right",30,15,15,0,15,0,-15,-20,-5
"364",6,"ROF3-ROF4",0.4113132057,0.486351345,0.206499881,0.038159653,-0.042042533,-0.007939616,0.076427044,0.033132271,0.315328161,0.446949401,-0.028547099,-0.177213552,2174,"DG_s11",14.984,15.593,16.828,16.843,10,10,30,15,1.235,"Right",30,15,15,0,15,0,-15,-20,-5
"365",6,"LPC7-LPC8",0.24013323245,0.46754803845,0.27204621445,0.05044947445,0.19117089845,0.17718441845,-0.16134284155,-0.03253346145,0.24418383855,0.05452494845,0.09269215845,0.15336257845,2174,"DG_s11",14.984,15.593,16.828,16.843,10,10,30,15,1.235,"Right",30,15,15,0,15,0,-15,-20,-5
"366",6,"LIN1-LIN2",0.3929078785,0.4448365835,0.1435989765,0.0427300565,0.0776038034,0.1060824554,0.1604947395,-0.1137096125,-0.1314610719,0.0361516381,-0.0658606025,-0.0343473745,2174,"DG_s11",14.984,15.593,16.828,16.843,10,10,30,15,1.235,"Right",30,15,15,0,15,0,-15,-20,-5
"367",6,"LIN8-LIN9",0.0139292395,0.0286070834,0.1985760504,0.3220715399,0.0882210749,-0.0494578374,-0.01604682,0.0777632339,0.1215445615,0.1623790325,0.0801823075,0.1902652975,2174,"DG_s11",14.984,15.593,16.828,16.843,10,10,30,15,1.235,"Right",30,15,15,0,15,0,-15,-20,-5
"368",6,"ROF1-ROF2",0.0186111725,0.0417818134,0.0177139084,0.0753491185,0.0666059485,-0.0550653695,0.0283688505,0.2511141335,0.1502509835,0.3633133505,0.3224097635,0.0343317735,2174,"DG_s11",14.984,15.593,16.828,16.843,10,10,30,15,1.235,"Right",30,15,15,0,15,0,-15,-20,-5
"369",6,"RAM6-RAM7",-0.01649160108,0.11702601892,-0.17286571708,-0.23328966708,-0.04086033408,0.11315106992,0.47355213692,0.33053698492,0.14370273492,0.16444271092,0.10572181092,0.08048788792,2174,"DG_s11",14.984,15.593,16.828,16.843,10,10,30,15,1.235,"Right",30,15,15,0,15,0,-15,-20,-5
"370",6,"LOF3-LOF4",0.0241960545,-0.0574786765,0.0839070575,0.1075374923,0.1535323923,0.2419846785,0.00859628550000001,0.0186398655,0.2617347485,0.3086655015,0.1677478215,0.0676232585,2174,"DG_s11",14.984,15.593,16.828,16.843,10,10,30,15,1.235,"Right",30,15,15,0,15,0,-15,-20,-5
"371",6,"RIN6-RIN7",0.303811126,0.338706057,0.082891336,0.154950067,0.496604188,0.703555098,0.510985898,0.221081367,0.10598821142,0.00529640211999999,0.0359536687,0.067788277,2174,"DG_s11",14.984,15.593,16.828,16.843,10,10,30,15,1.235,"Right",30,15,15,0,15,0,-15,-20,-5
"372",6,"LIN6-LIN7",-0.4746255386,-0.3064048025,-0.3512421215,-0.4204962365,-0.3928802985,-0.4460877775,-0.5102971475,-0.5288277265,-0.5175318315,-0.3945062005,-0.3555987055,-0.4361032135,2174,"DG_s11",14.984,15.593,16.828,16.843,10,10,30,15,1.235,"Right",30,15,15,0,15,0,-15,-20,-5
"373",6,"LTH6-LTH7",0.1656307435,-0.0124462845,0.0452729315,0.0786867985,0.2130847465,0.3578822265,0.1820801495,-0.0516982695,-0.1030371655,0.0590346218,0.0527188578,-0.0764256795,2174,"DG_s11",14.984,15.593,16.828,16.843,10,10,30,15,1.235,"Right",30,15,15,0,15,0,-15,-20,-5
