"","trial","electrodes","bin_3","bin_4","bin_5","bin_6","bin_7","bin_8","bin_9","bin_10","bin_11","bin_12","bin_13","bin_14","bin_15","bin_16","bin_17","bin_18","bin_19","bin_20","bin_21","bin_22","bin_23","bin_24","bin_25","X","SID","newround_time","choice_time","buttonpress_time","reveal_time","self_payoff","other_payoff","self_foregone","other_foregone","RT","side_chosen","self_var_payoff","other_var_payoff","ineq_var_abs","ineq_choice_abs","ineq_foregone_abs","ineq_disadvent","ineq_advent","ineq_choice","chose_equality","self_diff","other_diff","L_self","R_self","L_other","R_other"
"1",1,"LIN2-LIN3",0.05090119065,-0.00593913268333333,0.0705286805833333,0.10260662325,0.17832230325,0.180021697983333,0.235913711316667,0.16775867665,0.05421835865,-0.0202453480166667,-0.0518040146833333,-0.0510014366833333,-0.102983926016667,0.0464618219833333,-0.00565692468333333,-0.0681341486833333,-0.22400031535,-0.06893051535,0.00278616065,0.00318714465,-0.169958642016667,-0.0677563846833333,-0.0390123980166667,2169,"DG_s11",-0.61,0,2.015,2.031,10,10,10,18,2.015,"Left",10,18,8,0,8,8,0,-8,"10-10",0,-8,10,10,10,18
"2",1,"LIN9-LIN10",-0.0147234761666667,0.0300620458333333,-0.0315363855,0.0533370018333333,0.0343594031666667,0.0580438965,0.0459618275,0.109924114833333,0.157714489833333,0.120210838833333,0.0676133388333333,0.175495893166667,0.146476693166667,0.200749853166667,0.0542913598333333,0.0203621265,-0.0940331281666667,-0.0204470612333333,0.279900778766667,0.414622570766667,0.430021197166667,0.304354857166667,0.285459753166667,2169,"DG_s11",-0.61,0,2.015,2.031,10,10,10,18,2.015,"Left",10,18,8,0,8,8,0,-8,"10-10",0,-8,10,10,10,18
"3",1,"LIN3-LIN4",0.508339018133333,0.5691709048,0.505096351466667,0.2857956408,0.350350059466667,0.334598966133333,0.394545440133333,0.2823321228,0.286595485466667,0.1690072088,0.0398076774666667,0.0464509081333333,0.165213707466667,0.2977747188,0.2045241588,0.285154818133333,0.267607312133333,0.520273752133333,0.391751793466667,0.346569771466667,0.169781338133333,0.230190511466667,0.189803378133333,2169,"DG_s11",-0.61,0,2.015,2.031,10,10,10,18,2.015,"Left",10,18,8,0,8,8,0,-8,"10-10",0,-8,10,10,10,18
"4",1,"RIN9-RIN10",0.232360122333333,0.230878195666667,0.0803471763333333,-0.00362047833333333,-0.187066525,-0.165465913666667,-0.206601469,-0.142163277,0.0101879996666667,0.133544548333333,0.154292523,0.0552312962643333,-0.006595989069,-0.00151258040233333,-0.0334330736666667,-0.0723956303333333,-0.117949345666667,-0.114134815666667,-0.0693775476666667,-0.124150374333333,-0.0968011763333333,-0.0925302783333333,0.0143781836666667,2169,"DG_s11",-0.61,0,2.015,2.031,10,10,10,18,2.015,"Left",10,18,8,0,8,8,0,-8,"10-10",0,-8,10,10,10,18
"5",1,"LIN4-LIN5",0.0890979533333333,0.169175106666667,0.0728455693333333,-0.040981584,-0.0839181324666667,-0.0438888821266667,-0.03129092346,-0.02683436166,0.0349973853333333,0.150046203333333,0.143064903333333,0.111366574666667,-0.00570521933333333,0.0563545186666667,0.135274727333333,0.167082642,0.126587912,0.0414925726666667,-0.0250691793333333,0.083491126,0.113971458666667,0.173460781333333,-0.015641192,2169,"DG_s11",-0.61,0,2.015,2.031,10,10,10,18,2.015,"Left",10,18,8,0,8,8,0,-8,"10-10",0,-8,10,10,10,18
"6",1,"RIN1-RIN2",-0.0679642551666667,-0.180438561833333,-0.175142445833333,-0.155458921833333,-0.190614821833333,-0.1760025925,-0.0152704458333334,0.0630089408333333,0.0931615781666666,0.1661463315,0.0716971448333333,0.00815381663333331,-0.250649350033333,-0.240482757366667,-0.0257106125,-0.157313245833333,-0.0672304151666667,-0.139140205166667,-0.0496056445,-0.198007033166667,-0.1985432665,-0.129088797833333,-0.0847681725,2169,"DG_s11",-0.61,0,2.015,2.031,10,10,10,18,2.015,"Left",10,18,8,0,8,8,0,-8,"10-10",0,-8,10,10,10,18
"7",1,"RIN3-RIN4",0.100150398533333,0.1039229192,0.135703213,0.0766160671333333,0.0274235738,0.00251083,0.118735734,0.0811426873333333,0.00698188666666667,0.02892004,0.061865034,0.0666422782,0.0116138182,0.0534014729333333,0.1743653206,0.0727221163333333,0.0333094609333333,0.0105234330666667,0.127719088933333,0.131254784933333,0.0029434696,0.0701514446666667,0.073018374,2169,"DG_s11",-0.61,0,2.015,2.031,10,10,10,18,2.015,"Left",10,18,8,0,8,8,0,-8,"10-10",0,-8,10,10,10,18
"8",1,"RIN2-RIN3",0.0310920567,-0.0297957461666667,0.0573281178333333,0.0180405311666667,0.144060259166667,0.367303259166667,0.2779492145,0.214371303833333,-0.0453867161666667,0.108604401833333,0.0885130891666667,-0.0094238375,-0.251047678833333,-0.3039396235,-0.204838472966667,-0.141371304966667,-0.106467015633333,0.1940782205,0.284911681833333,0.359133601166667,0.0247320971666667,-0.0111303235,-0.112749998833333,2169,"DG_s11",-0.61,0,2.015,2.031,10,10,10,18,2.015,"Left",10,18,8,0,8,8,0,-8,"10-10",0,-8,10,10,10,18
"9",1,"LIN1-LIN2",0.0241816855,0.0209238841666667,-0.0482039245,-0.109093357833333,-0.1581544625,-0.0522272231666667,-0.0329676698333333,-0.119462697166667,-0.3276366905,-0.345067155833333,-0.223284195833333,-0.119739549166667,-0.0973858458333333,-0.162893075166667,-0.1797695937,-0.2158528517,-0.2327198697,-0.135475591166667,-0.0397490418333333,0.00464908883333334,-0.0880029337,-0.123738423033333,-0.0673227063666667,2169,"DG_s11",-0.61,0,2.015,2.031,10,10,10,18,2.015,"Left",10,18,8,0,8,8,0,-8,"10-10",0,-8,10,10,10,18
"10",2,"LIN9-LIN10",-0.0453730676666667,-0.0891972143333333,-0.197668104333333,-0.207135737666667,-0.187454191,-0.105112394333333,-0.020042823,0.013344417,0.108277587,-0.0170253416666667,-0.0556100823333333,-0.204262135666667,-0.231166422333333,-0.252984313666667,-0.226729207,-0.0368029423333333,0.013977925,0.211539471666667,0.213983149,0.134691972333333,-0.176436514333333,-0.0865871743333333,-0.0315141583333333,2170,"DG_s11",3.031,3.64,4.797,4.812,12,12,10,10,1.157,"Left",12,12,0,0,0,0,0,0,"Equal",2,2,12,10,12,10
"11",2,"RIN2-RIN3",-0.163897625716667,-0.31939108305,-0.48236122305,-0.538336011716667,-0.626931227716667,-0.477169401716667,-0.294239968383333,-0.23411821505,-0.366155443716667,-0.507713070116667,-0.461984784783333,-0.48152834945,-0.531066628383333,-0.614121120383333,-0.606673196383333,-0.504718818383333,-0.351656999983333,-0.43707291065,-0.496638133316667,-0.513293031716667,-0.366485015716667,-0.20591719905,-0.26937224905,2170,"DG_s11",3.031,3.64,4.797,4.812,12,12,10,10,1.157,"Left",12,12,0,0,0,0,0,0,"Equal",2,2,12,10,12,10
"12",2,"LIN3-LIN4",0.226805577866667,0.103873174533333,0.0818223015333333,0.0108022936666667,-0.000221685666666659,-0.046472927,-0.0171946723333333,0.215312907,0.397255261666667,0.330308110333333,0.0374490436666667,-0.161017609933333,-0.1040140666,-0.0090230026,0.032997257,-0.0307379656666667,0.0496412983333333,0.0336750232,0.225467949866667,0.3221876052,0.393772315666667,0.383866975666667,0.191931480333333,2170,"DG_s11",3.031,3.64,4.797,4.812,12,12,10,10,1.157,"Left",12,12,0,0,0,0,0,0,"Equal",2,2,12,10,12,10
"13",2,"LIN4-LIN5",-0.229244627,-0.240934693666667,-0.241118663666667,-0.180521624333333,-0.167278230133333,-0.163211365106667,-0.14966048444,-0.130300634506667,-0.0546066762,0.0928009904666666,0.090972421,-0.115583539,-0.178066823666667,-0.0660357316666667,0.0577750263333333,0.0603855416666667,0.0786393816666666,0.0388405723333334,-0.142648825,-0.2817029654,-0.257179900733333,-0.211954918733333,-0.138097698333333,2170,"DG_s11",3.031,3.64,4.797,4.812,12,12,10,10,1.157,"Left",12,12,0,0,0,0,0,0,"Equal",2,2,12,10,12,10
"14",2,"RIN9-RIN10",-0.0649297296933333,-0.15010990036,-0.0720083116933333,-0.147014557093333,-0.231212063093333,-0.33193228776,-0.283387097026667,-0.25841115436,-0.312338847026667,-0.258383415026667,-0.17885229636,-0.02420591236,-0.0182177450266666,-0.0809117936933333,-0.182372126293333,-0.250422892293333,-0.188978083626667,-0.158410025026667,-0.153165030026667,-0.235316448026667,-0.155217857513333,0.114446109486667,0.125492827486667,2170,"DG_s11",3.031,3.64,4.797,4.812,12,12,10,10,1.157,"Left",12,12,0,0,0,0,0,0,"Equal",2,2,12,10,12,10
"15",2,"LIN2-LIN3",-0.00922551583333333,0.0650222701666667,0.0877240253,0.0360648615666667,0.0495421022333333,0.0151250957666667,0.0125275581666667,0.00784139683333334,0.0446310521666667,0.1598714575,0.0940621088333333,0.0137528188333333,-0.0809422198333333,-0.101665581166667,-0.0466209333,-0.109726527966667,-0.0449917279666667,-0.0523794985,0.0845035948333333,0.234266728166667,0.264242818833333,0.166654608833333,-0.0185082498333333,2170,"DG_s11",3.031,3.64,4.797,4.812,12,12,10,10,1.157,"Left",12,12,0,0,0,0,0,0,"Equal",2,2,12,10,12,10
"16",2,"RIN3-RIN4",-0.139351876566667,-0.210118117233333,-0.3217653859,-0.3800122145,-0.411404405166667,-0.2421690205,-0.2331885365,-0.0357537578333333,-0.0458343538333334,0.0494754121666666,-0.0372026611666667,-0.128613823833333,-0.242964383166667,-0.312078951833333,-0.365047369166667,-0.262448527166667,-0.3135163185,-0.288120907166667,-0.359004285833333,-0.3323232935,-0.2518566435,-0.1965003083,-0.0614949539666667,2170,"DG_s11",3.031,3.64,4.797,4.812,12,12,10,10,1.157,"Left",12,12,0,0,0,0,0,0,"Equal",2,2,12,10,12,10
"17",2,"LIN1-LIN2",-0.0333831677,0.0101451205,-0.0850732268333333,-0.147913082166667,-0.1560617159,-0.0595040799,-0.0808944325666667,-0.142021418833333,-0.165961598166667,-0.112565832833333,-0.141615158166667,-0.197467586833333,-0.1559411895,-0.0845094241666667,0.0064771579,-0.0757983547666667,-0.0579619534333333,-0.135071388633333,-0.0300957739666667,0.0146368047,0.0201516898333333,-0.0657271641666667,-0.172580730833333,2170,"DG_s11",3.031,3.64,4.797,4.812,12,12,10,10,1.157,"Left",12,12,0,0,0,0,0,0,"Equal",2,2,12,10,12,10
"18",2,"RIN1-RIN2",-0.260935297666667,-0.194478267066667,-0.123306773733333,0.0382755416666667,-0.0115011489333333,-0.102684534933333,-0.292974659,-0.337103597666667,-0.224478871666667,-0.0610412916666667,0.00676575566666668,-0.0778540676666667,-0.0956292423333333,-0.137051763666667,-0.0958738176666667,0.044770657,0.266775018,0.128798281333333,-0.100522256,-0.259822789,-0.172401848333333,-0.113051550333333,-0.192552224333333,2170,"DG_s11",3.031,3.64,4.797,4.812,12,12,10,10,1.157,"Left",12,12,0,0,0,0,0,0,"Equal",2,2,12,10,12,10
"19",3,"RIN1-RIN2",0.159545899466667,0.113761216133333,0.1262438308,0.176510884133333,0.160644096133333,0.139063764133333,0.0784236734666667,0.0995961599333333,0.121732899933333,0.175885301266667,0.2223145028,0.246716456133333,0.1855195528,0.1053704968,0.0319392368,-0.0290479172,-0.154903957866667,-0.0023134112,0.159788902133333,0.282552645466667,0.1431199428,0.0113449461333333,-0.0445428325333333,2171,"DG_s11",5.812,6.422,7.89,7.89,10,10,8,8,1.468,"Left",8,8,0,0,0,0,0,0,"10-10",2,2,10,8,10,8
"20",3,"LIN2-LIN3",-0.152071975,0.075706359,0.172827257,0.27990376926,0.174329383926667,0.150931129993333,0.169969921733333,0.215567553733333,0.242114764333333,0.3220308692,0.3985410492,0.5248792092,0.366030284333333,0.247904499,0.134594517,0.135385737,0.146108178333333,0.0503195743333333,0.0384823963333333,-0.104331967666667,-0.0940544660666666,-0.0469416920666667,0.0521174159333333,2171,"DG_s11",5.812,6.422,7.89,7.89,10,10,8,8,1.468,"Left",8,8,0,0,0,0,0,0,"10-10",2,2,10,8,10,8
"21",3,"RIN3-RIN4",0.0431079964,0.0409080938666667,0.00610892166666667,-0.0354127723333333,-0.11936554564,-0.16407824624,-0.0759326509066667,-0.00326817093333333,-0.0470754583333333,-0.177095879,-0.101867574333333,0.032161941,0.131581623,0.057846883,0.00937767700000001,-0.0515576802666667,-0.0225623196,-0.0282884456,0.124127856333333,0.139090515666667,0.181715587,-0.0209854596666667,-0.00507822633333333,2171,"DG_s11",5.812,6.422,7.89,7.89,10,10,8,8,1.468,"Left",8,8,0,0,0,0,0,0,"10-10",2,2,10,8,10,8
"22",3,"RIN2-RIN3",0.301025041893333,0.269808307226667,0.263576677926667,0.170534683266667,0.1052847426,0.0412792011666667,0.0970067341933333,0.157599141526667,0.146164938526667,0.1567967915,0.255306684833333,0.3400362799,0.3940670007,0.260426645366667,0.269118477366667,0.1849172799,0.0621433685666667,0.0749358092333333,0.1124918999,0.349833973233333,0.400555732566667,0.40713765388,0.35520445388,2171,"DG_s11",5.812,6.422,7.89,7.89,10,10,8,8,1.468,"Left",8,8,0,0,0,0,0,0,"10-10",2,2,10,8,10,8
"23",3,"LIN9-LIN10",0.0939503618333333,0.102293157973333,0.18917878264,0.0261946773066667,0.0933313345,0.0973995525,0.0885282431666667,0.0782937298333333,-0.00951713950000001,0.0889778418333333,0.0241589151666667,0.170208631166667,0.294927557833333,0.297086157833333,0.323134035833333,0.0510612805,-0.0351133868333333,-0.147202714833333,-0.0484536435,-0.0498536761666667,-0.1300357955,-0.162729178166667,0.0532862818333333,2171,"DG_s11",5.812,6.422,7.89,7.89,10,10,8,8,1.468,"Left",8,8,0,0,0,0,0,0,"10-10",2,2,10,8,10,8
"24",3,"RIN9-RIN10",0.41251161965,0.302143184316667,0.194458370316667,0.11169592165,0.199127130316667,0.274446838183333,0.31464855485,0.14760409485,0.199437954983333,0.17418111165,0.24265640565,0.242035524316667,0.30086604965,0.272005096983333,0.24693114165,0.22601945765,0.211545336716667,0.09820953405,0.09668780805,0.0760152369833333,0.08119377165,0.02152906965,0.11755241365,2171,"DG_s11",5.812,6.422,7.89,7.89,10,10,8,8,1.468,"Left",8,8,0,0,0,0,0,0,"10-10",2,2,10,8,10,8
"25",3,"LIN4-LIN5",-0.251508507466667,-0.223359281466667,-0.195054190333333,-0.291097913666667,-0.311644769666667,-0.322326143,-0.205595190333333,-0.203817585,-0.199102884333333,-0.164293801,-0.121585786333333,-0.206717741666667,-0.194371409,-0.203747839666667,-0.246432941,-0.389794395666667,-0.463374880333333,-0.3340588026,-0.3033010366,-0.365903219266667,-0.402458326333333,-0.320186098333333,-0.218542552333333,2171,"DG_s11",5.812,6.422,7.89,7.89,10,10,8,8,1.468,"Left",8,8,0,0,0,0,0,0,"10-10",2,2,10,8,10,8
"26",3,"LIN3-LIN4",-0.0657315206166667,-0.00775016394999999,-0.0455455066166667,-0.0509320230833333,0.00442714025,0.142246295583333,0.199738783383333,0.37314773005,0.200765000716667,0.27673399205,0.216385825383333,0.31344033205,0.257782979383333,0.201633404716667,0.115030257383333,0.23789081005,0.191193117383333,0.17610169405,0.00139941738333334,-0.0366573226166667,0.000371968050000004,-0.0562879232833333,0.0344210965833333,2171,"DG_s11",5.812,6.422,7.89,7.89,10,10,8,8,1.468,"Left",8,8,0,0,0,0,0,0,"10-10",2,2,10,8,10,8
"27",3,"LIN1-LIN2",0.072454373455,0.0762625881216667,0.063800380255,-0.0231523124116667,0.0330156955883333,0.00220621492166667,0.0737136629216667,0.0476622095883333,0.116615208255,0.152516736921667,0.221632910255,0.303632320921667,0.334825462255,0.329905508921667,0.315748191588333,0.260522985388333,0.149233162721667,0.049083666055,0.165211557588333,0.217237126921667,0.335000227588333,0.304076927588333,0.299599720921667,2171,"DG_s11",5.812,6.422,7.89,7.89,10,10,8,8,1.468,"Left",8,8,0,0,0,0,0,0,"10-10",2,2,10,8,10,8
"28",4,"LIN1-LIN2",-0.0803096715,-0.00440441549999999,-0.0122988735,-0.0988807121666667,-0.1732243875,-0.154173958166667,-0.225832840833333,-0.163348178566667,-0.0902440219,-0.0213478419,-0.0749217848333333,-0.0842382315,-0.155905224833333,-0.0626599295,-0.0827853028333333,0.0282725931666667,0.00624068983333334,-0.0313266235,-0.0408901768333333,-0.106078390166667,-0.1460389075,-0.0515803901666667,0.0629945278333333,2172,"DG_s11",8.89,9.5,10.922,10.922,10,10,28,4,1.422,"Right",28,4,24,0,24,0,-24,24,"10-10",-18,6,28,10,4,10
"29",4,"LIN9-LIN10",0.130905689316667,0.253312561316667,0.12413457865,0.113703399983333,-0.0219508760166667,-0.127694404016667,-0.09569899935,-0.0252151900166667,0.270658743316667,0.37332145465,0.311969387983333,0.151809065316667,0.0294666453166667,0.102171185983333,0.14922035665,0.27081193665,0.319857059316667,0.41728734465,0.32921540865,0.389334993983333,0.31294064065,0.381570783316667,0.431219521316667,2172,"DG_s11",8.89,9.5,10.922,10.922,10,10,28,4,1.422,"Right",28,4,24,0,24,0,-24,24,"10-10",-18,6,28,10,4,10
"30",4,"LIN4-LIN5",-0.1326317138,-0.103880475,-0.250217289,-0.372931355,-0.417490690333333,-0.325467665333333,-0.252726425333333,-0.0945699553333333,-0.106743593666667,-0.0185491043333333,-0.0256692663333333,0.0916344636666667,0.111404232333333,0.0544565323333333,-0.0100656962,-0.0511812215333333,-0.00318704619999999,-0.0186707676666667,-0.00751137473333333,-0.0851866827333333,-0.0521387654,-0.145604748333333,-0.0817695023333333,2172,"DG_s11",8.89,9.5,10.922,10.922,10,10,28,4,1.422,"Right",28,4,24,0,24,0,-24,24,"10-10",-18,6,28,10,4,10
"31",4,"LIN2-LIN3",0.169084416483333,0.194202882283333,0.145348746283333,0.147396146416667,0.149696819083333,0.0634611270833333,0.0834186750833333,0.251823600416667,0.34313128575,0.281094418416667,0.160290857083333,0.330683725083333,0.275511954416667,0.23039028575,0.0694272744166667,0.206661506416667,0.207045236416667,0.25403542775,0.158030743283333,0.154148915283333,0.06558977995,0.0964396764166666,0.0260666844166667,2172,"DG_s11",8.89,9.5,10.922,10.922,10,10,28,4,1.422,"Right",28,4,24,0,24,0,-24,24,"10-10",-18,6,28,10,4,10
"32",4,"RIN2-RIN3",0.1337513105,0.205404803166667,0.0986605245,0.0448402311666667,-0.0595601148333333,-0.0516084035,0.0518640491666667,-0.000133830433333334,0.0163273889,-0.163532063766667,-0.1717673975,-0.104641480166667,0.0425395531666667,0.0071777245,-0.0915023448333333,0.0266732085,0.146603283833333,0.1998668705,0.0657116398333333,-0.0234906668333333,-0.0711006095,-0.125951584833333,0.00315548183333333,2172,"DG_s11",8.89,9.5,10.922,10.922,10,10,28,4,1.422,"Right",28,4,24,0,24,0,-24,24,"10-10",-18,6,28,10,4,10
"33",4,"RIN1-RIN2",-0.160269904666667,-0.0210025243333333,-0.0692159183333333,0.028401565,-0.0182919046666667,0.0279003993333333,0.00462553666666667,0.118365857333333,0.240065693333333,0.385706006,0.288346412666667,0.125355002666667,0.0353921193333333,0.0388714355333333,0.0224440788666667,0.0482521175333333,0.124713890666667,0.172420196,0.105809498,0.171545588666667,0.32458255,0.318955606,0.124047291333333,2172,"DG_s11",8.89,9.5,10.922,10.922,10,10,28,4,1.422,"Right",28,4,24,0,24,0,-24,24,"10-10",-18,6,28,10,4,10
"34",4,"LIN3-LIN4",0.152263306666667,0.151933152,0.0848203873333333,0.0676834766666667,0.00703265,0.0172258906666667,-0.0119577494666667,0.0803263318666667,0.0494767545333333,0.185630741333333,0.112737499333333,0.157504907333333,0.01473276,0.0418887566666667,-0.0229387013333333,-0.0374399746666667,-0.0891734166666667,1.79386666666684e-05,-0.0181253046666667,0.0913397113333333,0.086266876,0.116063236,0.215069689333333,2172,"DG_s11",8.89,9.5,10.922,10.922,10,10,28,4,1.422,"Right",28,4,24,0,24,0,-24,24,"10-10",-18,6,28,10,4,10
"35",4,"RIN9-RIN10",-0.0391272661666667,-0.0615675475,-0.1177810335,-0.137296530833333,0.0212720025,0.0598446158333333,0.0304197725,-0.0885687901666667,0.0271853891666667,0.167358953833333,0.315686183166667,0.312956949833333,0.332960641833333,0.187492976966667,0.0944882749666667,0.0843579529666667,0.1335964305,0.0731541991666667,-0.0853856041666667,-0.0198613635,-0.0085795295,0.139658763833333,0.0233400838333333,2172,"DG_s11",8.89,9.5,10.922,10.922,10,10,28,4,1.422,"Right",28,4,24,0,24,0,-24,24,"10-10",-18,6,28,10,4,10
"36",4,"RIN3-RIN4",0.465306494833333,0.3614750565,0.161347487833333,0.0756768111666667,0.0674097957,-0.0109594023,0.150790076366667,0.193336974833333,0.264477417833333,0.130520271833333,0.0531427511666667,0.0506865948333333,0.1136196975,0.139924958166667,0.219998032833333,0.2377852855,0.225826354833333,0.199211062833333,0.0602261755,0.0292417935666667,-0.0592499737666667,0.0551428355666667,0.116028296833333,2172,"DG_s11",8.89,9.5,10.922,10.922,10,10,28,4,1.422,"Right",28,4,24,0,24,0,-24,24,"10-10",-18,6,28,10,4,10
"37",5,"RIN1-RIN2",0.284120764433333,0.259540746433333,0.261905836833333,0.1273023155,0.0787678448333333,-0.0329309838333333,-0.0795219551666667,-0.104726583166667,-0.0370120331666667,0.0477973495,0.0443095661666667,-0.0715356211666667,-0.100047093833333,-0.151488293833333,-0.120710635166667,-0.146303379166667,-0.136548245833333,-0.113100039833333,-0.0473161471666667,0.0110870361666667,0.112724156166667,0.1264912175,0.1235143255,2173,"DG_s11",11.922,12.531,13.968,13.968,10,10,22,6,1.437,"Left",22,6,16,0,16,0,-16,16,"10-10",-12,4,10,22,10,6
"38",5,"LIN2-LIN3",-0.129421059641667,-0.115222812308333,-0.0421300003083333,0.151327093025,0.113839496358333,0.0208260516916667,-0.0839078883083333,-0.0243988683083333,-0.026268930975,-0.128742332975,-0.020230532975,0.00293643769166667,0.207993199691667,0.0801161483583333,0.0179613883583333,-0.125408884308333,-0.0614703423083333,-0.105151575641667,-0.124277632308333,-0.265873852308333,-0.214991941508333,-0.155095878841667,-0.049295150175,2173,"DG_s11",11.922,12.531,13.968,13.968,10,10,22,6,1.437,"Left",22,6,16,0,16,0,-16,16,"10-10",-12,4,10,22,10,6
"39",5,"RIN9-RIN10",0.212118726,0.0847649933333333,0.0537167898666667,0.108150619866667,0.244324608533333,0.420302776666667,0.365373724466667,0.323669253133333,0.1890212598,0.296829722666667,0.21014301,0.212182812,0.235517944666667,0.252309301866667,0.268092911866667,0.203998463866667,0.190427520666667,0.120164295333333,0.108121037333333,0.133642200666667,0.22144131,0.162611297333333,0.158695050666667,2173,"DG_s11",11.922,12.531,13.968,13.968,10,10,22,6,1.437,"Left",22,6,16,0,16,0,-16,16,"10-10",-12,4,10,22,10,6
"40",5,"LIN4-LIN5",-0.0559427278833333,-0.0289933058833333,0.100680280116667,0.09331022805,0.01767186205,0.0979471627166667,0.230402988116667,0.269030400116667,0.121293252116667,-0.02729679055,-0.07591719655,-0.06598384055,0.05903190945,0.134393078783333,0.22740611345,0.14343472545,0.0783741733166667,0.00362995331666667,-0.05182469935,-0.0577412618833333,-0.0479548992166667,0.179165374116667,0.239900306116667,2173,"DG_s11",11.922,12.531,13.968,13.968,10,10,22,6,1.437,"Left",22,6,16,0,16,0,-16,16,"10-10",-12,4,10,22,10,6
"41",5,"RIN3-RIN4",0.1856005425,0.1768131105,0.2626263185,0.256839005966667,0.128099924633333,0.0225511426333333,0.0204296178333333,0.0503341102333333,0.224130257566667,0.3792990349,0.414782301833333,0.3780161085,0.258095135166667,0.201377271033333,0.111068491033333,0.0854963663666667,0.0429409936333333,0.109926966966667,0.0910724249666667,0.141853519166667,0.0323075065,-0.0143232248333333,-0.0689447568333333,2173,"DG_s11",11.922,12.531,13.968,13.968,10,10,22,6,1.437,"Left",22,6,16,0,16,0,-16,16,"10-10",-12,4,10,22,10,6
"42",5,"LIN9-LIN10",-0.0531751848,-0.1128392448,-0.00357983613333332,0.128121023866667,0.162918463866667,0.00855805906666668,0.0692345910666667,0.0655923570666667,0.137114132533333,0.0732906338666667,0.0127641978666667,0.1021372272,0.183629540533333,0.305567000066667,0.130389366733333,0.1412079334,0.1245982972,0.0912828172,-0.0664851738,-0.221472294466667,-0.204224838066667,-0.1699517684,-0.0541840344,2173,"DG_s11",11.922,12.531,13.968,13.968,10,10,22,6,1.437,"Left",22,6,16,0,16,0,-16,16,"10-10",-12,4,10,22,10,6
"43",5,"LIN1-LIN2",0.0981495476666667,0.092416071,0.135392731933333,0.222417653933333,0.3588543066,0.375963811,0.485030798333333,0.360686973666667,0.299340113,0.404692383,0.482209234333333,0.466102729,0.250985452333333,0.212626921666667,0.231370297666667,0.303886947666667,0.375695091666667,0.403608225,0.437618663,0.402301209666667,0.3505304106,0.183532165933333,0.0443784666,2173,"DG_s11",11.922,12.531,13.968,13.968,10,10,22,6,1.437,"Left",22,6,16,0,16,0,-16,16,"10-10",-12,4,10,22,10,6
"44",5,"RIN2-RIN3",0.0185798483333333,0.034664051,0.129160121,0.185502343666667,0.168837857,0.120911849666667,-0.054446057,-0.018752795,0.0904810136666667,0.220718053666667,0.313013835,0.297640822266667,0.188173902266667,0.130337754933333,0.0735039476666667,0.190024330333333,0.232468079666667,0.238029959666667,0.214260579,0.177769733666667,0.045755987,-0.051180395,-0.100209544333333,2173,"DG_s11",11.922,12.531,13.968,13.968,10,10,22,6,1.437,"Left",22,6,16,0,16,0,-16,16,"10-10",-12,4,10,22,10,6
"45",5,"LIN3-LIN4",0.0203901643333333,0.0304830303333333,0.0473756536666667,0.182330840333333,0.201478994333333,0.274145307666667,0.203404498333333,0.189987915,0.1669910552,0.116156857866667,0.293198340533333,0.256310119,0.353486952333333,0.104028097666667,0.0908302256666667,0.00475655433333334,0.052459123,0.0261358076666667,-0.097167901,-0.080889635,-0.0799510616666667,0.0187909783333333,0.00709824053333333,2173,"DG_s11",11.922,12.531,13.968,13.968,10,10,22,6,1.437,"Left",22,6,16,0,16,0,-16,16,"10-10",-12,4,10,22,10,6
"46",6,"RIN9-RIN10",-0.133825218666667,-0.156243930666667,-0.0679929113333333,-0.0126381386666667,0.0465915426666667,-0.0722922353333333,-0.169430546066667,-0.247674056066667,-0.2093086134,-0.151205124,-0.141968921333333,-0.176011949333333,-0.231850584,-0.117046576666667,-0.0746648686666667,-0.0631733186666667,-0.194638334666667,-0.179908446,-0.078926566,-0.02724845,-0.0297388186666667,-0.149613912666667,-0.106046626,2174,"DG_s11",14.984,15.593,16.828,16.843,10,10,30,15,1.235,"Right",30,15,15,0,15,0,-15,15,"10-10",-20,-5,30,10,15,10
"47",6,"RIN2-RIN3",0.163390081333333,0.01003318,-0.0604657638666667,-0.135286649866667,-0.152331539866667,-0.194421929333333,-0.133571424666667,0.031093912,0.167500516666667,0.0618780926666667,-0.00917667733333333,-0.151439288666667,-0.0856729033333333,-0.149515832666667,-0.0295387606666667,0.0239849773333333,0.07276673,0.124333918,-0.013736282,0.0295215633333333,0.002162012,0.105660034666667,0.0907224206666667,2174,"DG_s11",14.984,15.593,16.828,16.843,10,10,30,15,1.235,"Right",30,15,15,0,15,0,-15,15,"10-10",-20,-5,30,10,15,10
"48",6,"RIN1-RIN2",-0.0181123744066667,-0.0224474180733333,0.00852947366666667,0.0259032363333333,0.054754824,0.0365293546666667,-0.016479304,-0.00845301133333333,0.145619797333333,0.261338717333333,0.308970866666667,0.119443772,-0.010079194,-0.089298046,-0.0335299116,0.0366639277333333,0.199833805733333,0.238295397333333,0.257116197333333,0.132537523333333,0.190394305333333,0.114587117333333,0.127201867333333,2174,"DG_s11",14.984,15.593,16.828,16.843,10,10,30,15,1.235,"Right",30,15,15,0,15,0,-15,15,"10-10",-20,-5,30,10,15,10
"49",6,"LIN2-LIN3",-0.110416922516667,-0.127082891183333,-0.29381393785,-0.27914904985,-0.280281043183333,-0.190393557183333,-0.18755890185,-0.14408216785,-0.0583901071833333,0.06267822015,0.0643354594833334,-0.07614203585,-0.212471639183333,-0.308799392516667,-0.339201650516667,-0.381799662583333,-0.250839755916667,-0.0895154525833333,-0.0210244531833333,0.03195825215,0.109621128816667,0.224957291483333,0.31377992615,2174,"DG_s11",14.984,15.593,16.828,16.843,10,10,30,15,1.235,"Right",30,15,15,0,15,0,-15,15,"10-10",-20,-5,30,10,15,10
"50",6,"RIN3-RIN4",-0.0275062248166667,-0.03455402215,-0.0520256328166667,-0.05350723015,0.0397312151833333,0.135301582516667,0.155089143183333,0.0603718731833333,0.0504207345166667,0.0627586331833333,0.123852567183333,0.0233339671833333,-0.0235823788166667,-0.0802921308166667,0.00873406118333333,0.04511832785,0.0406256591833333,0.135239592516667,0.170265558516667,0.209619777183333,0.0435857103166667,-0.0344609016833333,-0.12471942035,2174,"DG_s11",14.984,15.593,16.828,16.843,10,10,30,15,1.235,"Right",30,15,15,0,15,0,-15,15,"10-10",-20,-5,30,10,15,10
"51",6,"LIN1-LIN2",0.348304163833333,0.243486813833333,0.0688857471666666,0.0138209004333333,0.0992041331,0.0689670824333333,-0.0365825544333333,-0.0785276891,-0.0974088117666667,-0.0191890988333333,-0.0591950535,-0.0180797221666667,0.0830493351666667,0.119077451833333,0.114757009166667,-0.0378508161666667,-0.0127308841666667,-0.0428235661666667,-0.00612805616666667,-0.0735424995,-0.100485627566667,0.00642991509999999,0.0808606244333333,2174,"DG_s11",14.984,15.593,16.828,16.843,10,10,30,15,1.235,"Right",30,15,15,0,15,0,-15,15,"10-10",-20,-5,30,10,15,10
"52",6,"LIN3-LIN4",0.0724583785,0.0440245411666667,-0.0158432988333333,-0.0219140075,0.0022412945,-0.0265407741666667,-0.140318772166667,-0.156988732833333,-0.0168473908333333,0.0621051918333333,0.145444597166667,0.0327631605666667,-0.00324542076666666,-0.0942830767666667,-0.0771710801666667,-0.0593120148333333,-0.0538397435,-0.0312086455,0.00840987316666668,0.0869278371666667,0.241443925833333,0.278217907166667,0.2855719805,2174,"DG_s11",14.984,15.593,16.828,16.843,10,10,30,15,1.235,"Right",30,15,15,0,15,0,-15,15,"10-10",-20,-5,30,10,15,10
"53",6,"LIN9-LIN10",0.13043767,0.129025646,0.204781093333333,0.135848768,0.0213165446666667,0.0280942846666667,0.159313312,0.460711994666667,0.615992974666667,0.483952300666667,0.223207107333333,0.0155142603333333,0.112964747,0.215831884333333,0.239304112,0.160002013333333,-0.0182713221333333,-0.120028469466667,-0.0533129388,-0.0394887433333333,0.122952703333333,0.088022786,0.043190424,2174,"DG_s11",14.984,15.593,16.828,16.843,10,10,30,15,1.235,"Right",30,15,15,0,15,0,-15,15,"10-10",-20,-5,30,10,15,10
"54",6,"LIN4-LIN5",-0.09124909325,-0.0616119425833333,-0.159665553916667,-0.143479841183333,-0.123916261183333,-0.0702221925166667,-0.107455632516667,0.03730412415,0.07649008615,0.09072675855,-0.0277067667833334,-0.0444805527833333,-0.0749642833833333,-0.188729295383333,-0.318493342716667,-0.256392004516667,-0.26798647385,-0.225709547183333,-0.21137295785,-0.160918244516667,-0.10596390985,-0.153333187183333,-0.142527360516667,2174,"DG_s11",14.984,15.593,16.828,16.843,10,10,30,15,1.235,"Right",30,15,15,0,15,0,-15,15,"10-10",-20,-5,30,10,15,10
"55",7,"LIN9-LIN10",0.336504801333333,0.273687533866667,0.1083322492,0.0983002558666667,0.132611242,0.112825363333333,0.0202162094,0.0290720987333333,0.0942067727333333,0.153984073333333,0.265081093333333,0.305932989333333,0.346452302,0.327175589333333,0.300916329333333,0.359540183333333,0.236275320666667,0.262302407333333,0.375703800666667,0.500387909333333,0.508633242,0.310003954,0.302219102,2175,"DG_s11",17.843,18.453,19.593,19.593,10,10,28,4,1.14,"Right",28,4,24,0,24,0,-24,24,"10-10",-18,6,28,10,4,10
"56",7,"LIN2-LIN3",-0.172375362333333,-0.121255958333333,-0.0346462736666667,0.137569405,0.241184847666667,0.152498996333333,0.056441751,-0.150603539,-0.109236382333333,-0.131526307666667,0.0221676556666667,0.0385955583333333,0.123381082333333,-0.0468127472666667,0.0978435627333333,0.0172451274,0.0861028176666667,-0.090658459,-0.222032510333333,-0.204120504333333,-0.141677005,0.0479531616666667,0.184042688333333,2175,"DG_s11",17.843,18.453,19.593,19.593,10,10,28,4,1.14,"Right",28,4,24,0,24,0,-24,24,"10-10",-18,6,28,10,4,10
"57",7,"LIN3-LIN4",0.0835975247666667,0.1171508401,0.0812123001,0.0199868298333333,-0.0113080155,0.116578897833333,0.4143264645,0.4702820125,0.320407679166667,0.0276461022333333,-0.0103459424333333,0.0613397842333333,0.101073675166667,0.0846523725,0.253754165833333,0.347367391833333,0.2625893105,0.0623149658333333,-0.0144882075,0.175541363166667,0.2418470965,0.3625794905,0.2734819745,2175,"DG_s11",17.843,18.453,19.593,19.593,10,10,28,4,1.14,"Right",28,4,24,0,24,0,-24,24,"10-10",-18,6,28,10,4,10
"58",7,"RIN9-RIN10",-0.109446538833333,-0.1328432695,-0.201130494833333,-0.116086290166667,-0.105704476833333,-0.00377178016666667,0.00990667916666666,0.0332875671666667,0.0178424225,0.0240667638333333,0.0839312711666667,0.0180223797,-0.0436290776333333,-0.0108932183,0.0118479205,0.0919931611666667,-0.0556314135,-0.0910306328333333,-0.0735111488333333,0.0884121845,0.2277340845,0.118151539166667,-0.0117429088333333,2175,"DG_s11",17.843,18.453,19.593,19.593,10,10,28,4,1.14,"Right",28,4,24,0,24,0,-24,24,"10-10",-18,6,28,10,4,10
"59",7,"RIN3-RIN4",-0.0778392182733333,-0.0893064048333333,-0.0399820825666667,-0.178670293566667,-0.198712312233333,-0.21506434244,-0.09238767144,-0.0728130227733333,-0.0817683521666667,-0.1257395207,-0.0746710140333333,0.000538358633333319,-0.0751141095,-0.125502516166667,-0.314141702833333,-0.326478531233333,-0.3438192639,-0.2194998219,-0.0134646835,0.0921490005,0.261949945166667,0.1655477585,0.167680493833333,2175,"DG_s11",17.843,18.453,19.593,19.593,10,10,28,4,1.14,"Right",28,4,24,0,24,0,-24,24,"10-10",-18,6,28,10,4,10
"60",7,"RIN2-RIN3",0.03700023165,0.04585373285,-0.0473747204833333,0.0121776375166667,-0.0922409130166667,-0.0890103596833333,-0.0669313370166667,-0.0256724890166667,-0.0642103496833333,-0.129552253016667,-0.129151345016667,-0.10446107635,-0.137136885683333,-0.12197953435,-0.192949869016667,-0.140825745016667,-0.164523837683333,-0.00897799301666667,-0.0208824864166667,0.01886910025,0.0782608755833333,0.109149806983333,0.140067514983333,2175,"DG_s11",17.843,18.453,19.593,19.593,10,10,28,4,1.14,"Right",28,4,24,0,24,0,-24,24,"10-10",-18,6,28,10,4,10
"61",7,"LIN4-LIN5",0.180843545666667,0.146042659,0.134545539,0.117847443666667,0.00227725433333333,-0.118091812333333,-0.0780704024666667,-0.149774192466667,-0.0331061724666667,0.0760530816666667,0.136084768333333,0.0871035716666667,-0.015189677,0.0226394323333333,0.109991888333333,0.125166655,0.145137005666667,0.0123134263333333,-0.046339581,-0.139175503,-0.0609990076666667,-0.108005075,-0.0813499816,2175,"DG_s11",17.843,18.453,19.593,19.593,10,10,28,4,1.14,"Right",28,4,24,0,24,0,-24,24,"10-10",-18,6,28,10,4,10
"62",7,"LIN1-LIN2",-0.0935084538333334,-0.102400037166667,-0.1424585005,-0.0956932585,-0.1770936745,-0.1151566685,-0.3526590685,-0.314607391833333,-0.422685889166667,-0.2695455425,-0.187601429833333,-0.1470156625,-0.179799555833333,-0.162705255166667,-0.0136090891666667,0.0493520508333333,0.0697351641666666,0.0688075908333333,0.101423490833333,0.0510034748333333,-0.0889416125,-0.0147842325,-0.0147697678333333,2175,"DG_s11",17.843,18.453,19.593,19.593,10,10,28,4,1.14,"Right",28,4,24,0,24,0,-24,24,"10-10",-18,6,28,10,4,10
"63",7,"RIN1-RIN2",-0.204754882833333,-0.212211496833333,-0.2099138035,-0.105550318166667,-0.102332902833333,-0.00872844950000001,-0.02781739148,0.03179389452,-0.104951066813333,-0.1591414555,-0.2541187315,-0.233383572166667,-0.127986622166667,-0.0974053661666667,-0.126003150833333,-0.0825172855,-0.176084438833333,-0.129776674833333,-0.275674406833333,-0.215419352166667,-0.1637797295,-0.194916382166667,-0.106659922833333,2175,"DG_s11",17.843,18.453,19.593,19.593,10,10,28,4,1.14,"Right",28,4,24,0,24,0,-24,24,"10-10",-18,6,28,10,4,10
"64",8,"LIN4-LIN5",-0.281669598033333,-0.249621365366667,-0.2079226527,-0.186472301366667,-0.194411599833333,-0.0939183658333333,0.0126908674333333,-0.0592721401,-0.2225666201,-0.275356270033333,-0.289388250033333,-0.205948240033333,-0.3196764747,-0.198427227366667,-0.1359119707,0.0216364886333333,0.00420776070000001,0.0176084487,-0.0332466813,-0.0514963167,-0.114482807366667,-0.166669422033333,-0.153207341366667,2176,"DG_s11",20.593,21.203,22.312,22.312,10,10,4,4,1.109,"Left",4,4,0,0,0,0,0,0,"10-10",6,6,10,4,10,4
"65",8,"RIN9-RIN10",0.1355862405,0.324304235833333,0.355489693166667,0.260686938966667,0.1046983283,-0.0402891117,0.0497688318333333,0.148501933833333,0.296848513833333,0.254543639166667,0.155482631966667,0.0484471046333333,-0.0447605640333333,0.0510160398333333,0.167121353833333,0.2600981205,0.166497083166667,0.225978569833333,0.2897089765,0.3349318805,0.173962171833333,0.0955198665,0.0314770031666667,2176,"DG_s11",20.593,21.203,22.312,22.312,10,10,4,4,1.109,"Left",4,4,0,0,0,0,0,0,"10-10",6,6,10,4,10,4
"66",8,"RIN1-RIN2",0.0989989221666667,0.155403826033333,0.260276866033333,0.272346474833333,0.161869592833333,0.00175932616666667,-0.0506413039,0.0208075659,0.0579659272333333,0.199144963966667,0.217863204166667,0.2188064415,0.117399766833333,0.0881956288333333,0.0702983575,0.00202527195333334,0.02349835262,0.00878092528666667,0.268039352166667,0.235012080166667,0.273557304166667,0.104075542166667,0.2077478955,2176,"DG_s11",20.593,21.203,22.312,22.312,10,10,4,4,1.109,"Left",4,4,0,0,0,0,0,0,"10-10",6,6,10,4,10,4
"67",8,"LIN3-LIN4",-0.248178591,-0.238302059,-0.239661441666667,-0.201559381,-0.272185874333333,-0.376196901666667,-0.394491573666667,-0.201274713666667,-0.065385119,-0.107627605,-0.217045118333333,-0.241248304333333,-0.142918301066667,-0.100245661066667,-0.1191844584,-0.168667797666667,-0.261757410333333,-0.332171141666667,-0.368498374333333,-0.296115276333333,-0.194732881533333,-0.0912690848666667,-0.185230308866667,2176,"DG_s11",20.593,21.203,22.312,22.312,10,10,4,4,1.109,"Left",4,4,0,0,0,0,0,0,"10-10",6,6,10,4,10,4
"68",8,"RIN2-RIN3",0.041952875205,0.149182318205,0.127759828871667,0.0713875355383333,-0.00965082946166667,0.0458045145383333,0.106126299871667,0.121566243671667,0.118085191005,0.111693939871667,0.0470270287383333,-0.0146171052616667,0.003291219205,-0.0219187401283333,0.021179673205,-0.0440016901283333,0.052939187205,0.0579278145383333,0.198781304538333,0.137130862538333,0.0747321801383333,0.023684142805,0.158999744805,2176,"DG_s11",20.593,21.203,22.312,22.312,10,10,4,4,1.109,"Left",4,4,0,0,0,0,0,0,"10-10",6,6,10,4,10,4
"69",8,"RIN3-RIN4",-0.138224986166667,-0.1161367195,-0.139517818833333,-0.0755331148333333,-0.0544705748333333,0.0187033191666667,0.131809321833333,0.168058031166667,0.0823721138333333,0.0517954511666667,0.0344448631666667,0.0897255325,0.1386184345,0.164501735433333,0.1135812861,0.0782916067666667,0.137626769833333,0.238439065833333,0.2691722625,0.279399151833333,0.148824273833333,0.116765697166667,0.1615775585,2176,"DG_s11",20.593,21.203,22.312,22.312,10,10,4,4,1.109,"Left",4,4,0,0,0,0,0,0,"10-10",6,6,10,4,10,4
"70",8,"LIN9-LIN10",-0.0155047525,-0.0850626905,0.0661056268333333,0.239659528166667,0.3307279315,0.297830534166667,0.2220919575,0.2370508835,0.145895744833333,0.120617578833333,0.1102821115,0.0626657908333333,0.165115472833333,0.190780562166667,0.153518534166667,0.0326926044333334,-0.0451205755666667,-0.0711356229,-0.1108346465,-0.155918237166667,-0.203842789166667,-0.159894781833333,-0.0992974709,2176,"DG_s11",20.593,21.203,22.312,22.312,10,10,4,4,1.109,"Left",4,4,0,0,0,0,0,0,"10-10",6,6,10,4,10,4
"71",8,"LIN1-LIN2",0.209371054,0.196323127333333,0.154239634666667,0.12839314,0.0662082266666667,-2.15446666666664e-05,-0.0955037973333333,-0.0893096466486667,-0.159029961982,-0.123449414648667,-0.121313758666667,-0.105475625333333,-0.168229098666667,-0.0894115266666667,0.0402672353333333,0.0885792086666667,0.00290206173333333,0.0543741785333333,0.0230242052,0.0466846801333333,-0.0102445793333333,0.183459694,0.337300136666667,2176,"DG_s11",20.593,21.203,22.312,22.312,10,10,4,4,1.109,"Left",4,4,0,0,0,0,0,0,"10-10",6,6,10,4,10,4
"72",8,"LIN2-LIN3",0.178587249933333,0.156289758866667,0.207581026866667,0.2584027082,0.288097351,0.211252393,0.1057426306,0.196138071266667,0.207335887266667,0.263936072266667,0.237912716933333,0.209942260266667,0.388575969,0.3385700862,0.391587871133333,0.1982993338,0.176175485933333,0.128186175666667,0.0982721309333333,0.171687274266667,0.326120592466667,0.564974019466667,0.598336689466667,2176,"DG_s11",20.593,21.203,22.312,22.312,10,10,4,4,1.109,"Left",4,4,0,0,0,0,0,0,"10-10",6,6,10,4,10,4
"73",9,"RIN1-RIN2",-0.061996977,0.012055856,0.099725908,0.0678956342,0.119325927866667,0.123672422333333,0.0328892968,-0.0716795572,-0.170278791,-0.153344645,-0.274249777666667,-0.311241010333333,-0.292275997666667,-0.145463423666667,-0.102537523666667,-0.0439683823333333,-0.0151834119333333,0.114992464733333,0.0790938400666667,0.213111302333333,0.255494250333333,0.360129854333333,0.239886985666667,2177,"DG_s11",23.328,23.937,25.031,25.047,10,10,13,7,1.094,"Right",13,7,6,0,6,0,-6,6,"10-10",-3,3,13,10,7,10
"74",9,"LIN9-LIN10",0.00836621943333332,0.0958876187666667,0.0570859027666667,0.0430940481,-0.0106688598333333,-0.0413463771666667,0.00445213416666666,-0.00877236523333333,-0.1144641719,-0.134131487233333,0.0775887741,0.2014462021,0.242856642766667,0.1988154361,0.291853054766667,0.222769029433333,0.0392603361,0.0409602961,0.169818049433333,0.180034636633333,0.0697415173,-0.10113699672,0.110514982746667,2177,"DG_s11",23.328,23.937,25.031,25.047,10,10,13,7,1.094,"Right",13,7,6,0,6,0,-6,6,"10-10",-3,3,13,10,7,10
"75",9,"LIN2-LIN3",0.0862382128333333,-0.121841145166667,-0.166377303833333,-0.261955985833333,-0.2154533465,-0.1685755445,-0.1843723917,-0.1527648017,-0.141135389033333,-0.0841085291666667,-0.0369367051666667,-0.0691031858333333,-0.133251153833333,-0.0896202645,0.0543291688333333,0.0330921421666667,0.0212991448333333,-0.00181807583333334,0.115565386166667,0.0385812475,-0.0243755931666667,0.00101197816666666,0.197148638166667,2177,"DG_s11",23.328,23.937,25.031,25.047,10,10,13,7,1.094,"Right",13,7,6,0,6,0,-6,6,"10-10",-3,3,13,10,7,10
"76",9,"RIN2-RIN3",0.0387106202,0.0752433443333333,0.0902763204,0.2510824104,0.262930937133333,0.2902702404,0.117272167733333,0.0853744663333333,0.0512716096666667,0.0510782696666667,0.0427697456666667,0.0578207576666667,0.101210507,0.108314971,0.216036087666667,0.216502743666667,0.268358535666667,0.314911429,0.372868271666667,0.445824087666667,0.331015181066667,0.2757378256,0.1607517696,2177,"DG_s11",23.328,23.937,25.031,25.047,10,10,13,7,1.094,"Right",13,7,6,0,6,0,-6,6,"10-10",-3,3,13,10,7,10
"77",9,"RIN3-RIN4",-0.0617126868333333,-0.0963836988333333,-0.139663780833333,-0.0605155708333333,0.103497695833333,0.192343175833333,0.151891129166667,0.00675907936666667,-0.0709672806333333,-0.132866705966667,-0.0816299341666667,0.00260689403333333,0.0073782587,-0.00271471063333333,0.127032487833333,0.142849115166667,0.234497841166667,0.128698653166667,0.265671347833333,0.121932955833333,0.0814987831666667,-0.0250702221666667,0.0605910925,2177,"DG_s11",23.328,23.937,25.031,25.047,10,10,13,7,1.094,"Right",13,7,6,0,6,0,-6,6,"10-10",-3,3,13,10,7,10
"78",9,"LIN4-LIN5",0.140109026333333,0.201354382333333,0.399378341666667,0.401767867,0.338476088333333,0.142382129,0.115493475,0.0763157136666667,0.178207999666667,0.226277663,0.249759612333333,0.090507799,-0.0226121416666667,-0.156540617666667,-0.0922396423333333,-0.075880631,0.0636910656666667,0.128838334733333,0.0954830594,-0.0122751706,-0.0836959283333333,0.0352857416666667,0.195245228333333,2177,"DG_s11",23.328,23.937,25.031,25.047,10,10,13,7,1.094,"Right",13,7,6,0,6,0,-6,6,"10-10",-3,3,13,10,7,10
"79",9,"RIN9-RIN10",-0.307966550366667,-0.169077604366667,-0.114189033033333,0.00534526363333334,-0.0602617770333333,0.000806108966666667,0.0908476823,0.1420232523,0.0833868616333333,0.0059011523,0.0386789103,0.0010776103,-0.0497063317,-0.1170285311,-0.0638978417666667,-0.00480829043333334,0.1994875223,0.257525011633333,0.3098762367,0.298989250033333,0.3593445667,0.318136621633333,0.172087175633333,2177,"DG_s11",23.328,23.937,25.031,25.047,10,10,13,7,1.094,"Right",13,7,6,0,6,0,-6,6,"10-10",-3,3,13,10,7,10
"80",9,"LIN3-LIN4",-0.165465221,-0.141957296066667,-0.146249314066667,-0.104879414066667,-0.0966272723333333,-0.0888969756666667,-0.138305150333333,-0.176652627,-0.0572944883333334,0.00577684633333334,0.154764229666667,0.079608389,0.108355959666667,0.00943724499999998,0.101850017,-0.0536977203333334,-0.130592479,-0.106467612333333,0.025445621,0.106294149466667,-0.00817706360000001,-0.1474104236,-0.170660386866667,2177,"DG_s11",23.328,23.937,25.031,25.047,10,10,13,7,1.094,"Right",13,7,6,0,6,0,-6,6,"10-10",-3,3,13,10,7,10
"81",9,"LIN1-LIN2",0.146541046983333,-0.0395435876166667,0.00767703771666668,-0.0259307136166667,0.0475549183166667,0.14055191965,0.0529909429833333,0.0502889463166667,-0.0703874096833333,-0.115766255683333,-0.115999579016667,-0.0559801376833333,-0.0862127001833333,-0.03723597685,0.110907037816667,0.12396865965,0.127730332316667,-0.03374949035,0.0875913123166667,-0.0374426970166667,-0.0117728430166667,-0.04116820835,0.11718969165,2177,"DG_s11",23.328,23.937,25.031,25.047,10,10,13,7,1.094,"Right",13,7,6,0,6,0,-6,6,"10-10",-3,3,13,10,7,10
"82",10,"LIN2-LIN3",-0.092599851,-0.217735277,-0.182124972333333,-0.0336203923333333,0.00601809966666667,0.0612855083333333,0.048463157,0.051345385,-0.106620901666667,-0.176764641666667,-0.236457325,-0.107567892333333,0.00462550753333333,0.1318691982,0.120622498866667,0.075029291,0.1603293174,0.1506547574,0.210604210733333,0.189158857,0.314652310333333,0.192895577666667,0.214409031,2178,"DG_s11",26.047,26.656,27.703,27.718,10,10,10,26,1.047,"Left",10,26,16,0,16,16,0,-16,"10-10",0,-16,10,10,10,26
"83",10,"RIN9-RIN10",0.111715559318333,0.246269697985,0.219000153985,0.214182950651667,0.0944019573183333,0.083930971985,0.0334343666516667,0.0363044666516667,0.119735362651667,0.196441641518333,0.240220754185,0.0401503408516667,0.00799972551833333,-0.0526634304816667,0.0760261155183333,-0.0200369693483333,0.0544157473183333,-0.027473930015,-0.00355845108166667,-0.0100894110816667,0.163238560251667,0.263846828651667,0.204819889985,2178,"DG_s11",26.047,26.656,27.703,27.718,10,10,10,26,1.047,"Left",10,26,16,0,16,16,0,-16,"10-10",0,-16,10,10,10,26
"84",10,"RIN2-RIN3",0.0258464458,0.00569793246666667,0.0107330554,0.00392293473333336,-0.0263649659333333,-0.0165516842,0.0260121424666667,0.157706940333333,0.168788034333333,0.178261633,0.2298721758,0.2513930478,0.376263216466667,0.330909223133333,0.3762062498,0.271924083133333,0.266738871133333,0.127209401133333,0.100058129133333,0.0563492411333333,0.225178401133333,0.256236186466667,0.2095850778,2178,"DG_s11",26.047,26.656,27.703,27.718,10,10,10,26,1.047,"Left",10,26,16,0,16,16,0,-16,"10-10",0,-16,10,10,10,26
"85",10,"LIN4-LIN5",-0.0739522880766667,-0.0900913367433333,-0.0726226160766667,-0.0907503040766667,-0.182606307943333,-0.25269644061,-0.26366407861,-0.15592010321,-0.182606529876667,-0.319672731876667,-0.37528483541,-0.36958353741,-0.250312422743333,-0.34477145541,-0.33203930141,-0.304624256076667,-0.220419494076667,-0.272602254076667,-0.32315630941,-0.348332936076667,-0.26610644941,-0.286614916076667,-0.0977813847433333,2178,"DG_s11",26.047,26.656,27.703,27.718,10,10,10,26,1.047,"Left",10,26,16,0,16,16,0,-16,"10-10",0,-16,10,10,10,26
"86",10,"RIN1-RIN2",-0.0363256068333333,-0.0672822961666667,0.0461290838333333,0.0216168138333333,0.0521843032333333,-0.0192329887666667,-0.0218574554333333,-0.0240637575,-0.0086134975,0.1025478127,0.181127028033333,0.2776083947,0.325712611166667,0.293114507833333,0.271373631833333,0.1167175905,0.173273339833333,0.112767979166667,0.132141873833333,0.0567924751666667,0.0840643132333333,0.207772278566667,0.0948159372333333,2178,"DG_s11",26.047,26.656,27.703,27.718,10,10,10,26,1.047,"Left",10,26,16,0,16,16,0,-16,"10-10",0,-16,10,10,10,26
"87",10,"LIN9-LIN10",-0.0258858405,-0.0501868111666667,-0.0179676985,-0.123616517833333,0.0191830195,0.194498686166667,0.262261290366667,0.1794388695,0.109414524166667,0.1908164713,0.1573795121,-0.0116208832333333,-0.00347712989999999,-0.0332499571666667,-0.0852797031666667,-0.237252273166667,-0.201427287833333,-0.143320441833333,-0.155411037706667,-0.0510744143733333,0.15831437296,0.248508172166667,0.1823958775,2178,"DG_s11",26.047,26.656,27.703,27.718,10,10,10,26,1.047,"Left",10,26,16,0,16,16,0,-16,"10-10",0,-16,10,10,10,26
"88",10,"LIN3-LIN4",0.104806428966667,0.0332699364733333,0.0932334236733333,0.175070367873333,0.0777566603666667,-0.0293361968333333,-0.2068279459,-0.190724395233333,-0.213448371233333,-0.136849266833333,0.0088714825,0.123167757166667,0.0622430958333333,-0.00427028616666666,0.0119493071666667,0.212711454966667,0.169146534966667,0.1335016683,0.0879874065,0.1472586465,0.210994893166667,0.140731937166667,0.2030526305,2178,"DG_s11",26.047,26.656,27.703,27.718,10,10,10,26,1.047,"Left",10,26,16,0,16,16,0,-16,"10-10",0,-16,10,10,10,26
"89",10,"RIN3-RIN4",0.106959133,0.0547719972666667,0.1021538466,0.0142508486,0.0828472263333333,0.00307892366666666,0.0393838836666667,-0.046953183,-0.038528859,-0.140057427666667,0.005396591,0.153763593,0.387508036333333,0.246932272333333,0.109959275126667,-0.04646564554,-0.0632994162733333,-0.0664393037333333,-0.0563464284,-0.0253264036666667,0.132059261,0.126742561666667,0.117856917666667,2178,"DG_s11",26.047,26.656,27.703,27.718,10,10,10,26,1.047,"Left",10,26,16,0,16,16,0,-16,"10-10",0,-16,10,10,10,26
"90",10,"LIN1-LIN2",-0.0202443744666667,0.0117100668666667,-0.0355971541333333,-0.0412537901333333,-0.0429446288,-0.0600147781333333,0.0935547978666667,0.0569779852,0.0819880685333333,0.0845671865333333,0.0731883672,0.107285743866667,0.0570597418666667,0.14038667874,0.21004506674,0.19057611794,0.2218485266,0.220089137266667,0.203982524333333,0.0974037554666667,0.116320829466667,0.0904190785333333,0.1527455852,2178,"DG_s11",26.047,26.656,27.703,27.718,10,10,10,26,1.047,"Left",10,26,16,0,16,16,0,-16,"10-10",0,-16,10,10,10,26
"91",11,"LIN1-LIN2",0.0329994690333333,-0.0480441823666667,-0.0304241290333333,0.114934106966667,0.1479013173,0.0331173706333333,-0.0755090160333333,-0.0584209643,0.0518657410333333,0.1513522297,0.128794187966667,0.1011818433,0.1589373613,0.154589708566667,0.2622208193,0.287455865966667,0.345501864433333,0.2615720997,0.265518033033333,0.279713662366667,0.302882555033333,0.142928912366667,0.00509915503333334,2179,"DG_s11",28.718,29.328,30.156,30.172,10,10,13,22,0.828,"Left",13,22,9,0,9,9,0,-9,"10-10",-3,-12,10,13,10,22
"92",11,"LIN9-LIN10",0.03308001455,-0.09329000945,-0.0648712895833333,0.126203970416667,0.20387570335,0.30204460215,0.225217975483333,0.295231809216667,0.180676409216667,0.11466369455,0.154890841216667,0.11297103455,0.113175665216667,0.04210699855,0.10207093855,0.232289096483333,0.23241592715,0.13970175995,0.16607742735,0.10874297535,0.15419348255,0.02421625855,0.178298433216667,2179,"DG_s11",28.718,29.328,30.156,30.172,10,10,13,22,0.828,"Left",13,22,9,0,9,9,0,-9,"10-10",-3,-12,10,13,10,22
"93",11,"RIN3-RIN4",0.108694562866667,0.221385689533333,0.180193833533333,0.156377862866667,0.0508744762,0.100315272866667,0.168599352866667,0.155229430866667,0.0335715242,0.00261828886666667,0.0310690022,0.123987960866667,0.192862425266667,0.424404247266667,0.5003967926,0.459085610866667,0.326557017533333,0.204083294333333,0.154753969,0.0629141956666667,0.113616407533333,0.153972442866667,0.225597869533333,2179,"DG_s11",28.718,29.328,30.156,30.172,10,10,13,22,0.828,"Left",13,22,9,0,9,9,0,-9,"10-10",-3,-12,10,13,10,22
"94",11,"RIN2-RIN3",0.0639099616666667,0.081923083,0.018666815,0.0418349456666667,-0.106815577666667,-0.0551527433333333,-0.005276242,0.0124523566666667,-0.0288732696666667,-0.0785961643333333,-0.0175825303333333,0.086929221,0.103629681666667,0.151430321666667,0.290976229666667,0.278724743666667,0.169170625,-0.0117107988666667,0.0188003498,0.0440624366,-0.0127900748666667,-0.107717206866667,-0.110724195666667,2179,"DG_s11",28.718,29.328,30.156,30.172,10,10,13,22,0.828,"Left",13,22,9,0,9,9,0,-9,"10-10",-3,-12,10,13,10,22
"95",11,"RIN1-RIN2",-0.2941204051,-0.430721548833333,-0.452230582833333,-0.4123162375,-0.450373906166667,-0.285211006166667,-0.1853939935,-0.0886813221666666,-0.1527562735,-0.164979312166667,-0.172144842166667,-0.223420990033333,-0.291947493366667,-0.180323493966667,-0.0774250947666666,-0.1202779721,-0.264872616166667,-0.3478063895,-0.276025268833333,-0.314036362166667,-0.302259204166667,-0.3172543595,-0.335903964833333,2179,"DG_s11",28.718,29.328,30.156,30.172,10,10,13,22,0.828,"Left",13,22,9,0,9,9,0,-9,"10-10",-3,-12,10,13,10,22
"96",11,"LIN3-LIN4",0.0211274179166667,-0.0289925640833333,0.0522542899166667,0.201789229916667,0.392863550583333,0.439973023916667,0.371562178583333,0.260921353916667,0.245210497916667,0.21226239925,0.227962573916667,0.0718584699166667,0.152520103916667,0.03111195525,0.18863549525,0.19477901725,0.287220492583333,0.22986954865,0.304574223316667,0.238135571983333,0.178966630583333,0.156574003916667,0.271937978583333,2179,"DG_s11",28.718,29.328,30.156,30.172,10,10,13,22,0.828,"Left",13,22,9,0,9,9,0,-9,"10-10",-3,-12,10,13,10,22
"97",11,"LIN4-LIN5",0.0686285772,0.0898540698666667,-0.060500687,-0.204669140333333,-0.233637239,-0.210602806333333,-0.122748715,-0.107619107,-0.091625303,-0.034613677,0.025277407,0.00565143100000001,-0.126820376333333,-0.258434404333333,-0.326266023666667,-0.250371939666667,-0.157897451666667,-0.112800898333333,-0.148465962333333,-0.153823819666667,-0.100581968866667,-0.0596347148666667,-0.0052165642,2179,"DG_s11",28.718,29.328,30.156,30.172,10,10,13,22,0.828,"Left",13,22,9,0,9,9,0,-9,"10-10",-3,-12,10,13,10,22
"98",11,"RIN9-RIN10",0.177040651833333,0.0727598398333333,0.1417684707,0.0946228800333333,0.2303678867,0.2099198645,0.2214995945,0.2881663545,0.378119163166667,0.278248933166667,0.1849615981,0.0568971247666667,0.2063022021,0.207571843166667,0.177146429833333,0.1280131845,0.180758951833333,0.234802019166667,0.252393437833333,0.1314351085,0.0264281678333333,-0.0899485721666667,-0.0471101428333333,2179,"DG_s11",28.718,29.328,30.156,30.172,10,10,13,22,0.828,"Left",13,22,9,0,9,9,0,-9,"10-10",-3,-12,10,13,10,22
"99",11,"LIN2-LIN3",0.0444752033333333,-0.00970189933333333,-0.0428735593333333,-0.105826989333333,-0.0109729373333333,-0.00309767733333333,0.054348232,-0.0423130973333333,-0.160304150666667,-0.108302542,-0.0511598306666667,0.0473903426666667,0.0875451873333333,0.0671511386666667,0.224190365333333,0.267591048,0.447482105333333,0.246070032,0.09072783,-0.11196037,-0.149715224,-0.155609121333333,0.0339567766666667,2179,"DG_s11",28.718,29.328,30.156,30.172,10,10,13,22,0.828,"Left",13,22,9,0,9,9,0,-9,"10-10",-3,-12,10,13,10,22
"100",12,"RIN1-RIN2",-0.337871391266667,-0.3374906654,-0.334256298066667,-0.354694798066667,-0.346538789933333,-0.3033952186,-0.204664369933333,-0.1620884306,-0.1350100826,-0.161190517933333,-0.144989489933333,-0.144901763266667,-0.1970649746,-0.263551936866667,-0.2255431902,-0.151383245533333,-0.0723226712666667,-0.0715568246,-0.0227607072666667,-0.0340068272666667,-0.0827336106,0.0210831954,0.2031346354,2180,"DG_s11",31.172,31.781,33.125,33.14,10,10,16,4,1.344,"Right",16,4,12,0,12,0,-12,12,"10-10",-6,6,16,10,4,10
"101",12,"RIN9-RIN10",-0.0913792453333333,-0.0451893026666667,-0.00339157466666666,-0.00905521933333333,-0.0964565833333333,-0.0609054826666667,-0.0568433713333333,-0.01529969,-0.0780069313333333,-0.105663782666667,-0.057465476,-0.099279552,-0.120530365333333,-0.137192638,-0.0889672066666667,-0.0224964146666667,-0.0344822699333333,0.0653549487333333,0.0802225321333333,0.1566301954,0.0350137067333333,0.0694056606666667,-0.0268705349333333,2180,"DG_s11",31.172,31.781,33.125,33.14,10,10,16,4,1.344,"Right",16,4,12,0,12,0,-12,12,"10-10",-6,6,16,10,4,10
"102",12,"LIN2-LIN3",-0.110455925166667,-0.1715946915,-0.135634534166667,-0.153491183833333,-0.0423859475,-0.1665472475,-0.1277143865,-0.1978049185,-0.1309934185,-0.0914463585,-0.0569007698333333,0.00729423083333333,-0.0484392698333333,-0.0580983018333333,-0.155439743166667,-0.130936875833333,-0.2132300905,-0.103494859833333,-0.1481438665,-0.125145461833333,-0.141781625166667,0.203138154833333,0.449632514833333,2180,"DG_s11",31.172,31.781,33.125,33.14,10,10,16,4,1.344,"Right",16,4,12,0,12,0,-12,12,"10-10",-6,6,16,10,4,10
"103",12,"RIN2-RIN3",-0.2016295129,-0.181555459566667,-0.129668907566667,-0.0633747638333333,-0.0541731258333333,0.0540493741666667,0.0372764428333333,0.0560719621666667,-0.0666496525,-0.120921235833333,-0.0738518945,-0.1122639145,-0.0858566431666667,-0.174860953166667,-0.0121781465,0.0263108495,-0.00841710183333334,-0.1444150785,-0.234231981166667,-0.170525472633333,-0.1477976613,-0.0389230786333333,0.2941157195,2180,"DG_s11",31.172,31.781,33.125,33.14,10,10,16,4,1.344,"Right",16,4,12,0,12,0,-12,12,"10-10",-6,6,16,10,4,10
"104",12,"LIN1-LIN2",-0.2560835567,-0.120691000166667,0.00384582716666668,0.0129767851666667,-0.1048089935,-0.194123766833333,-0.0984600528333333,0.0506137058333333,0.143948957166667,0.2066867105,0.1516723685,0.260059463833333,0.0501371125,-0.0648658101666667,-0.217181322833333,-0.175459264833333,-0.147872664166667,-0.0659236915,0.0218097391666667,0.0492684525,0.0908499638333333,0.223739053166667,0.345206017166667,2180,"DG_s11",31.172,31.781,33.125,33.14,10,10,16,4,1.344,"Right",16,4,12,0,12,0,-12,12,"10-10",-6,6,16,10,4,10
"105",12,"LIN3-LIN4",-0.0181841170666667,-0.036605337,-0.0772758596666667,-0.028556713,0.0509398883333333,-0.0629051396666667,-0.0605476463333333,-0.134807803666667,-0.180121653,-0.149052666333333,-0.061731753,0.031323165,-0.0656987176666667,-0.133724133666667,-0.160758496333333,-0.0719312403333333,-0.051959119,-0.0325652276666667,-0.0243294876666667,-0.042128321,0.107973719,0.138403365666667,0.362387011666667,2180,"DG_s11",31.172,31.781,33.125,33.14,10,10,16,4,1.344,"Right",16,4,12,0,12,0,-12,12,"10-10",-6,6,16,10,4,10
"106",12,"LIN9-LIN10",0.144431710583333,0.14013292725,-0.0238725860833333,-0.0169109154166667,0.0103722939166667,0.255108560583333,0.127804054583333,0.09080009245,0.0163835691166667,0.307137353783333,0.37586697325,0.374391396583333,0.08027638325,0.00194682791666667,0.00838710925,0.227744335916667,0.208025477916667,0.198630888583333,0.189529441916667,0.282227081916667,0.237445316583333,0.0498938213833333,0.07643008805,2180,"DG_s11",31.172,31.781,33.125,33.14,10,10,16,4,1.344,"Right",16,4,12,0,12,0,-12,12,"10-10",-6,6,16,10,4,10
"107",12,"RIN3-RIN4",0.0934675130033333,0.13077612715,0.12070355415,0.0235065068166667,0.0230660114833333,0.114967211483333,0.124489513483333,0.08132302015,-0.0652150545166667,-0.16860264785,-0.08300099185,-0.07376304185,0.197800331483333,0.212250228816667,0.370745888816667,0.18874198215,0.185248655483333,0.07054909615,0.0424931494833333,0.112986082816667,0.07906625575,0.113042883083333,0.06147350975,2180,"DG_s11",31.172,31.781,33.125,33.14,10,10,16,4,1.344,"Right",16,4,12,0,12,0,-12,12,"10-10",-6,6,16,10,4,10
"108",12,"LIN4-LIN5",0.119690478833333,0.1503375915,0.0791967648333333,0.0624942332333333,0.0107737472333333,0.0998597472333333,-0.00921685116666667,0.0109764401666667,0.0258195921666667,0.1373683855,0.198565456833333,0.1867992315,0.2033711555,0.1354885745,0.0411758611666667,-0.0800574775,-0.0882302431666667,-0.0896838765,-0.00917842316666667,0.0615558893733333,0.15086906744,0.0967062921066667,0.0535080729,2180,"DG_s11",31.172,31.781,33.125,33.14,10,10,16,4,1.344,"Right",16,4,12,0,12,0,-12,12,"10-10",-6,6,16,10,4,10
"109",13,"LIN3-LIN4",-0.0172165059166667,0.06183197395,0.129225327283333,0.189973195283333,0.11025944395,-0.0885959933166667,-0.199676534383333,-0.19950191105,-0.22140735885,-0.246445633783333,-0.34543749645,-0.31891809805,-0.25923347405,-0.09019721805,-0.06307953805,-0.0594760193833333,-0.0944930807166667,-0.0456102567166667,-0.189697243383333,-0.145453091383333,-0.116699688716667,-0.0893945107166667,-0.143966318716667,2181,"DG_s11",34.14,34.75,35.468,35.484,10,10,8,11,0.718,"Left",8,11,3,0,3,3,0,-3,"10-10",2,-1,10,8,10,11
"110",13,"RIN3-RIN4",-0.075601139115,-0.061317393115,-0.108509805781667,-0.0264119964483333,0.0400359622183333,0.199410178218333,0.169912748218333,0.061214662885,-0.0434342220483333,-0.0421204303816667,0.0102431236183333,0.0123193245516667,0.0252202702183333,0.00699509555166666,0.0842757595516666,0.152407315551667,0.082866202885,0.0539489495516667,-0.00199806044833334,0.0468873262183333,-0.0580110737816667,-0.0896325204483333,-0.128404325781667,2181,"DG_s11",34.14,34.75,35.468,35.484,10,10,8,11,0.718,"Left",8,11,3,0,3,3,0,-3,"10-10",2,-1,10,8,10,11
"111",13,"LIN1-LIN2",-0.258090723766667,-0.2845102959,-0.220189712,-0.185554506,-0.184283924,-0.204744327233333,-0.255931421233333,-0.2376845279,-0.236042865233333,0.00486475943333334,0.145619630766667,0.1028711101,-0.0719698979,-0.164862086766667,-0.0889918581,-0.00198160476666667,0.00868526343333334,0.0479177527666667,-0.0228684023666667,-0.0453675037,-0.0850620933,-0.1064911315,-0.153948602166667,2181,"DG_s11",34.14,34.75,35.468,35.484,10,10,8,11,0.718,"Left",8,11,3,0,3,3,0,-3,"10-10",2,-1,10,8,10,11
"112",13,"LIN9-LIN10",0.1904048478,0.2118359498,0.105683015666667,0.154567276333333,0.051270823,0.198293123,0.100542807666667,0.135634614333333,0.0947286043333333,0.152054451666667,0.216388425,0.208049521666667,0.216982009666667,0.106101961666667,0.015910557,0.054112817,0.051316483,0.136163414333333,0.0391314876666667,-0.0299417269333333,-0.0485954089333333,0.1167230844,0.234305148333333,2181,"DG_s11",34.14,34.75,35.468,35.484,10,10,8,11,0.718,"Left",8,11,3,0,3,3,0,-3,"10-10",2,-1,10,8,10,11
"113",13,"RIN9-RIN10",0.0436705667166667,-0.0218169406166667,-0.0307071326166667,-0.02159989599,0.0701544953433333,0.133701272676667,0.19888494605,0.214671953383333,0.23059882005,0.06691418605,-0.0762883146166667,-0.243446062283333,-0.08527968895,0.11220374505,0.289804872716667,0.506941632716667,0.39452382405,0.23046172405,0.0671041173833333,0.01293613205,0.0139293653833333,-0.0356780226166667,0.101753081383333,2181,"DG_s11",34.14,34.75,35.468,35.484,10,10,8,11,0.718,"Left",8,11,3,0,3,3,0,-3,"10-10",2,-1,10,8,10,11
"114",13,"LIN4-LIN5",0.1445738295,0.158067542833333,0.0866569637666667,0.0134430371,0.0085396493,0.1345534217,0.106950706366667,0.1311323575,0.0154842268333333,-0.0103598005,-0.0178725588333333,0.0176695245,0.0477142125,0.1172816575,0.237006682166667,0.313203102833333,0.241568080833333,0.138031046833333,0.142186136166667,0.3028677415,0.222289408833333,0.166495960166667,0.0755480621666667,2181,"DG_s11",34.14,34.75,35.468,35.484,10,10,8,11,0.718,"Left",8,11,3,0,3,3,0,-3,"10-10",2,-1,10,8,10,11
"115",13,"RIN1-RIN2",0.0911472033333333,0.123481417266667,0.190555835933333,0.235076379933333,0.228900864666667,0.356559874666667,0.29058317,0.199039664666667,0.090758938,0.093750288,0.243230313333333,0.332628486,0.277012656,0.295018994666667,0.346476995333333,0.4942191146,0.477490883266667,0.3512899106,0.287912024666667,0.144658247333333,0.123639087333333,0.106863973933333,0.156582099266667,2181,"DG_s11",34.14,34.75,35.468,35.484,10,10,8,11,0.718,"Left",8,11,3,0,3,3,0,-3,"10-10",2,-1,10,8,10,11
"116",13,"RIN2-RIN3",-0.0301807968733333,-0.04509581834,-0.01287265034,0.06011208166,0.0205158229933333,0.00564058052666666,0.0187057751933333,0.0699290065266667,0.0403497969933333,0.04122257366,-0.0545818690066667,0.0474236563266667,0.0782467509933333,0.257436082993333,0.356574196326667,0.279864278326667,0.187810918326667,0.228557004993333,0.28454988166,0.249109754993333,0.00599949855333333,-0.0114322681133333,-0.00331743678,2181,"DG_s11",34.14,34.75,35.468,35.484,10,10,8,11,0.718,"Left",8,11,3,0,3,3,0,-3,"10-10",2,-1,10,8,10,11
"117",13,"LIN2-LIN3",-0.17988952525,-0.152360490583333,-0.109154925916667,-0.181819443916667,-0.253800294583333,-0.317880890583333,-0.269266483916667,-0.221849690583333,-0.15438545405,-0.0328438313833333,0.0364539966166667,-0.0490612565833333,-0.120986688583333,-0.11561033525,-0.103764302583333,-0.0170970465833333,0.02921881075,0.04997879875,-0.0282933139166667,-0.0565562799166667,-0.00364374125,0.0809177932166666,0.09288106855,2181,"DG_s11",34.14,34.75,35.468,35.484,10,10,8,11,0.718,"Left",8,11,3,0,3,3,0,-3,"10-10",2,-1,10,8,10,11
"118",14,"LIN9-LIN10",-0.122473860733333,-0.0953967440666666,-0.212171837333333,-0.21743892,-0.108901354,-0.00910336199999998,0.0334705913333334,0.0714283893333333,-0.0216950573333333,-0.0494245693333333,-0.1803467388,-0.0945219494666667,-0.0860312794666667,-0.079698788,0.0121693786666667,0.142461704666667,0.319561984,0.248557634666667,0.016918608,-0.113235888666667,-0.178587422,-0.163986648,-0.207804550666667,2182,"DG_s11",36.484,37.093,37.922,37.922,18,18,10,10,0.829,"Left",18,18,0,0,0,0,0,0,"Equal",8,8,18,10,18,10
"119",14,"RIN1-RIN2",0.104731577366667,0.2880568403,0.1913992223,0.2133767903,0.0812792355,0.1757421015,0.163522114833333,0.117172002166667,0.0598588383,0.0255052996333333,0.0703301296333333,0.0284236395,0.0216728028333333,-0.0610922051666667,-0.0603398303,0.1564910217,0.2744052297,0.2774762715,0.128650206833333,0.0348491601666667,0.0132202461666667,0.114352638833333,0.0490706121666667,2182,"DG_s11",36.484,37.093,37.922,37.922,18,18,10,10,0.829,"Left",18,18,0,0,0,0,0,0,"Equal",8,8,18,10,18,10
"120",14,"RIN9-RIN10",-0.0338214425,0.0519155581666667,-0.0180111139,0.0141169061,-0.1312338325,-0.1613249951,-0.114841461766667,-0.0353850761666667,0.1060856805,0.1192517205,0.241332984833333,0.2095195915,0.104281070833333,-0.102295887833333,-0.0553452425,-0.0677891065,0.00180894367999999,-0.03717493432,0.0372426063466667,-0.0836284851666667,-0.0679451025,-0.0231434531666667,0.148984146833333,2182,"DG_s11",36.484,37.093,37.922,37.922,18,18,10,10,0.829,"Left",18,18,0,0,0,0,0,0,"Equal",8,8,18,10,18,10
"121",14,"LIN3-LIN4",0.1894069045,0.128982631166667,0.1300229485,-0.00332166616666667,-0.0523784685,-0.1998194785,-0.175135493166667,-0.200483438833333,-0.0545882548333333,-0.0507209201666667,-0.0527684158333333,-0.0860898365,-0.00943081316666667,0.134435557166667,0.1908272005,0.0107647105,-0.0874106768333333,-0.0885424468333333,0.1177154425,0.161470401833333,0.00435380383333334,-0.144694439566667,-0.268477253566667,2182,"DG_s11",36.484,37.093,37.922,37.922,18,18,10,10,0.829,"Left",18,18,0,0,0,0,0,0,"Equal",8,8,18,10,18,10
"122",14,"RIN3-RIN4",0.146882285333333,0.0767303586666667,-0.0438121706666667,0.0290784526666667,0.0870347926666667,0.219628874666667,0.0481473646666667,-0.0289497966666667,0.08683184,0.227810586,0.299220419333333,0.225900786666667,0.164649398666667,0.13862472,0.165576060666667,0.11968203,0.132929696666667,0.173707323333333,0.247284849333333,0.228058275333333,0.0973423506666667,0.01596697,-0.0589013826666667,2182,"DG_s11",36.484,37.093,37.922,37.922,18,18,10,10,0.829,"Left",18,18,0,0,0,0,0,0,"Equal",8,8,18,10,18,10
"123",14,"LIN2-LIN3",-0.108956986666667,-0.067046492,0.0157417406666667,-0.0109085773333333,-0.0784415726666667,-0.049070016,0.049922108,0.066686152,-0.0224618893333333,-0.090872992,-0.0267962813333333,0.042653204,0.1870894062,0.230886937533333,0.261191635533333,0.100358212,0.0290791000666667,-0.0019392026,-0.0158742586,0.08213622,0.0888340113333333,0.176075503333333,0.20895705,2182,"DG_s11",36.484,37.093,37.922,37.922,18,18,10,10,0.829,"Left",18,18,0,0,0,0,0,0,"Equal",8,8,18,10,18,10
"124",14,"LIN4-LIN5",0.226481957066667,0.209997421733333,0.137133759066667,0.0207526704,-0.0107443116,-0.0043431156,-0.0431606002666667,-0.0336004029333333,0.0735231804,0.103418163733333,0.0539574159333333,-0.0259355494,-0.0655086000666667,-0.0559602083333333,0.0883608603333333,0.122414297,0.282534247066667,0.198324871066667,0.284497569066667,0.251100083733333,0.258652485066667,0.1243897644,0.00929473506666667,2182,"DG_s11",36.484,37.093,37.922,37.922,18,18,10,10,0.829,"Left",18,18,0,0,0,0,0,0,"Equal",8,8,18,10,18,10
"125",14,"RIN2-RIN3",0.0705155551666667,0.1001461505,0.0442770485,0.1249413445,0.166065305166667,0.2417237145,0.223983201833333,0.2696597285,0.483374287833333,0.470372545166667,0.499336237833333,0.371064125833333,0.44443052262,0.31598255902,0.231025347066667,0.150847736946667,0.195489061213333,0.2195018465,0.301230713166667,0.182867941833333,0.120830493833333,-0.0448851588333333,-0.0476000379666667,2182,"DG_s11",36.484,37.093,37.922,37.922,18,18,10,10,0.829,"Left",18,18,0,0,0,0,0,0,"Equal",8,8,18,10,18,10
"126",14,"LIN1-LIN2",0.141292376666667,0.115627048,0.125439924933333,9.60769333333347e-05,0.0494956602666667,0.127690860666667,0.113987660666667,0.0401161526666667,-0.128017122666667,-0.0320027826666667,-0.00399008266666666,0.0775333566666667,0.245260336666667,0.424399163333333,0.463700119333333,0.289059300666667,0.169880067333333,0.184632272,0.155678397333333,0.230235724,0.251786459333333,0.297610233333333,0.27905192,2182,"DG_s11",36.484,37.093,37.922,37.922,18,18,10,10,0.829,"Left",18,18,0,0,0,0,0,0,"Equal",8,8,18,10,18,10
"127",15,"RIN9-RIN10",-0.0211729131666667,0.0540183408333333,-0.0579815338333333,-0.1582722505,-0.2108635305,-0.245270396033333,-0.161596265366667,-0.1364032995,0.00050891003333333,-0.00629557596666667,0.0953710801666667,-0.0364113371666667,-0.0760186118333333,-0.172051005833333,-0.1465803037,-0.0897271670333333,-0.150793248366667,0.0196318895,-0.0455527171666667,0.1297000095,-0.0220587705,0.0780751775,0.0546799041666667,2183,"DG_s11",38.922,39.531,40.687,40.687,10,10,8,16,1.156,"Right",8,16,8,0,8,8,0,-8,"10-10",2,-6,8,10,16,10
"128",15,"RIN1-RIN2",-0.0308838795,0.0985860005,0.143869609166667,0.220986481166667,0.0567418885,-0.0313903501666667,-0.0771134955,-0.162746736166667,-0.1318812855,-0.161561306166667,0.0323296605,-0.0077129735,0.0329668315666667,-0.0472409217666667,0.0937105149,-0.0186880028333333,-0.0818731655,-0.1635627955,-0.0711431994333333,-0.0210844261,-0.0269841294333333,0.0772211751666667,-0.0125626301666667,2183,"DG_s11",38.922,39.531,40.687,40.687,10,10,8,16,1.156,"Right",8,16,8,0,8,8,0,-8,"10-10",2,-6,8,10,16,10
"129",15,"LIN1-LIN2",0.0596869593333333,0.104556084666667,0.224626339333333,0.216675019333333,0.137837268666667,0.109699197733333,0.1593020124,0.1484083844,0.187981767333333,0.0859661726666667,0.0585415906,-0.0230714074,0.0448018124666667,0.0353327688666667,0.0012889312,-0.00396266426666667,0.0509416347333333,0.128405941733333,0.0668054173333333,0.106358584,0.0952108126666667,0.127772351333333,0.01970449,2183,"DG_s11",38.922,39.531,40.687,40.687,10,10,8,16,1.156,"Right",8,16,8,0,8,8,0,-8,"10-10",2,-6,8,10,16,10
"130",15,"LIN4-LIN5",-0.110946191883333,-0.115028833883333,-0.05634368055,0.0114325527833333,-0.0481034332166667,-0.185106069216667,-0.22020210655,-0.254056091883333,-0.19001325055,-0.225224933216667,-0.225880632016667,-0.242355254683333,-0.226959918016667,-0.26057731255,-0.31019370055,-0.341908823883333,-0.16182959055,-0.05785351855,0.0451275161166667,-0.09885430655,-0.116429383216667,-0.126546943883333,0.0327806433166667,2183,"DG_s11",38.922,39.531,40.687,40.687,10,10,8,16,1.156,"Right",8,16,8,0,8,8,0,-8,"10-10",2,-6,8,10,16,10
"131",15,"LIN3-LIN4",0.194589611466667,0.1491694028,0.136076582133333,0.2791376722,0.381983691533333,0.2952993462,0.241307433066667,0.204691429733333,0.240206069066667,0.1456995602,0.0187585908666667,0.0836251782,0.234612674866667,0.3169437048,0.308499469466667,0.1850885728,0.169694402866667,0.1364438002,0.175265910693333,0.09477383136,0.0132248690266667,0.0537273398666667,0.1629308052,2183,"DG_s11",38.922,39.531,40.687,40.687,10,10,8,16,1.156,"Right",8,16,8,0,8,8,0,-8,"10-10",2,-6,8,10,16,10
"132",15,"RIN2-RIN3",-0.01059911735,0.00726695031666666,0.12803915765,0.0932761523166667,0.0372271603166667,-0.0316830130166667,0.000365787649999998,0.0502084363166667,-0.03407145635,-0.0887884650166667,0.0682897049833333,0.226542430983333,0.244605870983333,0.0680085943166667,-0.00772349901666667,0.01736958765,0.0733808983166667,0.0170980814966667,0.10745981483,0.01095367083,0.109441562316667,-0.02074063835,0.0807460409833333,2183,"DG_s11",38.922,39.531,40.687,40.687,10,10,8,16,1.156,"Right",8,16,8,0,8,8,0,-8,"10-10",2,-6,8,10,16,10
"133",15,"RIN3-RIN4",0.00928000613333333,-0.022985446,0.0453803372,-0.0321206832,0.00505339813333333,0.0449209549333333,0.146862403333333,0.150192054,0.0510076926666667,-0.0455734658,-0.00208651646666667,0.0460071428666667,0.0763429866666667,-0.0138248673333333,-0.0730173293333333,-0.0603444393333333,-0.116957775333333,-0.046251416,0.0842608866666667,0.210862226666667,0.308015284,0.160574237333333,0.143226653333333,2183,"DG_s11",38.922,39.531,40.687,40.687,10,10,8,16,1.156,"Right",8,16,8,0,8,8,0,-8,"10-10",2,-6,8,10,16,10
"134",15,"LIN9-LIN10",0.00764331406666668,-0.0183542566,0.0810829647333333,0.159492478066667,0.228434050066667,0.166289514733333,0.0775528214,0.1176618214,0.0669355247333333,0.0156057880666667,-0.121202661266667,-0.0457448692666667,0.0218962327333333,0.175468392066667,0.2141095614,0.167897760733333,0.115934584066667,0.0208368794,0.0723791880666667,0.111885894733333,0.111643194066667,0.0241868440666667,-0.0312484099333333,2183,"DG_s11",38.922,39.531,40.687,40.687,10,10,8,16,1.156,"Right",8,16,8,0,8,8,0,-8,"10-10",2,-6,8,10,16,10
"135",15,"LIN2-LIN3",-0.0877917965,-0.1965565325,-0.159791391166667,-0.128054001833333,-0.170103411166667,-0.1684281925,-0.166650821833333,-0.0404278151666667,0.0363901095,0.0229377721666667,-0.0688198791666667,-0.1160663525,-0.0459035618333333,-0.0843970705,-0.00875321716666667,-0.0590265565,-0.0297911938333333,-0.109677573833333,-0.121248859833333,-0.0669852511666667,-0.0834848718333333,-0.0689936331666667,-0.0470848125,2183,"DG_s11",38.922,39.531,40.687,40.687,10,10,8,16,1.156,"Right",8,16,8,0,8,8,0,-8,"10-10",2,-6,8,10,16,10
"136",16,"LIN4-LIN5",-0.0589023843333333,-0.0793999643333333,-0.0860602654,-0.0816549927333333,-0.246281246066667,-0.212034489,-0.242749409666667,-0.178749633,-0.262323042333333,-0.325698551666667,-0.235824181666667,-0.111333228333333,-0.0853624283333333,-0.138184261666667,-0.152440657,-0.0746688323333333,-0.153735927333333,-0.245851776,-0.279584041333333,-0.288777899666667,-0.200413777,-0.226532661,-0.120111157,2184,"DG_s11",41.687,42.297,43,43,10,10,3,17,0.703,"Left",3,17,14,0,14,14,0,-14,"10-10",7,-7,10,3,10,17
"137",16,"RIN9-RIN10",0.0802452322666667,0.160278072266667,0.1535275476,0.159352888466667,0.0391800251333333,-0.0582846475333333,-0.0442873082,0.0897543118,0.168873200466667,0.188860343133333,0.0976907978,0.0916974804666667,0.1646136318,0.434917890466667,0.405318271133333,0.3113324858,0.0847543398,0.111962163133333,0.0616888544666667,0.135635576466667,0.185054382466667,0.2739704138,0.300483118466667,2184,"DG_s11",41.687,42.297,43,43,10,10,3,17,0.703,"Left",3,17,14,0,14,14,0,-14,"10-10",7,-7,10,3,10,17
"138",16,"LIN3-LIN4",0.121411170166667,0.245916432833333,0.161039436833333,0.0276727328333333,-0.0910682245,-0.0282690998333333,-0.0588727631666667,-0.0197019385,-0.0115213958333333,0.1036806975,0.0570823890333333,0.0736408415066667,-0.04148823116,-0.0197060492266667,-0.0679290477,-0.0611838323666667,0.0385285815,0.1181967835,0.2038424835,0.134793188166667,-0.0246912391666667,-0.138468103166667,-0.0950861691666667,2184,"DG_s11",41.687,42.297,43,43,10,10,3,17,0.703,"Left",3,17,14,0,14,14,0,-14,"10-10",7,-7,10,3,10,17
"139",16,"RIN2-RIN3",-0.154267301833333,-0.109361491166667,-0.0459591045,-0.0618155018333333,-0.204142231166667,-0.276227953833333,-0.257854895833333,-0.143350939833333,-0.1549513335,-0.2584051367,-0.2589034567,-0.2419604177,-0.1660664125,-0.219187721166667,-0.1830937605,-0.0881705025,-0.134334391833333,-0.2210770807,-0.304428752033333,-0.2681660207,-0.161798851833333,-0.1603980985,-0.102792295166667,2184,"DG_s11",41.687,42.297,43,43,10,10,3,17,0.703,"Left",3,17,14,0,14,14,0,-14,"10-10",7,-7,10,3,10,17
"140",16,"LIN2-LIN3",0.017965972,0.199541270666667,0.131202529873333,0.08831253654,-0.0682556747933333,-0.0223250013333333,0.0214268053333333,0.0855961186666667,0.081412998,0.024774972,0.0281301693333333,0.0912204205333333,0.0134020432,-0.0118569468,-0.118894027333333,0.054980256,0.128352938,0.305550308,0.194908841333333,0.139129082,0.0435846318,0.0294319358,0.0320759038,2184,"DG_s11",41.687,42.297,43,43,10,10,3,17,0.703,"Left",3,17,14,0,14,14,0,-14,"10-10",7,-7,10,3,10,17
"141",16,"RIN1-RIN2",0.0805814101,-0.0573639045666667,-0.104340737233333,-0.2343667879,-0.1091251827,-0.0787367300333333,-0.0659136800333333,-0.0261164714333333,-0.132343339433333,-0.0445641861,0.0204349667666667,0.0933052394333333,0.0307263694333333,-0.00993938523333333,0.0405170814333333,0.162528887433333,0.154384966766667,0.0953977247,0.0501246973666667,0.0214493860333333,0.0280925167666667,0.1098370281,0.00961337543333333,2184,"DG_s11",41.687,42.297,43,43,10,10,3,17,0.703,"Left",3,17,14,0,14,14,0,-14,"10-10",7,-7,10,3,10,17
"142",16,"LIN9-LIN10",0.0501357761666667,0.0654246761,0.170290305433333,0.226081106766667,0.208367984166667,0.2600163595,0.488867642833333,0.561369238833333,0.422381392166667,0.0754764208333333,0.0254227728333333,0.2345117795,0.408464796166667,0.301919896166667,0.192201496166667,0.0521400648333333,0.159196092833333,0.294741086166667,0.4716325615,0.3870991735,0.1526524235,0.1230316675,0.209937722166667,2184,"DG_s11",41.687,42.297,43,43,10,10,3,17,0.703,"Left",3,17,14,0,14,14,0,-14,"10-10",7,-7,10,3,10,17
"143",16,"LIN1-LIN2",-0.08036795655,0.0736800309766667,0.06893092231,0.04318207831,-0.0777889852166667,-0.143981147216667,-0.150983063216667,-0.209817057883333,0.0413714707833333,0.10528253945,0.189386218116667,-0.06961043255,-0.18561257255,-0.190102191883333,-0.06024327455,-0.000438521883333348,-0.0664270578833333,-0.19326262255,-0.200572629216667,-0.10170988355,-0.00232131888333334,0.0465967937833333,-0.00475955121666666,2184,"DG_s11",41.687,42.297,43,43,10,10,3,17,0.703,"Left",3,17,14,0,14,14,0,-14,"10-10",7,-7,10,3,10,17
"144",16,"RIN3-RIN4",0.142554718148333,0.113548174148333,0.124860094815,0.127636444148333,0.160709868148333,0.119534314148333,0.146572128148333,0.171504218815,0.209168519481667,0.201396450148333,0.157884650148333,0.00880359348166667,0.0141881534816667,0.0610543241483333,0.0708034961483333,0.0337433954816667,-0.001934907185,0.109936430815,0.111570322148333,0.126712756815,0.070514580815,0.0449990541483333,0.134924383481667,2184,"DG_s11",41.687,42.297,43,43,10,10,3,17,0.703,"Left",3,17,14,0,14,14,0,-14,"10-10",7,-7,10,3,10,17
"145",17,"LIN2-LIN3",-0.0773789438166667,-0.0532535726833333,-0.03601858535,0.03054428125,-0.0424906038833333,-0.07462781855,-0.12217456255,-0.07635989655,-0.0163497838833333,0.0493435267833333,0.0863683323166667,0.0239164943166667,-0.0436621670166667,-0.05903955255,-0.0281047172166667,-0.0384112082833333,-0.05546764835,0.128392482316667,0.16834810805,0.212422340783333,0.00912647291666666,-0.0710998584166667,-0.20075456375,2185,"DG_s11",44,44.609,45.422,45.422,10,10,6,6,0.813,"Left",6,6,0,0,0,0,0,0,"10-10",4,4,10,6,10,6
"146",17,"RIN3-RIN4",0.0618755191666667,0.0876638578333333,0.00726923116666667,-0.0063626595,0.0567298465,0.0696635971666667,0.00583891723333333,-0.0141524911666667,0.0490392648333333,0.0066575201,-0.0269868108333333,-0.1025769355,0.0838659445,0.306245803833333,0.4381497645,0.322536770366667,0.172539888366667,0.1037013457,0.0976806621666667,0.0932281848333333,0.00769617083333333,-0.0211124675,0.0328413258333333,2185,"DG_s11",44,44.609,45.422,45.422,10,10,6,6,0.813,"Left",6,6,0,0,0,0,0,0,"10-10",4,4,10,6,10,6
"147",17,"RIN1-RIN2",0.2685525923,0.236724608766667,0.2271305927,0.1296677727,0.160458132766667,0.315260481433333,0.3848585729,0.251327123033333,0.0490497330333333,0.0803049402333333,0.0229574935666667,-0.0539347831,-0.118264407766667,-0.0869295477666667,0.0633434962333333,0.204925843566667,0.4106337769,0.344495577566667,0.155461749566667,0.0497030029,0.0330235022333333,0.121528264233333,0.00372487423333333,2185,"DG_s11",44,44.609,45.422,45.422,10,10,6,6,0.813,"Left",6,6,0,0,0,0,0,0,"10-10",4,4,10,6,10,6
"148",17,"LIN9-LIN10",-0.182671189433333,-0.0697378907666667,-0.0375286081,-0.0261931485,-0.0777330838333333,-0.00629597250000002,-0.0803991818333333,-0.0553593685,-0.1356011885,-0.1144553405,-0.2544586183,-0.244335105633333,-0.2184048043,-0.157293063833333,-0.184852979166667,-0.156703677833333,-0.0772184558333333,-0.0150922865,0.1439672789,0.2782501609,0.167263707566667,-0.0569338485,-0.2329714645,2185,"DG_s11",44,44.609,45.422,45.422,10,10,6,6,0.813,"Left",6,6,0,0,0,0,0,0,"10-10",4,4,10,6,10,6
"149",17,"RIN9-RIN10",0.0622581537,0.0498504523666667,-0.0025171723,0.0208079191666667,0.00205248023333333,0.0174248429,-0.1381282897,-0.0949026790333333,-0.0407750337,-0.0212878437666667,-0.134295008166667,-0.200499544166667,-0.178568372166667,-0.177410358833333,-0.170098628833333,-0.188634975433333,-0.118647939633333,-0.0556299949666667,0.0412389556333333,0.0636912032333333,0.0273396752333333,0.0176666485666667,0.0459900125,2185,"DG_s11",44,44.609,45.422,45.422,10,10,6,6,0.813,"Left",6,6,0,0,0,0,0,0,"10-10",4,4,10,6,10,6
"150",17,"LIN1-LIN2",-0.110049767166667,-0.231443761166667,-0.1761786065,-0.188574339166667,-0.160156911833333,-0.1450144665,-0.0485416078333333,-0.0332372491666667,-0.0200965311666667,-0.1216459167,-0.0661290460333333,0.00524446196666667,0.0298638941666667,-0.0131646285,-0.0530498251666667,-0.0565710725,0.0313701468333333,0.0776560001666667,0.180590742166667,0.0521506468333333,0.0310856508333333,0.000329220166666672,0.0416677761666667,2185,"DG_s11",44,44.609,45.422,45.422,10,10,6,6,0.813,"Left",6,6,0,0,0,0,0,0,"10-10",4,4,10,6,10,6
"151",17,"LIN3-LIN4",-0.0125249474,0.113981482133333,0.114404032133333,0.0922476881333333,-0.0284167338666667,-0.0822528512,-0.0442129265333333,0.0333768221333333,0.0660542421533333,0.04249732882,-0.08118422118,-0.0868551058666667,-0.0950629605333333,-0.0412367592,0.0221545781333333,-0.0366352452,-0.0473109325333333,-0.111896525866667,-0.0512905858666667,-0.0591432518666667,-0.0896128705333333,-0.1033055,-0.0925836753333333,2185,"DG_s11",44,44.609,45.422,45.422,10,10,6,6,0.813,"Left",6,6,0,0,0,0,0,0,"10-10",4,4,10,6,10,6
"152",17,"RIN2-RIN3",0.2458707545,0.322585605166667,0.387124513833333,0.301720083166667,0.3466876325,0.407596163166667,0.4742874385,0.418978501833333,0.265361015166667,0.2752288537,0.2141871897,0.107203943033333,0.111141837166667,0.212603537833333,0.3587492825,0.468883571166667,0.450100271166667,0.4713941465,0.261326959833333,0.271798801833333,0.0488553151666666,0.00976868183333332,-0.1477009955,2185,"DG_s11",44,44.609,45.422,45.422,10,10,6,6,0.813,"Left",6,6,0,0,0,0,0,0,"10-10",4,4,10,6,10,6
"153",17,"LIN4-LIN5",-0.0341090358333333,0.0669778868333333,0.0367787888333333,-0.0294121498333333,-0.0755273238333333,-0.0452921498333333,-0.0176624911666667,0.158869100166667,0.249416726833333,0.254185198833333,0.0309021681666667,0.0797859615,0.0876877095,0.2083183355,0.111904021566667,0.269761773566667,0.198365716233333,0.1871404055,-0.00020301516666666,-0.0286155318333333,-0.1363143053,-0.173181636633333,-0.187468366633333,2185,"DG_s11",44,44.609,45.422,45.422,10,10,6,6,0.813,"Left",6,6,0,0,0,0,0,0,"10-10",4,4,10,6,10,6
"154",18,"LIN9-LIN10",0.0874418615,0.0166026348333333,-0.105318971166667,-0.132855330833333,-0.1768583815,0.0108071798333333,0.0137262541666667,0.2275889895,0.0424782161666667,0.0188585415,-0.184475073833333,-0.223886473833333,-0.2541716105,-0.1622349285,-0.1431303559,-0.1413475723,-0.347187638966667,-0.3754607709,-0.316595783833333,-0.132639023833333,0.0292209821666667,0.0713409915,0.1075757055,2186,"DG_s11",46.422,47.031,47.843,47.843,10,10,14,26,0.812,"Left",14,26,12,0,12,12,0,-12,"10-10",-4,-16,10,14,10,26
"155",18,"RIN9-RIN10",-0.223179873,-0.132772735666667,-0.134856945666667,-0.0974724143333333,0.017117799,-0.0150703256666667,0.014970937,-0.0906532203333333,-0.0920761856666667,-0.059792175,-0.0591825503333333,-0.038928967,-0.0862621723333333,-0.132845424333333,-0.187474569666667,-0.182510378333333,-0.124691247,-0.0764670296666667,-0.0574400203333333,0.00125941606666666,-0.0287393606,-0.0480368492666667,0.0215613063333333,2186,"DG_s11",46.422,47.031,47.843,47.843,10,10,14,26,0.812,"Left",14,26,12,0,12,12,0,-12,"10-10",-4,-16,10,14,10,26
"156",18,"RIN3-RIN4",-0.194927219183333,-0.13036437405,-0.146548571383333,-0.0300243393833333,0.0588049754833333,0.0624830334833333,-0.08172043985,-0.13921465985,0.11050856015,0.162301858816667,0.101476240816667,-0.0497501805166667,0.03189702615,0.13680445015,0.08103996215,-0.00220466918333333,0.03806583815,0.102274880816667,0.118552710816667,-0.0254833151833333,-0.0344786471833333,-0.0964302185166667,-0.180186499183333,2186,"DG_s11",46.422,47.031,47.843,47.843,10,10,14,26,0.812,"Left",14,26,12,0,12,12,0,-12,"10-10",-4,-16,10,14,10,26
"157",18,"LIN1-LIN2",0.0972367491166667,0.0543156777833333,-0.08111871155,-0.200090028883333,-0.252063060883333,-0.310603440216667,-0.39360679355,-0.35974559155,-0.148558402883333,0.0474818971166667,0.10890151845,-0.0428243382166667,-0.110587870216667,0.03993637645,0.12871684645,0.18289880865,-0.0340937080166667,-0.174817728016667,-0.34827983155,-0.28332663755,-0.233113202883333,-0.163457480883333,-0.20494911155,2186,"DG_s11",46.422,47.031,47.843,47.843,10,10,14,26,0.812,"Left",14,26,12,0,12,12,0,-12,"10-10",-4,-16,10,14,10,26
"158",18,"LIN4-LIN5",0.0728020068333333,-0.0151095358333333,-0.0707814671666667,-0.0031073205,-0.0258558751666667,0.201971220833333,0.1460267215,0.411639078833333,0.2266640335,0.253652270166667,0.2362604035,0.346617088833333,0.326982568966667,0.1630128223,0.155308555633333,0.153582204833333,0.3098825515,0.189842424833333,0.171716328166667,-0.0339731318333333,-0.0397017765,-0.0636634100333333,-0.107445241366667,2186,"DG_s11",46.422,47.031,47.843,47.843,10,10,14,26,0.812,"Left",14,26,12,0,12,12,0,-12,"10-10",-4,-16,10,14,10,26
"159",18,"RIN1-RIN2",0.00293040943333333,0.0104888634333333,0.113711244,0.219069625333333,0.140705842666667,0.0898751533333333,0.00940618,0.105568596666667,0.187217045333333,0.347199997333333,0.228589188666667,0.178520991333333,0.0885276906666667,0.167725563766667,0.176184408366667,0.141229949033333,0.3367506966,0.324657789133333,0.3513257498,0.144561109133333,0.132627650733333,0.125984936733333,0.0452229574,2186,"DG_s11",46.422,47.031,47.843,47.843,10,10,14,26,0.812,"Left",14,26,12,0,12,12,0,-12,"10-10",-4,-16,10,14,10,26
"160",18,"LIN3-LIN4",-0.16052055955,-0.116935577283333,-0.185422996616667,-0.171043871283333,-0.0691825348833333,0.0352007897833333,-0.0332414588833334,-0.20971111355,-0.242981590883333,-0.187584502883333,-0.109113454883333,-0.10817193355,-0.125987068883333,-0.0410324576166667,-0.08668666895,-0.04544477495,-0.192023770216667,-0.0667820542166667,-0.0892823398833333,-0.0643104752166667,-0.05527349055,-0.116628196216667,-0.15469753515,2186,"DG_s11",46.422,47.031,47.843,47.843,10,10,14,26,0.812,"Left",14,26,12,0,12,12,0,-12,"10-10",-4,-16,10,14,10,26
"161",18,"RIN2-RIN3",-0.03280024265,-0.115457205983333,0.03165301935,0.0901551260166667,0.0834999100166667,0.01836166195,0.0119685356166667,0.0160971422833333,0.02987123235,0.00518965268333333,-0.07521642665,-0.118390415316667,-0.119229315983333,-0.02506470465,-0.07567067465,-0.01954981665,0.05607415135,0.0762409266833333,0.0608258538833333,-0.02515065545,0.08328537255,0.0390131866833333,-0.00767720665,2186,"DG_s11",46.422,47.031,47.843,47.843,10,10,14,26,0.812,"Left",14,26,12,0,12,12,0,-12,"10-10",-4,-16,10,14,10,26
"162",18,"LIN2-LIN3",-0.226735801166667,-0.347370163166667,-0.471877143833333,-0.454834647833333,-0.297649217833333,-0.3848768505,-0.4614975385,-0.4863342365,-0.300894373166667,-0.188887155166667,-0.2548671617,-0.309904185033333,-0.369487498366667,-0.208388315833333,-0.2419894025,-0.253478685233333,-0.440017471233333,-0.442617536566667,-0.357689779833333,-0.330467145166667,-0.3180457565,-0.400972819026667,-0.48703952036,2186,"DG_s11",46.422,47.031,47.843,47.843,10,10,14,26,0.812,"Left",14,26,12,0,12,12,0,-12,"10-10",-4,-16,10,14,10,26
"163",19,"LIN1-LIN2",-0.191808334933333,-0.2277286662,-0.299820994866667,-0.341916341533333,-0.216890836333333,-0.119985251,-0.0216365756666667,0.031620741,0.00754106299999999,-0.0325255890666667,-0.0678052710666667,-0.0035600764,0.0444358083333333,-0.0326260936666667,-0.0949858043333333,-0.122766437666667,-0.1105811822,-0.1337601722,0.0352914331333333,0.170195779666667,0.288799328333333,0.140191309,0.037987105,2187,"DG_s11",48.843,49.453,50.562,50.562,10,10,11,7,1.109,"Right",11,7,4,0,4,0,-4,4,"10-10",-1,3,11,10,7,10
"164",19,"RIN3-RIN4",-0.037912249,-0.0588234956666667,0.0248376216666667,0.161941875666667,0.160893090333333,0.0791523903333333,-0.009937717,0.018916383,-0.0331000423333333,0.0209253123333333,0.0286434151333333,0.160836088466667,0.0766883278,0.0547819243333333,-0.132553962333333,-0.111560918333333,0.018806161,0.141317977,0.133656752133333,0.0478431194666667,0.166184210133333,0.154466055,0.177188053666667,2187,"DG_s11",48.843,49.453,50.562,50.562,10,10,11,7,1.109,"Right",11,7,4,0,4,0,-4,4,"10-10",-1,3,11,10,7,10
"165",19,"LIN9-LIN10",-0.111370030883333,0.03488488065,0.06394992665,0.04328370665,0.01379972445,0.0508505837166667,0.187200483716667,0.135669407716667,0.0996400437833334,-0.0701081662166667,-0.0344548642166667,-0.0256650242166667,0.0152932817833333,-0.09624193155,-0.158680984883333,-0.226723136216667,0.0800540971166667,0.340037177316667,0.44579729265,0.179836445983333,-0.00406874688333332,-0.05606516955,-0.0867840688833333,2187,"DG_s11",48.843,49.453,50.562,50.562,10,10,11,7,1.109,"Right",11,7,4,0,4,0,-4,4,"10-10",-1,3,11,10,7,10
"166",19,"RIN2-RIN3",-0.0248147661,0.0717427172333333,0.119966002633333,-0.0628057373666667,-0.211014587366667,-0.207040267433333,-0.0712842467666667,-0.0534294687666667,-0.2120543221,-0.2788942821,-0.247753477433333,-0.0844167641,-0.0574686134333333,-0.0870825607666667,-0.128864840766667,-0.0789674014333333,-0.0142703721,0.1427624859,0.1477585339,0.193447436566667,0.0852246585666667,0.0175502732333333,-0.124162810766667,2187,"DG_s11",48.843,49.453,50.562,50.562,10,10,11,7,1.109,"Right",11,7,4,0,4,0,-4,4,"10-10",-1,3,11,10,7,10
"167",19,"RIN9-RIN10",-0.0167482474333333,-0.0639850694333333,-0.0489323594333333,-0.1137200131,-0.0265253613666667,-0.0217584200333333,-0.159228662366667,-0.2208914941,-0.3000290741,-0.1723392141,-0.111606779433333,-0.06502964662,-0.01287806662,-0.01788941782,0.0458886967,-0.0747841233,-0.134277112766667,-0.128467211433333,-0.0463855392866667,-0.05370294002,-0.141175753353333,-0.2421984255,-0.251463502766667,2187,"DG_s11",48.843,49.453,50.562,50.562,10,10,11,7,1.109,"Right",11,7,4,0,4,0,-4,4,"10-10",-1,3,11,10,7,10
"168",19,"LIN3-LIN4",0.155218195,0.109838698333333,0.100819485,0.099033359,0.186172701,0.0889141123333333,0.150587863733333,0.0807508424,0.0249581044,-0.067171475,-0.0963369836666667,-0.0161450703333333,0.0885175423333333,0.078515319,0.0167080043333333,-0.0294911416666667,0.029585627,0.231587695,0.378409598066667,0.303846304733333,0.1751623154,0.0223031923333333,0.0344883903333333,2187,"DG_s11",48.843,49.453,50.562,50.562,10,10,11,7,1.109,"Right",11,7,4,0,4,0,-4,4,"10-10",-1,3,11,10,7,10
"169",19,"RIN1-RIN2",0.357465684,0.124094744,0.170392440666667,0.193941987333333,0.122643483333333,0.0625457093333333,-0.0765923257333333,-0.0579256110666667,-0.00914156773333333,0.00726426733333334,0.0314722613333333,0.0493285886666667,0.0641960586666667,0.0530400677333333,0.0142562077333333,-0.0594431036,-0.0561402093333333,-0.00447444186666666,0.2538209228,0.258876655466667,0.172210362,0.0336290386666667,0.101929859,2187,"DG_s11",48.843,49.453,50.562,50.562,10,10,11,7,1.109,"Right",11,7,4,0,4,0,-4,4,"10-10",-1,3,11,10,7,10
"170",19,"LIN2-LIN3",0.0776300410333333,0.0398336337,-0.107888736966667,-0.0899340736333333,-0.135050819233333,-0.0962212659,-0.0539234765666667,-0.0272573323,-0.0849856923,-0.135829525633333,-0.144600283633333,-0.1172374903,-0.0983083797,-0.1290185157,-0.0951845890333333,-0.129975480966667,-0.0291951209666667,0.0892792590333333,0.179662380366667,0.2041640417,0.127138568366667,0.120188747033333,0.113210572366667,2187,"DG_s11",48.843,49.453,50.562,50.562,10,10,11,7,1.109,"Right",11,7,4,0,4,0,-4,4,"10-10",-1,3,11,10,7,10
"171",19,"LIN4-LIN5",-0.0698885475,0.119913275366667,0.1541669361,0.2530791655,0.00934729216666667,-0.00326060316666667,-0.0490698525,0.0235450021666667,-0.0362708458333333,-0.0299270071666667,-0.100494999166667,-0.0731486451666667,-0.232428305166667,-0.240896151166667,-0.229750713833333,-0.0476461211666667,0.00299379223333333,-0.0175172937666667,-0.1751419731,-0.2763980765,-0.259614997166667,-0.2547282105,-0.139420869833333,2187,"DG_s11",48.843,49.453,50.562,50.562,10,10,11,7,1.109,"Right",11,7,4,0,4,0,-4,4,"10-10",-1,3,11,10,7,10
"172",20,"LIN1-LIN2",0.360026679216667,0.282049617252667,0.124112243252667,-0.0565242900806667,-0.15028859945,0.0121157938833333,0.0808537738833333,0.104434451883333,0.00104770455,0.0713083312166667,0.0673359198833333,0.0603592558833333,-0.0585736487833333,-0.0408643687833333,0.08586380455,0.18578890255,0.287819975883333,0.24389304055,0.284938577216667,0.294536247883333,0.33487375455,0.28313740515,0.25308785915,2188,"DG_s11",51.562,52.172,53.25,53.25,10,10,16,4,1.078,"Right",16,4,12,0,12,0,-12,12,"10-10",-6,6,16,10,4,10
"173",20,"LIN9-LIN10",-0.06999053365,0.103372267683333,0.0766835730166667,0.15490711435,0.0608995990166667,0.08611172955,0.131128296216667,0.16619786555,0.241128063016667,0.169004903016667,0.08821496035,0.106358157016667,0.0402778456833333,0.120607447683333,-0.0253229229833333,0.09217808835,0.0674640516833333,-0.0253902049833333,-0.01323760365,0.02131747635,0.185333087683333,0.24912514635,0.163748343683333,2188,"DG_s11",51.562,52.172,53.25,53.25,10,10,16,4,1.078,"Right",16,4,12,0,12,0,-12,12,"10-10",-6,6,16,10,4,10
"174",20,"RIN3-RIN4",0.0231639609333333,0.068439647,0.0867287863333333,-0.0129108223333333,0.038663201,0.113206201,0.147461041,0.0828750596666667,-0.0168743356,-0.0567506376,0.0294109284,0.137606036333333,0.143983940333333,0.162669262333333,0.162548789666667,0.191255122333333,0.082348209,0.0218480023333333,0.185920623,0.136863993,0.0420683863333333,-0.0237468580666667,-0.0108064954,2188,"DG_s11",51.562,52.172,53.25,53.25,10,10,16,4,1.078,"Right",16,4,12,0,12,0,-12,12,"10-10",-6,6,16,10,4,10
"175",20,"LIN3-LIN4",-0.0615785043333333,0.0440066223333333,0.166049847,0.154977615,0.087673805,-0.0629505776666667,0.0610764116666667,0.0892550196666667,0.262041959666667,0.2336736936,0.2164644956,0.0954702289333333,0.0711076723333333,0.067299311,0.205371963666667,0.151095069666667,0.181289323,0.179171793,0.254412973666667,0.408080875,0.330525173666667,0.273843212333333,0.0986822856666667,2188,"DG_s11",51.562,52.172,53.25,53.25,10,10,16,4,1.078,"Right",16,4,12,0,12,0,-12,12,"10-10",-6,6,16,10,4,10
"176",20,"RIN1-RIN2",0.15526642255,0.01292076015,0.09276118175,0.175626604416667,0.13335506015,0.0875308068166667,0.0936635868166667,0.164973005403333,0.140574565403333,0.0348206247366667,0.110645928816667,0.157232844216667,0.235786294216667,0.0852780708833333,0.0354013488166667,-0.00795671318333333,0.11720110815,0.282200014816667,0.199343280816667,0.236101094816667,0.210895010083333,0.33047669675,0.09801543035,2188,"DG_s11",51.562,52.172,53.25,53.25,10,10,16,4,1.078,"Right",16,4,12,0,12,0,-12,12,"10-10",-6,6,16,10,4,10
"177",20,"RIN2-RIN3",0.00239381266666666,0.007209036,0.03798813,-0.032510684,-0.119914288,-0.236119792666667,-0.26153573,-0.211539919066667,-0.159054605733333,-0.1064479044,0.0331371686666667,0.132317094,0.171941984,-0.027161204,-0.0298290626666667,-0.054807774,-0.00201775933333334,-0.0358641326666667,-0.013328926,0.0534935413333333,0.0104852546666667,0.000583373333333331,-0.106117708666667,2188,"DG_s11",51.562,52.172,53.25,53.25,10,10,16,4,1.078,"Right",16,4,12,0,12,0,-12,12,"10-10",-6,6,16,10,4,10
"178",20,"LIN2-LIN3",-0.0811752698333333,-0.154993175833333,-0.253876135833333,-0.253866661833333,-0.205085151833333,-0.1314580685,0.0012343035,0.0950655135,0.1679412835,0.219109324166667,0.155478162833333,0.0906115221666667,-0.0264219971666667,-0.1008505865,-0.208510785833333,-0.173102685166667,-0.0256533145,0.100578754833333,0.0970394412333333,0.167671870566667,0.258467101233333,0.209337556166667,0.0628595821666667,2188,"DG_s11",51.562,52.172,53.25,53.25,10,10,16,4,1.078,"Right",16,4,12,0,12,0,-12,12,"10-10",-6,6,16,10,4,10
"179",20,"RIN9-RIN10",0.218886136483333,0.209051705816667,0.0352496878166667,-0.06400585485,-0.135236136183333,-0.01074640485,-0.152054595516667,-0.147191324183333,-0.19515065085,0.00826854915,0.0505578358166667,0.04938310515,0.0319838318166667,0.00289312735,-0.0625710193166667,-0.221403965983333,-0.0730432401833333,-0.06020862885,0.0889020404833333,-0.00300770805,0.189078904616667,0.15554751995,0.151445374483333,2188,"DG_s11",51.562,52.172,53.25,53.25,10,10,16,4,1.078,"Right",16,4,12,0,12,0,-12,12,"10-10",-6,6,16,10,4,10
"180",20,"LIN4-LIN5",0.0195889821916667,0.088558471525,0.142028506191667,0.239684630858333,0.209154737525,0.0493966208583333,0.0461273341916667,0.081333073525,0.304128248191667,0.206092403525,0.221121730858333,0.0734205561916667,0.119928692191667,0.034908345525,0.108705542191667,0.258570157525,0.404110692191667,0.354146906858333,0.290247053525,0.182850984191667,0.182183348525,0.206136966525,0.117549155858333,2188,"DG_s11",51.562,52.172,53.25,53.25,10,10,16,4,1.078,"Right",16,4,12,0,12,0,-12,12,"10-10",-6,6,16,10,4,10
"181",21,"LIN1-LIN2",0.0197448846,0.0612002934666667,0.0342142356,0.0708875902666667,0.0882927204666667,0.054327895,0.0867687436666667,0.122888566333333,0.167461241333333,0.107356300666667,-0.0324398624666667,0.0237501898666667,0.0997720108,0.184727327933333,0.2775473226,0.218532099666667,0.228425160333333,0.0709901523333333,0.131911965666667,0.0855935077333333,0.1835523944,0.123275333733333,0.153419703666667,2189,"DG_s11",54.25,54.859,55.578,55.578,10,10,13,1,0.719,"Left",13,1,12,0,12,0,-12,12,"10-10",-3,9,10,13,10,1
"182",21,"LIN4-LIN5",0.308942393331667,0.217641189998333,0.210024929331667,0.082029878665,0.213296252665,0.091853428665,0.029300764665,-0.044657339335,0.00810613866500001,0.0691062453316667,0.140804978665,0.0737763333316667,0.014159982665,-0.099392253335,-0.0653741406683333,0.00686292199833333,0.178874131331667,0.200702483998333,0.212879845331667,0.130241072665,0.189116005331667,0.294589843331667,0.299034193998333,2189,"DG_s11",54.25,54.859,55.578,55.578,10,10,13,1,0.719,"Left",13,1,12,0,12,0,-12,12,"10-10",-3,9,10,13,10,1
"183",21,"RIN1-RIN2",-0.2265014095,-0.269998865433333,-0.167251765166667,-0.0863668258333333,-0.127599123233333,-0.140381438833333,-0.205309556833333,-0.1411106657,-0.185669908366667,-0.1028107937,-0.124442728833333,-0.0581419021666667,-0.0495725848333333,-0.00603165634,-0.102453179673333,-0.199467213006667,-0.2515438135,-0.235388926833333,-0.1233810735,-0.00986153749999999,-0.0280735608333333,-0.0964599648333333,-0.124600298166667,2189,"DG_s11",54.25,54.859,55.578,55.578,10,10,13,1,0.719,"Left",13,1,12,0,12,0,-12,12,"10-10",-3,9,10,13,10,1
"184",21,"RIN2-RIN3",-0.0643039386666667,0.103487929333333,0.186081925333333,0.0841818186666667,-0.002316498,0.00846786866666666,-0.0768628266666667,-0.0432219966666667,-0.0455902355333333,0.0586950486666667,0.099376042,0.1619844382,0.1615365594,0.0118862472,-0.0608325668,-0.1923674042,-0.121077148,-0.053778098,0.0599524746666667,-0.0921978893333333,-0.223480272666667,-0.30976243,-0.123233518666667,2189,"DG_s11",54.25,54.859,55.578,55.578,10,10,13,1,0.719,"Left",13,1,12,0,12,0,-12,12,"10-10",-3,9,10,13,10,1
"185",21,"RIN3-RIN4",0.0135280751666667,0.133344639833333,0.0775401198333333,-0.0194274981666667,-0.0778918963666667,-0.1176510097,-0.188206247166667,-0.127440147633333,-0.101274340966667,-0.0763074901666667,0.00835479716666666,0.0976084105,0.0713518091666667,-0.00967443083333333,-0.108611764166667,-0.0502075882333333,-0.1347069629,-0.0626906189,-0.1025302955,-0.1559472135,-0.180248970833333,-0.178218694166667,-0.0947693015,2189,"DG_s11",54.25,54.859,55.578,55.578,10,10,13,1,0.719,"Left",13,1,12,0,12,0,-12,12,"10-10",-3,9,10,13,10,1
"186",21,"RIN9-RIN10",-0.112302567733333,-0.121591247066667,-0.147913848066667,-0.2606106634,-0.2598939994,-0.1675431804,-0.1043697304,-0.0845747344,-0.116065771733333,-0.160523793066667,-0.243213991733333,-0.246444748266667,-0.319594614933333,-0.2790711116,-0.217972949066667,-0.123214651733333,-0.0639752110666667,-0.1395454744,-0.146024185066667,-0.137437763066667,-0.164455459733333,-0.177665345066667,-0.267148259066667,2189,"DG_s11",54.25,54.859,55.578,55.578,10,10,13,1,0.719,"Left",13,1,12,0,12,0,-12,12,"10-10",-3,9,10,13,10,1
"187",21,"LIN3-LIN4",0.154237753166667,0.0395679531666667,0.0420710498333333,-0.00904872683333333,0.105210003833333,0.141716767833333,0.1663503465,0.132504956433333,0.0675107011,0.0541286556333333,-0.0406904049666667,0.0272820463666667,-0.0295990021666667,0.166992403433333,0.204059226766667,0.206892519433333,0.0893888778333333,0.0697999158333333,0.146400195166667,0.176035497833333,0.177734986366667,0.0445439523666667,0.00249657903333333,2189,"DG_s11",54.25,54.859,55.578,55.578,10,10,13,1,0.719,"Left",13,1,12,0,12,0,-12,12,"10-10",-3,9,10,13,10,1
"188",21,"LIN9-LIN10",0.206585851333333,0.398487788,0.244495623333333,0.234488808,0.129097061333333,0.0889294793333333,0.0629705166666667,0.00583389266666667,0.163761106,0.158336665333333,0.125085541333333,-0.0774596926666667,-0.165891762,-0.109954607333333,-0.0399724133333333,0.17314020428,0.258714850946667,0.264316057613333,0.275104401333333,0.203476764,0.126048914666667,-0.0402070651733333,-0.06382522784,2189,"DG_s11",54.25,54.859,55.578,55.578,10,10,13,1,0.719,"Left",13,1,12,0,12,0,-12,12,"10-10",-3,9,10,13,10,1
"189",21,"LIN2-LIN3",0.0583833253333333,0.104253223333333,0.0933433566666667,0.0171892886666667,0.188472174666667,0.268259110666667,0.245393418,0.1098310684,0.0125089477333333,0.1108116684,0.084745532,0.0449083566666667,0.0535655853333333,0.206341763333333,0.29911141,0.224134719333333,0.103532237333333,0.073303554,0.134081273333333,0.169075810526667,0.31033586786,0.264819461193333,0.115623880666667,2189,"DG_s11",54.25,54.859,55.578,55.578,10,10,13,1,0.719,"Left",13,1,12,0,12,0,-12,12,"10-10",-3,9,10,13,10,1
"190",22,"LIN3-LIN4",0.1530278766,0.261234749266667,0.177163974333333,0.234281043733333,0.2436667444,0.25366563,0.224139617333333,0.265207918,0.221918540666667,0.214442536,0.191702395333333,0.218017532666667,0.244956001333333,0.182205300666667,0.234266033333333,0.283219984666667,0.326216981333333,0.327591204666667,0.356164055333333,0.484874359333333,0.443078329333333,0.329465113333333,0.126662906,2190,"DG_s11",56.578,57.187,58.25,58.25,10,10,11,7,1.063,"Right",11,7,4,0,4,0,-4,4,"10-10",-1,3,11,10,7,10
