"","trial","electrodes","pre_13","pre_12","pre_11","pre_10","pre_9","pre_8","pre_7","pre_6","pre_5","pre_4","pre_3","pre_2","pre_1","post_1","post_2","post_3","post_4","post_5","post_6","post_7","post_8","post_9","post_10","post_11","post_12","post_13","post_14","post_15","post_16","post_17","post_18","post_19","post_20","post_21","post_22","post_23","post_24","post_25","post_26","post_27","post_28","post_29","X","SID","newround_time","choice_time","buttonpress_time","reveal_time","self_payoff","other_payoff","self_foregone","other_foregone","RT","side_chosen","self_var_payoff","other_var_payoff","ineq_var_abs","ineq_choice_abs","ineq_foregone_abs","ineq_disadvent","ineq_advent","ineq_disadvent_choice","ineq_advent_choice","ineq_choice","chose_equality","self_diff","other_diff","L_self","R_self","L_other","R_other"
"1",1,"LIN1-LIN2",0.0280045428333333,0.0398709695,0.1018550535,0.0448255941666667,0.0439807975,-0.1275052145,-0.1455705565,-0.0953430171666667,-0.0723088138333333,-0.0858645985,-0.2046028245,-0.163986801833333,-0.1361933505,-0.0819238338333333,-0.0790651278333333,-0.0168905211666667,-0.0358300798333333,0.1201369575,0.119092958833333,0.290750150833333,0.188369076833333,0.0143441688333333,-0.1591149465,-0.180657977166667,-0.0866770818333333,-0.1298804385,-0.190057089833333,-0.225300763833333,-0.236233673833333,-0.2455764845,-0.1867108325,-0.138254907833333,-0.129137639166667,-0.148962638433333,-0.164148602433333,-0.101971784433333,-0.142888945833333,-0.1105374185,-0.0628392845,-0.0154415685,0.0822923521666667,-0.00342587716666665,2169,"DG_s11",-0.61,0,2.015,2.031,10,10,10,18,2.015,"Left",10,18,8,0,8,8,0,0,0,-8,"10-10",0,-8,10,10,10,18
"2",1,"LIN2-LIN3",0.0362753979833333,-0.09727675535,0.0316071819833333,0.0425789159833333,0.03537294265,-0.0603445090166667,0.0216753469833333,0.198624852983333,0.26647572265,0.09912128465,0.00124724198333334,0.03476459065,0.0965449153166667,0.0855668559833334,-0.0307012900166667,-0.01023309615,0.000786367183333338,-0.0638619194833333,0.00967865665,0.0124356553166667,0.14434017465,0.0378664619833333,0.0928574119833333,-0.0503070526833333,0.0213500233166667,-0.0805994526833333,-0.0337099026833333,-0.0964258020166667,-0.02923143735,0.0269112807833333,0.0457202401166667,0.0522500887833333,0.01640497865,0.03958097265,-0.0306551800166667,-0.00120998668333333,0.0532153059833333,0.131980857983333,0.126656449983333,-0.0570239166833333,-0.110852525616667,-0.137783302283333,2169,"DG_s11",-0.61,0,2.015,2.031,10,10,10,18,2.015,"Left",10,18,8,0,8,8,0,0,0,-8,"10-10",0,-8,10,10,10,18
"3",1,"RIN3-RIN4",0.058922768,-0.06233251,-0.129674460666667,-0.144801460666667,-0.157942592666667,-0.112129615333333,-0.037374572,0.02876576,0.228425806,0.286956028666667,0.268762058666667,0.114705767333333,0.0186211966666667,0.121768356666667,0.133521171333333,0.167063331333333,0.0152144113333333,-0.0370062953333333,0.103325122666667,0.132389447333333,0.26189445,0.0675275648666667,0.0949542882,-0.0662143964666667,-0.116837978,-0.0852609246666667,-0.166751462666667,0.00368465533333334,-0.104645914666667,0.0538987846666667,-0.0397862977333333,-0.0344691397333333,-0.0951294657333333,-0.071362634,-0.0861875353333333,-0.0913268966666667,-0.103246983333333,-0.0396681833333333,0.0750805913333333,0.111247724,0.0461331973333333,-0.00250319266666667,2169,"DG_s11",-0.61,0,2.015,2.031,10,10,10,18,2.015,"Left",10,18,8,0,8,8,0,0,0,-8,"10-10",0,-8,10,10,10,18
"4",1,"RIN9-RIN10",-0.028449421,0.588531121666667,0.638253860333333,0.730997237,0.148804585666667,0.125043616333333,0.131256757666667,0.1204274864,0.223519127733333,0.158387133066667,0.139225882333333,-0.012471167,-0.0167119177333333,0.0557414689333333,0.126008078266667,0.1578500356,0.0788166522666667,0.1061174856,0.0442748256666667,0.0725649201333333,-0.0188680845333333,0.1251407548,0.213994403666667,0.158325800333333,0.100057824333333,0.074656851,0.228804390333333,0.273419905666667,0.138373481666667,0.0354996943333333,0.0116829023333333,0.139924347,0.264887129666667,0.288189203,0.346176782333333,0.201273988066667,0.106101868733333,0.0214756454,0.0435380363333333,0.032673989,0.076153659,0.0430872026666667,2169,"DG_s11",-0.61,0,2.015,2.031,10,10,10,18,2.015,"Left",10,18,8,0,8,8,0,0,0,-8,"10-10",0,-8,10,10,10,18
"5",1,"RIN2-RIN3",-0.109462472233333,-0.186606604233333,-0.188109365566667,-0.256979946166667,-0.217582046833333,-0.2402718495,-0.148393030833333,-0.2095327335,-0.0773005788333333,-0.162765037433333,-0.1296271021,-0.301380831433333,-0.269675712833333,-0.176175618166667,-0.1211953235,0.000397184500000008,-0.05915580412,-0.01923383612,0.01629880388,0.0756023460333333,0.0651476220333333,-0.130702643966667,-0.188742245033333,-0.202312733033333,-0.191952573033333,-0.116852714166667,-0.151569532033333,-0.127320401366667,-0.144547621366667,-0.0574990081666667,0.0604603138333333,-0.0255680121866667,-0.116285932186667,-0.144330468186667,-0.115422330033333,-0.113610817366667,-0.1747219811,-0.0925255765666667,0.0848465641,0.196046517833333,0.180707193166667,0.0899204492333333,2169,"DG_s11",-0.61,0,2.015,2.031,10,10,10,18,2.015,"Left",10,18,8,0,8,8,0,0,0,-8,"10-10",0,-8,10,10,10,18
"6",1,"LIN9-LIN10",0.344215881166667,0.9203077085,0.9758129105,0.908999823833333,0.348178047166667,0.356131033833333,0.3053036585,0.283516105166667,0.267837411833333,0.289664701833333,0.2410380204,0.276662207066667,0.294001309066667,0.521710667833333,0.399359109833333,0.328637015833333,0.00994058183333334,-0.0197531293666667,-0.00324958536666666,0.162498246633333,0.139236189166667,0.170274679566667,0.1009759009,0.2240846609,0.228255352633333,0.2127745653,0.109001175966667,0.0380980671666667,-0.0541113855,0.0287512578333333,0.1205116719,0.0906066052333333,0.0928007372333333,-0.0389728968333333,0.192142869166667,0.250740289833333,0.346706315166667,0.4242560825,0.346806609166667,0.496698759833333,0.403616801166667,0.441973701166667,2169,"DG_s11",-0.61,0,2.015,2.031,10,10,10,18,2.015,"Left",10,18,8,0,8,8,0,0,0,-8,"10-10",0,-8,10,10,10,18
"7",1,"RIN1-RIN2",-0.2665924565,-0.253800181833333,-0.2959106105,-0.255515137166667,-0.2196744025,-0.2720425085,-0.1629329285,-0.214240287833333,-0.125617507833333,-0.185295439833333,-0.1547890345,-0.211474423833333,-0.261728699166667,-0.291426157833333,-0.250396873833333,-0.227814557166667,-0.145020399166667,-0.140154477833333,-0.1382896125,-0.0975567485,-0.0337936818333334,-0.0859572723066667,-0.26725123864,-0.35277328464,-0.380965508833333,-0.262822193166667,-0.305126779166667,-0.193699745833333,-0.340294911833333,-0.319768345833333,-0.299103719166667,-0.2070075425,-0.143368561166667,-0.188699743166667,-0.251182810433333,-0.262498945766667,-0.2697060871,-0.2342064445,-0.1543605445,-0.0524487145,-0.0920854218333333,-0.2355637615,2169,"DG_s11",-0.61,0,2.015,2.031,10,10,10,18,2.015,"Left",10,18,8,0,8,8,0,0,0,-8,"10-10",0,-8,10,10,10,18
"8",1,"LIN4-LIN5",0.031314394,0.0494455293333333,0.0451985646666667,-0.0189928158,-0.0746041912666667,-0.0604880519333333,-0.0489872837333333,0.1598438184,0.385678325066667,0.378371036333333,0.337371236333333,0.203330407,0.169339201733333,0.14036025754,0.148527331406667,0.23173418034,0.122159988533333,0.146360072333333,0.111426377,0.137946399666667,0.179530514,0.266306539333333,0.236849512666667,0.0519847666666667,-0.05261166,0.156430586666667,0.307009283333333,0.3378893228,0.0953602914666667,0.120845677466667,0.189089799333333,0.297783592,0.242429991666667,0.198913203666667,0.217607124333333,0.250479356666667,0.238742706,0.133372698666667,0.16826908,0.173110570666667,0.213766261333333,0.205857145133333,2169,"DG_s11",-0.61,0,2.015,2.031,10,10,10,18,2.015,"Left",10,18,8,0,8,8,0,0,0,-8,"10-10",0,-8,10,10,10,18
"9",1,"LIN3-LIN4",0.0876246414666667,0.0747119114666667,0.112064083466667,0.133857016466667,0.113843703133333,0.109643133133333,0.1280221508,0.3019346008,0.315427252133333,0.291488872666667,0.208928974666667,0.202015996666667,0.2072432148,0.232109731466667,0.1711220008,0.169503761466667,0.190245584133333,0.184605000133333,0.2284258728,0.179799716133333,0.281391522133333,0.382328216133333,0.477342308733333,0.405797875066667,0.328613431733333,0.272059121133333,0.1409937348,0.0141463114666667,-0.0505567106666667,0.138693956,0.18382018,0.177705246133333,0.1496177648,0.184867144133333,0.154968845466667,0.139959340133333,0.240537291466667,0.342737495466667,0.317023710133333,0.2489506888,0.192653927466667,0.1620651428,2169,"DG_s11",-0.61,0,2.015,2.031,10,10,10,18,2.015,"Left",10,18,8,0,8,8,0,0,0,-8,"10-10",0,-8,10,10,10,18
"10",2,"RIN3-RIN4",-0.0929997111666667,-0.0652303998333334,0.00219668616666663,-0.1024159805,-0.0405657051666667,-0.175472171166667,-0.212482477833333,-0.340777003166667,-0.264975777166667,-0.306953639833333,-0.2956557365,-0.380114491833333,-0.343976141166667,-0.281171179566667,-0.2415357569,-0.150906500233333,-0.0424787418333334,0.0351157171666666,-0.00150330750000005,-0.0703878974333334,-0.203388937566667,-0.2352332579,-0.266387971966667,-0.217321830833333,-0.244857259966667,-0.2430242193,-0.292197933966667,-0.283218717833333,-0.331889629166667,-0.355844559166667,-0.330280609166667,-0.266053861166667,-0.226103120833333,-0.2888377983,-0.387626773633333,-0.272455188633333,-0.177201921166667,-0.170199159166667,-0.3484642185,-0.4600036085,-0.385919722366667,-0.244057630366667,2170,"DG_s11",3.031,3.64,4.797,4.812,12,12,10,10,1.157,"Left",12,12,0,0,0,0,0,0,0,0,"Equal",2,2,12,10,12,10
"11",2,"LIN9-LIN10",-0.00919823106666667,0.105481540333333,0.0475555216666667,-0.037919365,-0.0790766323333333,-0.236322713666667,-0.224787217,-0.302854201,-0.206765397666667,-0.036011681,0.087107469,0.276794052333333,0.195138032333333,0.0233060703333333,-0.235852269666667,-0.0888436696666667,-0.0302389903333333,0.0196345383333333,-0.156492861666667,-0.131774997666667,-0.142395150266667,-0.1852831376,-0.0576511776,-0.0562349196666667,0.0627337676666667,-0.103506886333333,0.0756534196666667,0.0419741463333334,-0.0174330289333333,-0.110546084933333,-0.188326418266667,0.179920644333333,0.195771441,0.159795677,-0.0248315896666667,-0.0544371303333334,-0.000229978266666653,-0.0386177782666667,-0.109964940933333,-0.224359961,-0.348821874333333,-0.357712615,2170,"DG_s11",3.031,3.64,4.797,4.812,12,12,10,10,1.157,"Left",12,12,0,0,0,0,0,0,0,0,"Equal",2,2,12,10,12,10
"12",2,"LIN2-LIN3",0.0158268281666667,0.0645405821666667,0.0918095501666667,0.157983858833333,0.0194136635,-0.0280443831666667,-0.116262265833333,-0.0863568939,-0.0773952665666667,-0.1322051439,-0.0425432545,-0.0444379845,0.217539728833333,0.208283782833333,0.274069432166667,0.0937809855,-0.0022741105,-0.0231961211666667,0.0695714048333333,0.0303274675,0.0357937161666667,-0.0395900599666667,0.108809562033333,0.0987031647,0.197804726833333,0.170709430166667,0.139375930833333,0.0426853126333333,0.0087154053,0.185955426633333,0.0457325275,0.0445632203666667,0.0126441623666667,0.132888566033333,0.194123635166667,0.155551730433333,0.189727737433333,0.1084417721,0.00276276283333333,-0.0567728865,-0.0247946611666667,0.141731996166667,2170,"DG_s11",3.031,3.64,4.797,4.812,12,12,10,10,1.157,"Left",12,12,0,0,0,0,0,0,0,0,"Equal",2,2,12,10,12,10
"13",2,"RIN9-RIN10",-0.217304725693333,-0.33780413036,-0.286017681026667,-0.29312630236,-0.09903324436,-0.02242355636,-0.0254183916933333,-0.146411195026667,-0.209464921026667,-0.22271505236,-0.0909144296933333,-0.16664673236,-0.229050301626667,-0.287664606826667,-0.14629249616,0.143509999773333,0.109587854306667,0.0846195789733334,-0.120526949026667,-0.0548411490266666,-0.134453013693333,-0.125771384093333,-0.135507249426667,-0.114440490093333,-0.212399065026667,-0.24444431636,-0.19515834036,-0.17829290036,-0.208548868026667,-0.216822796026667,-0.156666556026667,-0.174178045693333,-0.234869363693333,-0.37110733036,-0.337937135026667,-0.278726479693333,-0.167877539226667,-0.207091601893333,-0.282604001226667,-0.101991741693333,-0.106756933693333,-0.12890314636,2170,"DG_s11",3.031,3.64,4.797,4.812,12,12,10,10,1.157,"Left",12,12,0,0,0,0,0,0,0,0,"Equal",2,2,12,10,12,10
"14",2,"LIN1-LIN2",-0.1122690365,-0.1519712555,-0.207623032833333,-0.0754811201666667,-0.142086676166667,-0.1483622975,-0.165717176633333,-0.0765743627,-0.0193631479666667,-0.0657973081666667,-0.0592082743,-0.106089189033333,0.00610030696666666,0.000573724499999997,0.0209238311666667,-0.120004744833333,-0.1700764315,-0.0711488928333333,0.0449539471666667,0.207534593833333,0.0859987131666667,0.0260926285,-0.103413224833333,-0.0307120928333333,-0.00295820683333333,0.0247025925,0.0372503731666667,0.0340408471666667,0.0786935545,0.0852712691666667,0.196078909166667,0.1665068625,0.1002910565,-0.0635641155,0.00532011383333333,0.0585612265,0.0768568689,-0.0222013448333333,-0.147062724833333,-0.1623385219,-0.1801003235,-0.137172530166667,2170,"DG_s11",3.031,3.64,4.797,4.812,12,12,10,10,1.157,"Left",12,12,0,0,0,0,0,0,0,0,"Equal",2,2,12,10,12,10
"15",2,"RIN1-RIN2",-0.282849387,-0.342567994333333,-0.130735231666667,-0.0324920656666667,0.022881519,-0.117124245,-0.121505933666667,-0.0979025716666667,-0.0969443303333333,0.147353859,0.1781594224,0.101861716866667,-0.162718792466667,-0.2030704092,-0.147073594333333,-0.136986176333333,-0.248094751,-0.390434344333333,-0.416799942333333,-0.343267804333333,-0.271904356446667,-0.23995940378,-0.206851560446667,-0.184443476333333,-0.261900456333333,-0.283301005666667,-0.191172990333333,-0.147730872333333,-0.159997107,-0.244541695,-0.140610163,-0.104433619,-0.0231042916666667,-0.177707745,-0.339045578333333,-0.320924278333333,-0.143097913,0.050402937,0.199486083666667,0.215941427666667,0.117351095666667,-0.0556269423333333,2170,"DG_s11",3.031,3.64,4.797,4.812,12,12,10,10,1.157,"Left",12,12,0,0,0,0,0,0,0,0,"Equal",2,2,12,10,12,10
"16",2,"RIN2-RIN3",-0.224125761716667,-0.225850508383333,-0.44728742305,-0.53667702205,-0.463407235383333,-0.467435965383333,-0.56294091305,-0.615440339716667,-0.61531159505,-0.422091152383333,-0.35527240105,-0.45362722105,-0.553862810383333,-0.48873915905,-0.304993825716667,-0.19357495905,-0.245393965716667,-0.205839492383333,-0.171724012383333,-0.06025253505,-0.150758680383333,-0.38350030705,-0.514278462383333,-0.452328882383333,-0.32052852905,-0.286803020383333,-0.256420366383333,-0.295164086383333,-0.358649099716667,-0.458903214383333,-0.294852822383333,-0.12129480905,-0.0297611097166667,-0.278168605716667,-0.50143485905,-0.61218379305,-0.45793934905,-0.369761565516667,-0.284957201516667,-0.318071704183333,-0.35161804105,-0.479695059716667,2170,"DG_s11",3.031,3.64,4.797,4.812,12,12,10,10,1.157,"Left",12,12,0,0,0,0,0,0,0,0,"Equal",2,2,12,10,12,10
"17",2,"LIN3-LIN4",0.0456232263333333,0.308155927,0.382203660333333,0.229640714333333,-0.0617373623333333,-0.125313641533333,-0.0820816895333333,0.0119275338,-0.000992443666666662,-0.000348943666666664,0.0366474488666667,0.0786835908666667,0.306791035533333,0.339171696333333,0.403598736333333,0.292057771666667,0.136450241,0.121245790333333,0.119509901666667,0.0922206816666667,-0.0109392916666667,-0.137211009666667,-0.123453245666667,-0.206324240333333,-0.192258561666667,-0.118751894333333,0.0526995608,0.149071660133333,0.0794732068,0.0468137003333333,-0.021908009,0.0588779716666667,0.155965477,0.153899009666667,0.173893006333333,0.136619559,0.146432973,0.148502441666667,0.110521461666667,0.105664086333333,0.134540186333333,0.129757615666667,2170,"DG_s11",3.031,3.64,4.797,4.812,12,12,10,10,1.157,"Left",12,12,0,0,0,0,0,0,0,0,"Equal",2,2,12,10,12,10
"18",2,"LIN4-LIN5",-0.126779466626667,-0.100121347226667,0.0144510110666667,0.115749917733333,0.0268319043333333,-0.202734344333333,-0.176138751,-0.050630829,0.106417444333333,0.0705850203333333,0.071575205,-0.0227446483333333,-0.196228895,-0.2095920792,-0.233847090533333,-0.202782036533333,-0.153551110333333,-0.0335971623333333,-0.00563846733333334,-0.074569634,-0.0522600886666667,-0.00901404433333333,0.100099798333333,-0.0249019816666667,-0.065709591,-0.217885076733333,-0.219602778733333,-0.2222017748,-0.292604333733333,-0.188500793733333,-0.219160266333333,-0.170930638333333,-0.237795499,-0.0855919503333333,0.0575588836666667,0.210679466333333,0.100911538333333,0.0101566103333333,-0.098773283,-0.0385591443333333,0.0648064696666667,0.147159576333333,2170,"DG_s11",3.031,3.64,4.797,4.812,12,12,10,10,1.157,"Left",12,12,0,0,0,0,0,0,0,0,"Equal",2,2,12,10,12,10
"19",3,"LIN2-LIN3",0.340587429666667,0.198681699666667,0.163229939,0.143007979,0.149746914333333,0.0351225216666667,-0.00418613366666667,-0.108106488333333,-0.0913961483333333,0.00245033966666667,0.0444635536666667,0.0698699423333333,-0.0170012956666667,0.048892413,0.164083189,0.285097314333333,0.194410147666667,0.140832558333333,0.147779419666667,0.219402500333333,0.168938682333333,0.123853698333333,0.0561187576666667,0.088501669,0.105203027666667,0.286405827666667,0.249054726333333,0.170196119666667,0.0558071876666667,-0.00848669566666667,0.130625461133333,0.162895203133333,0.2347994422,0.0839109187333333,0.0365695407333333,0.064844533,0.133520594466667,0.0930682558,-0.0109131265333333,-0.0228536173333333,-0.04352264,-0.104816331,2171,"DG_s11",5.812,6.422,7.89,7.89,10,10,8,8,1.468,"Left",8,8,0,0,0,0,0,0,0,0,"10-10",2,2,10,8,10,8
"20",3,"LIN1-LIN2",0.345543629588333,0.318225709588333,0.296531479521667,0.217285672521667,0.118338147855,0.057201865255,0.164530514921667,0.249308308921667,0.354197181588333,0.334855256921667,0.297251060921667,0.220825578255,0.145413850255,0.252728496921667,0.331641067988333,0.300242853321667,0.141380403321667,0.047656696255,-0.00633410107833333,-0.00353253707833334,-0.00344331461166666,0.0904721767216667,0.078825556055,0.184432925588333,0.160249186921667,0.277930066921667,0.212272906255,0.236736960255,0.180799456921667,0.178456189588333,0.268816296255,0.246013565588333,0.204779972255,0.129738232255,0.145504344255,0.106308269588333,0.138842722921667,0.328179811588333,0.271755266588333,0.242529053255,0.0388593253216667,0.0782569329883333,2171,"DG_s11",5.812,6.422,7.89,7.89,10,10,8,8,1.468,"Left",8,8,0,0,0,0,0,0,0,0,"10-10",2,2,10,8,10,8
"21",3,"RIN2-RIN3",0.365083373633333,0.2397071443,0.241691282966667,0.162193969233333,0.0482111705666667,0.0848742439,0.168281871233333,0.360933992566667,0.4186158379,0.372756197753333,0.354486937753333,0.250982809086667,0.2334715859,0.2274365259,0.3880880359,0.452775266566667,0.402415146566667,0.262885746566667,0.223743287233333,0.212380211233333,0.2532640699,0.323923661233333,0.325634410566667,0.238201916633333,0.148054869966667,0.0581469486333333,0.0718273772333333,0.120618903166667,0.145338789233333,0.1425702879,0.172986434633333,0.282244624353333,0.276013091686667,0.28531229302,0.217738188566667,0.300209167233333,0.407510067233333,0.493183657233333,0.450610219233333,0.4302559939,0.340884094566667,0.2675852319,2171,"DG_s11",5.812,6.422,7.89,7.89,10,10,8,8,1.468,"Left",8,8,0,0,0,0,0,0,0,0,"10-10",2,2,10,8,10,8
"22",3,"RIN9-RIN10",0.265460144316667,0.276111236316667,0.248837456983333,0.239575996316667,0.17078502665,0.0793209433166667,0.06879275065,0.06827468565,0.0381936523166667,0.0286571471166667,0.137015531116667,0.13065022045,0.160519840316667,0.0205513269833333,0.0422581409833333,0.0684029289833333,0.10387434365,0.237547342983333,0.281414819316667,0.421949037983333,0.38856132065,0.371120688316667,0.288835276983333,0.25631989765,0.254746880983333,0.180023796316667,0.150323608316667,0.0348895649833333,0.126766634316667,0.195749586983333,0.296345846983333,0.13293725365,-0.0674708210166667,-0.10509867435,-0.04417799435,0.20293828765,0.240565211383333,0.258944075383333,0.09809341205,0.0647080749833333,0.05446939565,0.09806504365,2171,"DG_s11",5.812,6.422,7.89,7.89,10,10,8,8,1.468,"Left",8,8,0,0,0,0,0,0,0,0,"10-10",2,2,10,8,10,8
"23",3,"LIN4-LIN5",-0.169012759666667,-0.209268621666667,-0.247603656333333,-0.411594267666667,-0.450787550333333,-0.316931455866667,-0.3182200512,-0.378067325866667,-0.401850989,-0.270726852333333,-0.190155140333333,-0.123059895,-0.224394025,-0.213627832333333,-0.0630269063333334,0.0494694399266666,-0.105199436073333,-0.404804942073333,-0.427106256933333,-0.2492522656,-0.238622764466667,-0.222899515866667,-0.312026046533333,-0.241562953,-0.327289234066667,-0.362653403666667,-0.378888120333333,-0.3081136406,-0.29792563208,-0.238206367413333,-0.22260387008,-0.145041649666667,-0.286414070333333,-0.282001306333333,-0.276867966333333,-0.209299209,-0.255358803,-0.151926265,-0.153478318333333,-0.029705111,-0.133106022333333,-0.101786758333333,2171,"DG_s11",5.812,6.422,7.89,7.89,10,10,8,8,1.468,"Left",8,8,0,0,0,0,0,0,0,0,"10-10",2,2,10,8,10,8
"24",3,"RIN1-RIN2",0.1463728548,0.1179255588,0.0192264714666667,-0.0693482952,-0.1659690572,0.0539634941333333,0.235959967466667,0.2508454188,0.101788231466667,-0.0443665665333333,-0.0200000972,-0.0122239705333333,0.1265965808,0.512618798133333,0.542173397466667,0.479791384133333,0.1164681648,0.235166486133333,0.239664583466667,0.2571724228,0.242946668533333,0.218336604533333,0.2629805912,0.1153453508,0.0735224328,-0.0571186272,-0.0872726978666667,-0.0642748618666667,-0.0948925418666667,-0.128530836533333,-0.2158553912,-0.190364577866667,-0.185960937866667,-0.0401023145333333,0.00439700146666667,0.0991664374666667,0.0759648441333333,0.152991314133333,0.0982817621333333,0.0765523754666667,0.0034085968,0.0188402934666667,2171,"DG_s11",5.812,6.422,7.89,7.89,10,10,8,8,1.468,"Left",8,8,0,0,0,0,0,0,0,0,"10-10",2,2,10,8,10,8
"25",3,"RIN3-RIN4",0.134023131,0.051416447,-0.0402098463333333,-0.0568914583333333,-0.0219979136666667,0.00390270966666667,0.142686545666667,0.146422617,0.145736864333333,-0.0379871536666667,-0.0284747876666667,-0.0279123536666667,0.00149477146666667,-0.0513373045333333,-0.0120331052,0.036797931,0.0776781963333333,0.010905887,0.124304286333333,0.0988237196666667,0.180926042333333,0.0728966124,0.197439679066667,0.143941047733333,0.132560121666667,0.0112663463333333,0.0747611976666667,0.0539653356666667,0.0343251576666667,-0.027170231,-0.0654547203333333,-0.0520669136666667,-0.076537921,-0.0637161623333333,-0.125874477666667,-0.137484982333333,-0.075951847,-0.021259639,0.089835445,0.145436784333333,0.124769495666667,0.0509837416666667,2171,"DG_s11",5.812,6.422,7.89,7.89,10,10,8,8,1.468,"Left",8,8,0,0,0,0,0,0,0,0,"10-10",2,2,10,8,10,8
"26",3,"LIN3-LIN4",0.222775198716667,0.188765379383333,0.171128072716667,0.234309159383333,0.190087294183333,0.113715089516667,-0.00225339848333333,-0.0571630326166667,-0.0187448166166667,-0.0468039486166667,0.0465108763166667,0.0683809123166667,0.11778496965,0.105312296716667,0.152875823516667,0.303158566183333,0.285695526183333,0.198453043383333,0.0703446493833333,0.113922508716667,0.110237306716667,0.10240834605,0.09842746005,0.192485590716667,0.254486905383333,0.42259439205,0.40347333405,0.354118097383333,0.0807090247166667,0.0980053693833333,0.15198591405,0.234804471383333,0.190634075383333,0.14552376805,0.106155647383333,0.01728763605,-0.01026817055,-0.0430163478833333,-0.00756450655,-0.0295769612833333,0.0840028987166667,0.0397640247166667,2171,"DG_s11",5.812,6.422,7.89,7.89,10,10,8,8,1.468,"Left",8,8,0,0,0,0,0,0,0,0,"10-10",2,2,10,8,10,8
"27",3,"LIN9-LIN10",0.259922607166667,0.356520881166667,0.229606037166667,0.0415281049,-0.0702439671,-0.132653351966667,-0.0672516883666667,-0.0821853563666667,-0.133662944833333,-0.119123516166667,0.1152305505,0.245795967833333,0.2311846325,0.293144359166667,0.231984559833333,0.387022015166667,0.319491495166667,0.3589825765,0.127337729833333,0.132803323166667,0.0661049911666667,0.1571564645,0.0747976645,0.125059665833333,0.104606923166667,0.00560980716666666,-0.1419274375,-0.1340987915,0.0842139911666667,0.224177259833333,0.1135289165,-0.1199222795,-0.1712005215,-0.0453403548333333,0.0102491398333333,0.0487052331666667,-0.0374395761666667,-0.0771334008333333,-0.0706906008333333,0.0578791018333333,0.0185625105,-0.0430004968333333,2171,"DG_s11",5.812,6.422,7.89,7.89,10,10,8,8,1.468,"Left",8,8,0,0,0,0,0,0,0,0,"10-10",2,2,10,8,10,8
"28",4,"LIN1-LIN2",-0.125276174833333,-0.0892493975,-0.0723919795,-0.0255815908333333,-0.00758998456666667,-0.00880926456666667,-0.00237901456666667,-0.0842704408333333,-0.1589722635,-0.100521530833333,0.0647567471666667,0.184357889833333,0.1218188225,-0.0106554358733333,-0.0950983592066667,-0.0720838338733333,-0.0411508728333333,-0.0141559577,-0.00251230703333333,0.0299963369666667,-0.0940566775,-0.195984244833333,-0.177884028166667,-0.0345181903866667,0.0161175076133333,-0.04983775172,-0.2216212935,-0.278697624166667,-0.301275122166667,-0.2404705555,-0.106865242166667,-0.00704747683333333,0.0437616791666667,-0.0488291511666667,-0.164779255833333,-0.198462127166667,-0.1564592035,-0.0176418701666667,0.0157694058333333,0.00464781743333334,-0.0305702609,-0.0611410302333333,2172,"DG_s11",8.89,9.5,10.922,10.922,10,10,28,4,1.422,"Right",28,4,24,0,24,0,-24,0,0,24,"10-10",-18,6,28,10,4,10
"29",4,"LIN2-LIN3",0.311112954416667,0.25246315175,0.107976846416667,0.169320523083333,0.177496059083333,0.212351211083333,0.162906939616667,0.185043861616667,0.10135088495,0.106779895083333,0.0656635264166667,-0.0149852569166667,0.139580761083333,0.331962254416667,0.533215101083333,0.39753540775,0.296115312683333,0.22523287335,0.143167552683333,0.13657010975,0.219885847083333,0.204556141083333,0.110883085083333,0.0752593410833333,0.04231396775,0.0749446550833333,-0.10899073225,-0.0693454815833333,0.00893783774999998,0.0831739380166667,0.14798265935,0.118999724963333,0.154785522696667,0.146458538696667,0.165408011816667,0.233486894483333,0.241069457816667,0.251803353083333,0.164968537083333,0.11876557975,0.0402204390833333,0.121300228216667,2172,"DG_s11",8.89,9.5,10.922,10.922,10,10,28,4,1.422,"Right",28,4,24,0,24,0,-24,0,0,24,"10-10",-18,6,28,10,4,10
"30",4,"RIN9-RIN10",0.3839452165,0.2136061777,0.159531351033333,0.0603039637,0.111397417833333,0.110272391166667,-0.0457155015,-0.0403105768333333,-0.0447099708333333,0.0696131525,0.0559075991666667,-0.0377206601666667,-0.123932256833333,0.0844847365,0.144902809833333,0.1193182765,-0.137612950166667,-0.0664076901666667,0.1066479365,0.2554620205,0.147642943166667,0.0344506451666667,-0.121961650166667,-0.127003176766667,-0.143805341433333,-0.0353025234333333,-0.0417464201666667,0.0210557691666667,-0.0424626155,-0.0130569555,-0.0528893375,0.0442373191666667,0.114637007833333,0.1786837863,0.1904354343,0.160712512966667,0.0985230625,0.0776981758333333,0.0733032911666667,0.0698461125,0.0479837272333333,-0.00735420143333333,2172,"DG_s11",8.89,9.5,10.922,10.922,10,10,28,4,1.422,"Right",28,4,24,0,24,0,-24,0,0,24,"10-10",-18,6,28,10,4,10
"31",4,"RIN2-RIN3",0.0268957638333333,0.0780548638333333,-0.0989444288333333,-0.0523115128333333,0.0983853205,0.199543513166667,0.118996237166667,0.0311506311666667,-0.0871810195,-0.139908456166667,-0.0711588035,0.0180179885,0.0925112973,0.232006810633333,0.3310340693,0.2490359565,0.202449269833333,0.151648843166667,0.228609744233333,0.136182451566667,0.0131353122333333,0.0489052585,0.0421533889666667,0.1246875283,0.1052722863,0.0793661345,0.0700541945,-0.0208305195,0.0737638951666667,0.0149586685,0.0658188631666667,-0.0315058875,-0.0403720821666667,-0.0980184141666667,-0.0962641448333333,-0.0721141421666667,-0.0254573261666667,0.0154447785,0.0204109518333333,0.00750081583333333,-0.1270651915,-0.123228300833333,2172,"DG_s11",8.89,9.5,10.922,10.922,10,10,28,4,1.422,"Right",28,4,24,0,24,0,-24,0,0,24,"10-10",-18,6,28,10,4,10
"32",4,"RIN3-RIN4",0.1338139495,0.138324974833333,0.1743594875,0.2080354355,0.259614796166667,0.2208267155,0.1165045915,0.0121456939,-0.0578813647666667,0.0223816099,0.100604150166667,0.122222018833333,0.166633314166667,0.263989858833333,0.4925176355,0.396792374833333,0.243899894833333,0.1034949715,0.157407626166667,0.208744160166667,0.250530274166667,0.259000002833333,0.294518964166667,0.1785070875,0.211401388166667,0.149996664413333,0.0992335837466667,0.0608101411466667,0.0964220530333333,0.0987071237,0.0833741949666667,0.1289582515,0.166063750166667,0.1627285015,0.1959448015,0.289795532166667,0.293119292033333,0.1510474587,0.133873932033333,0.1496136255,0.243311734833333,0.1591318035,2172,"DG_s11",8.89,9.5,10.922,10.922,10,10,28,4,1.422,"Right",28,4,24,0,24,0,-24,0,0,24,"10-10",-18,6,28,10,4,10
"33",4,"RIN1-RIN2",0.0748765873333333,0.0343741413333333,0.005000802,0.0431340453333333,0.075658412,0.137279544666667,0.146598590666667,0.141298096666667,0.281931576666667,0.322852914666667,0.198860282,0.004416562,-0.0862183486666667,-0.0934154406666667,0.0591602973333333,0.095265604,0.200770764,0.180862552666667,0.173799259333333,0.119274546,-0.00987678066666667,-0.0927789773333333,-0.068186408,-0.0306734013333333,0.005878936,-0.0469565266666667,-0.0963347466666667,-0.092846478,0.0550965373333333,0.175528873333333,0.163592730333333,0.145819929,0.094049427,0.134389024,0.006617666,0.020394912,0.163856575333333,0.234802636666667,0.235902015333333,0.133530542666667,-0.00827907466666667,-0.096956,2172,"DG_s11",8.89,9.5,10.922,10.922,10,10,28,4,1.422,"Right",28,4,24,0,24,0,-24,0,0,24,"10-10",-18,6,28,10,4,10
"34",4,"LIN4-LIN5",0.0920905536666667,0.071716549,-0.0224896292666667,-0.0115618239333333,0.0019316674,-0.0155619343333333,-0.0620596634466667,-0.0552106281133333,-0.0212684014466667,-0.0694599276666667,-0.0984940963333333,-0.165547349666667,-0.068874571,-0.178819157666667,-0.068639151,-0.0368755543333333,0.00443747899999999,-0.0805310616666667,-0.124639261666667,-0.0173159616666667,0.123307873,0.155619533,0.144935410333333,0.0933822483333334,-0.0338580716666667,-0.0401238044,-0.159602229066667,-0.194254869066667,-0.179506133666667,-0.0775461023333333,-0.0161721543333333,0.030498371,-0.0743250023333333,-0.0387123196666667,-0.164117243,-0.177056001666667,-0.177864379,-0.151465319,-0.150292327666667,-0.268647241,-0.375772277514667,-0.389634414114667,2172,"DG_s11",8.89,9.5,10.922,10.922,10,10,28,4,1.422,"Right",28,4,24,0,24,0,-24,0,0,24,"10-10",-18,6,28,10,4,10
"35",4,"LIN9-LIN10",0.03746279465,0.0854214899833333,0.0927020753166667,0.30910529065,0.31524676265,0.390536687983333,0.28939865265,0.303280043316667,0.344703929983333,0.370827131983333,0.435600327983333,0.39080257465,0.28039401065,0.25944481065,0.284994543983333,0.351125692983333,0.25579439365,0.132885652983333,0.02352843465,0.0334698619833333,0.0537314473166667,0.0163377499833333,-0.0686363966833333,-0.03461561735,0.10945264265,0.178923095516667,0.200773779516667,0.16211120085,0.18354932265,0.262755601316667,0.49134139065,0.78194651665,0.808032345316667,0.61390740865,0.28656734665,0.211316157983333,0.319421181316667,0.277770147983333,0.19031543465,0.04976371465,0.17518082265,0.191328614383333,2172,"DG_s11",8.89,9.5,10.922,10.922,10,10,28,4,1.422,"Right",28,4,24,0,24,0,-24,0,0,24,"10-10",-18,6,28,10,4,10
"36",4,"LIN3-LIN4",0.046891128,0.0724292746666667,-0.0281251493333333,0.005975568,-0.118915646666667,-0.0372041606666667,-0.0533278206666667,0.0184417973333333,0.150928551333333,0.104300686666667,0.215980982,0.190704682,0.249324368,0.1885580386,0.0966448846,0.1299199966,0.179220450666667,0.159466646666667,0.04463126,0.053287442,0.025110478,0.0626043766666667,0.08526973,0.266181618666667,0.296214825333333,0.0843614364,-0.1315967436,-0.215389268266667,-0.117674455333333,-0.117336281333333,-0.0155750386666667,-0.085663564,-0.0530969106666667,-0.172087834,-0.178177371466667,-0.141066424133333,-0.0074406908,0.175653061333333,0.180194636666667,0.1556972096,-0.0683406237333333,-0.0712286284,2172,"DG_s11",8.89,9.5,10.922,10.922,10,10,28,4,1.422,"Right",28,4,24,0,24,0,-24,0,0,24,"10-10",-18,6,28,10,4,10
"37",5,"LIN2-LIN3",0.142595165691667,0.170344964358333,0.034613005025,-0.0689020443083333,-0.067649410975,-0.088837496975,-0.0836023903083333,-0.229908296975,-0.228003252308333,-0.239978796508333,-0.125613575841667,-0.0220639485083333,0.151586673691667,0.0912716656916667,0.0522960876916667,-0.0816540923083333,0.0315415376916667,0.0232144203583333,0.0786538128916667,0.0415577548916667,0.109066276891667,0.0529048176916667,-0.0680308227083333,-0.187286049375,-0.079938251375,-0.0211265856416667,-0.013131536975,-0.121717433181667,-0.0902884031816667,-0.106286443181667,-0.160717584975,-0.141097811641667,-0.0899444603083333,0.0411184196916667,0.097049065025,0.124175025025,0.0448375823583333,-0.143462182975,-0.294659969641667,-0.304606018308333,-0.249560176975,-0.195263238975,2173,"DG_s11",11.922,12.531,13.968,13.968,10,10,22,6,1.437,"Left",22,6,16,0,16,0,-16,0,0,16,"10-10",-12,4,10,22,10,6
"38",5,"LIN3-LIN4",0.339269599666667,0.239532233,0.082379819,0.0613263683333333,0.037124041,0.00277189366666667,-0.0501163623333333,-0.0818142023333333,-0.068745659,-0.0702098696666667,0.013285871,0.0324353874,0.226894195186667,0.180741655186667,0.22940077412,0.105284267666667,0.0863657143333333,0.111305890333333,0.155824522333333,0.283096429,0.253948714333333,0.174987913666667,0.125022447,0.174680913666667,0.266633313666667,0.320144609,0.332398709,0.199057459,0.10036442242,-0.0648765909133333,-0.08880118158,-0.087402643,0.0314576836666667,0.140473937666667,0.176285810333333,0.168085610333333,0.170013004333333,0.141444657,0.0864869643333333,0.0557251676666667,-0.0381391416666667,-0.144659561666667,2173,"DG_s11",11.922,12.531,13.968,13.968,10,10,22,6,1.437,"Left",22,6,16,0,16,0,-16,0,0,16,"10-10",-12,4,10,22,10,6
"39",5,"LIN4-LIN5",-0.01563565255,0.123607614116667,0.17965090345,0.164029168116667,0.0977465005833333,0.0333201079166667,-0.0129894334166667,-0.100852867883333,-0.0604189058833333,0.05850131745,0.287967038116667,0.336610876783333,0.29700404945,0.137007636116667,0.0260355737166667,0.09655319505,0.06005505305,0.150106538116667,0.15885468345,0.284794494116667,0.21466027145,0.03808103145,-0.10986152455,-0.162579575216667,-0.112570684283333,-0.0396207242833333,0.10650553885,0.260484354583333,0.24683220125,0.241699922116667,0.13443350385,0.320673025183333,0.233313177183333,0.21505320705,-0.000663911216666667,0.00239694545,0.05733631805,0.00824980165,-0.00812926368333333,-0.08793031455,-0.07709163455,-0.05777848455,2173,"DG_s11",11.922,12.531,13.968,13.968,10,10,22,6,1.437,"Left",22,6,16,0,16,0,-16,0,0,16,"10-10",-12,4,10,22,10,6
"40",5,"RIN9-RIN10",0.2503468624,0.217637659333333,0.291631800266667,0.207814538266667,0.214058786266667,0.148632149333333,0.0936249613333333,0.139616194666667,0.192202472,0.21793006,0.154782882,0.129663718,0.19798114,0.113936093333333,0.112188230666667,0.0641420173333333,0.200082364666667,0.212479368133333,0.189278404133333,0.174121780133333,0.221294626,0.313709460666667,0.411895404,0.402136824,0.219877786666667,0.165626731333333,0.0947521853333333,0.259815817333333,0.157820461333333,0.350131540666667,0.325075020666667,0.349193349333333,0.212991601333333,0.197698669333333,0.265512776666667,0.301801164666667,0.233734642,0.157323085333333,0.0906195526666667,0.0996326493333333,0.186767255333333,0.388600448,2173,"DG_s11",11.922,12.531,13.968,13.968,10,10,22,6,1.437,"Left",22,6,16,0,16,0,-16,0,0,16,"10-10",-12,4,10,22,10,6
"41",5,"LIN1-LIN2",0.326952766333333,0.276466183,0.237370841666667,0.265749658333333,0.264769487666667,0.366221204333333,0.427393931,0.452235925,0.405520111666667,0.239904810666667,0.082616064,0.0135672073333333,0.060003989,0.119631274333333,0.212854065,0.150710867666667,0.305257775666667,0.336262289,0.431759889666667,0.289884608333333,0.216648874333333,0.283055020333333,0.249210981666667,0.227288569666667,0.100675388333333,0.155979381666667,0.101570735,0.172730662333333,0.280358517,0.307172052333333,0.235411676333333,0.052522499,0.164071961666667,0.263899621666667,0.423443183,0.322093538266667,0.1886744016,-0.0174379704,0.150284361666667,0.293695848333333,0.367648140666667,0.152827147333333,2173,"DG_s11",11.922,12.531,13.968,13.968,10,10,22,6,1.437,"Left",22,6,16,0,16,0,-16,0,0,16,"10-10",-12,4,10,22,10,6
"42",5,"RIN3-RIN4",0.327996905833333,0.2011717125,0.189876919633333,0.114029869833333,0.0613582031666667,0.0919580815,0.0881438519666667,0.127888710633333,0.0830462411666667,-0.0302948155,-0.0520311028333333,-0.0706630708333333,-0.0151647675,0.172110727833333,0.2676866385,0.425380962833333,0.295228232166667,0.361216752166667,0.363620441166667,0.4051972727,0.199309183366667,0.0869249720333333,0.261235337833333,0.353594266966667,0.326226287633333,0.1090570343,0.1810083465,0.248432919166667,0.2254286485,0.137298611166667,0.1098611605,0.0799189845,0.0484964371666667,0.0599553445,0.0980418845,0.0624063131666667,-0.0702891855,-0.0237849975,0.0507973338333333,0.260963307166667,0.195203065833333,0.182459819166667,2173,"DG_s11",11.922,12.531,13.968,13.968,10,10,22,6,1.437,"Left",22,6,16,0,16,0,-16,0,0,16,"10-10",-12,4,10,22,10,6
"43",5,"RIN1-RIN2",-0.0509693645,-0.128361427833333,-0.0913224058333333,-0.1889412325,-0.132424551166667,-0.1908874865,0.00172680483333333,-0.0444344845,0.125886948833333,0.0529692548333333,0.1412038375,0.150349864166667,0.11248865022,0.0954433215533333,0.160398321553333,0.352034086833333,0.316331644166667,0.112279090166667,-0.100451713833333,-0.0882561578333333,-0.0418143504333333,-0.0167863884333333,0.0372053375666667,-0.00344621983333334,-0.0922903998333333,-0.1878951865,-0.2563634825,-0.216264629166667,-0.138561557166667,-0.0322083398333333,0.0971900808333333,0.0156665108333333,-0.0290129111666667,-0.0998208131666667,-0.0621506753666667,0.0136199461666667,-0.0554781545,-0.0816838583,-0.0212401785333333,0.0445796314666667,0.113359239466667,0.0117165895,2173,"DG_s11",11.922,12.531,13.968,13.968,10,10,22,6,1.437,"Left",22,6,16,0,16,0,-16,0,0,16,"10-10",-12,4,10,22,10,6
"44",5,"RIN2-RIN3",0.2734131602,0.1403153642,0.145156888333333,0.131143369,0.216753013666667,0.233471747,0.210837873,0.204121539666667,0.0449835043333333,-0.019109669,-0.0478036256666667,-0.063743297,-0.003282259,0.173724057666667,0.425875431,0.535934249666667,0.449991789,0.408826769,0.378564760333333,0.364591957066667,0.1715843504,0.0391573137333333,0.017792429,0.0766951143333333,0.065532693,-0.004098777,-0.013945977,0.0140556714,0.0901388144666667,0.0770892914,0.0803216863333333,0.0200273699333333,-0.019263791,-0.00381553433333333,-0.00944885166666666,0.103577680333333,0.159616190333333,0.292038290333333,0.328518343666667,0.391327747,0.299463826866667,0.197493706866667,2173,"DG_s11",11.922,12.531,13.968,13.968,10,10,22,6,1.437,"Left",22,6,16,0,16,0,-16,0,0,16,"10-10",-12,4,10,22,10,6
"45",5,"LIN9-LIN10",0.1859563852,0.2996997294,0.170197708733333,0.0977278620666666,0.0912764045333333,0.1459738572,0.0422860208666667,-0.142462973466667,-0.2002100844,-0.237374640066667,-0.0831132857333333,0.0460683718666667,0.0681950565333333,0.0852095032,-0.00503838479999999,-0.0477166308,-0.214453217466667,-0.170767149466667,-0.0282325361333333,-0.0306133294666667,-0.109955868866667,-0.0144240755333333,0.1108558758,0.205293787333333,0.0425727933333333,-0.026650606,-0.0203479581333333,-0.0429086061333333,-0.0546666194666667,-0.119831284133333,-0.0929980088,-0.0249164128,-0.0502852614666667,-0.0495776048,-0.0700947594666667,-0.0503077721333333,-0.0504419621333333,-0.125903155466667,-0.1032578148,-0.1032579728,-0.123082118133333,-0.183265342133333,2173,"DG_s11",11.922,12.531,13.968,13.968,10,10,22,6,1.437,"Left",22,6,16,0,16,0,-16,0,0,16,"10-10",-12,4,10,22,10,6
"46",6,"LIN4-LIN5",0.08295379815,0.09799082015,-0.00154692385000002,-0.05445064385,-0.0613005355833333,-0.18420043425,-0.309381533583333,-0.259492756516667,-0.27244217385,-0.225839840516667,-0.214796062516667,-0.160349155183333,-0.105782566516667,-0.16430920385,-0.13948689785,-0.231012686516667,-0.202919202516667,-0.31358735585,-0.271808757583333,-0.21704378225,-0.12721003025,-0.00145636851666667,-0.110822458516667,-0.103658305183333,-0.175300604516667,-0.147597874516667,-0.175067164516667,-0.252454264516667,-0.319425511183333,-0.295667157183333,-0.140885781183333,-0.12276674665,-0.0832673419833334,-0.0895296453166667,-0.0769505885166667,-0.16088767185,-0.241383101183333,-0.184309574516667,-0.11695355185,-0.000693229183333338,0.0662050994833333,0.19527824215,2174,"DG_s11",14.984,15.593,16.828,16.843,10,10,30,15,1.235,"Right",30,15,15,0,15,0,-15,0,0,15,"10-10",-20,-5,30,10,15,10
"47",6,"LIN1-LIN2",-0.109548665406667,-0.0210450095,-0.0618018568333333,-0.0201749328333333,0.0807972951666667,0.1071202685,0.121248211166667,-0.0288176368333333,-0.0129882495,-0.0336703695,0.00734326916666667,-0.0736565355,-0.1119084129,-0.0219665675666667,0.0937266371,0.0290761611666667,-0.120283944833333,-0.243578618833333,-0.1302910055,-0.0700470088333333,-0.0382698015,-0.0440635868333333,0.0492590845,0.0240508006333333,-0.0884377013,-0.212406277966667,-0.0944595167666667,0.0533567243666667,0.0787486537,0.0092886957,-0.120016984833333,-0.1522159595,-0.0888176828333333,-0.114653802833333,-0.128017110166667,-0.238229852833333,-0.168624712833333,-0.0223065415,-0.0521305648333333,-0.0876324235,-0.234348004166667,-0.223280574833333,2174,"DG_s11",14.984,15.593,16.828,16.843,10,10,30,15,1.235,"Right",30,15,15,0,15,0,-15,0,0,15,"10-10",-20,-5,30,10,15,10
"48",6,"RIN3-RIN4",0.03447701785,0.0655385865166667,0.117666360516667,0.0266313871833333,-0.0223552674833333,-0.0823516568166667,0.0153518345166667,0.0300815871833333,0.0385242651833333,0.12366161185,0.18769845645,0.21927251045,0.0490062345966667,-0.04616572207,-0.125166909403333,-0.08442968355,-0.07804391015,-0.132830616816667,-0.15539100015,-0.158344824816667,0.00935913518333333,-0.04683793815,0.02080200785,-0.0171757934833333,0.0570182465166667,0.00895783585,-0.0244709478833333,0.0985769841166667,0.200911642783333,0.224795794516667,0.139177811316667,0.10299332865,0.0830135179833333,0.08804392585,0.00979870851666667,-0.0101498454833333,0.00527418118333333,0.0472830525166667,0.10611942385,0.104092779183333,0.0887711809833333,0.00366529431666666,2174,"DG_s11",14.984,15.593,16.828,16.843,10,10,30,15,1.235,"Right",30,15,15,0,15,0,-15,0,0,15,"10-10",-20,-5,30,10,15,10
"49",6,"LIN2-LIN3",-0.0604939545166667,0.0498831148166667,0.0778519528166667,-0.0836733751833333,-0.190258128516667,-0.31238328185,-0.333225567183333,-0.377872610983333,-0.273440084316667,-0.0949256843166667,-0.0293779331833333,0.0298452368166667,0.0993149168166667,0.214408082816667,0.330677452816667,0.18466495615,0.04662071615,-0.128602170516667,-0.17991603985,-0.138309721183333,-0.00401518784999999,0.14323167815,0.22061928615,0.0670905688166667,-0.106603204516667,-0.15698847785,-0.146336678516667,-0.120443585916667,-0.22685315925,-0.185515907916667,-0.0711084605166667,-0.09593248985,-0.168865776516667,-0.285975974583333,-0.233743425916667,-0.190246672583333,-0.174047663183333,-0.170438956516667,-0.288791259183333,-0.261392479183333,-0.327725745183333,-0.21567895585,2174,"DG_s11",14.984,15.593,16.828,16.843,10,10,30,15,1.235,"Right",30,15,15,0,15,0,-15,0,0,15,"10-10",-20,-5,30,10,15,10
"50",6,"RIN9-RIN10",-0.210008247466667,-0.142809760666667,-0.125861041333333,-0.179010055933333,-0.245663199933333,-0.136138151266667,-0.0778952153333333,-0.0546289806666667,-0.181241704666667,-0.182078684666667,-0.084931694,-0.035550682,-0.0233892753333333,-0.144802568666667,-0.11180884,-0.15349994,-0.182821773333333,-0.320838643333333,-0.243167823333333,-0.103359756666667,-0.0548738566666667,-0.0292290546666667,-0.119671981333333,-0.00444563066666667,-0.0877291093333333,-0.075415304,-0.138828224106667,-0.17244542744,-0.205918856106667,-0.158874276,-0.0902165213333333,-0.116687670666667,-0.181761286666667,-0.12733345,-0.0659589886666667,-0.146111656666667,-0.25733859,-0.312756108,-0.282980594666667,-0.291628322,-0.296874939333333,-0.310734942666667,2174,"DG_s11",14.984,15.593,16.828,16.843,10,10,30,15,1.235,"Right",30,15,15,0,15,0,-15,0,0,15,"10-10",-20,-5,30,10,15,10
"51",6,"LIN3-LIN4",-0.0155508315,0.0569141878333333,0.147553219166667,0.0359534555666667,-0.00130048576666666,-0.0948695377666667,-0.0844174455,-0.0553927161666667,-0.0585874228333333,-0.0231476815,0.00660387383333334,0.0697980351666667,0.227135683166667,0.271033389833333,0.306052847166667,0.0779528350333333,-0.000763124300000001,-0.1510637043,-0.109610828433333,-0.0331559624333333,0.0570563775666667,0.123160768566667,0.1165747617,0.0480005083666667,-0.00886253869999999,-0.0871813171666667,-0.0982551105,-0.184322544833333,-0.226923032833333,-0.120919226166667,-0.1049682315,-0.0558305535,-0.125215280166667,-0.162575870833333,-0.1017942155,-0.119308378833333,-0.0796765495,-0.2324169095,-0.282056006166667,-0.2119000993,-0.115270725966667,-0.125737845966667,2174,"DG_s11",14.984,15.593,16.828,16.843,10,10,30,15,1.235,"Right",30,15,15,0,15,0,-15,0,0,15,"10-10",-20,-5,30,10,15,10
"52",6,"LIN9-LIN10",0.614576322,0.483783524,0.262968944,0.00424826399999999,0.092651716,0.201123002666667,0.244559992666667,0.172142336,0.00897998933333333,-0.116886084,-0.0594464153333333,-0.0387255726666667,0.116739494,0.101969371333333,0.0399290553333333,-0.113687553266667,-0.118047271933333,-0.0113924386,0.15185637,0.159562579333333,0.087615906,0.351692692666667,0.474364207333333,0.477030500666667,0.0510422086666667,-0.144898582866667,-0.110445886866667,-0.0890903088666667,-0.084978822,0.041465602,0.147302289333333,0.182351546666667,0.03143931,-0.0181819374666667,-0.0128255054666667,-0.0510411228,-0.0762199466666667,0.022711122,0.121997662666667,0.163280356,0.00851029366666665,0.0647036923333333,2174,"DG_s11",14.984,15.593,16.828,16.843,10,10,30,15,1.235,"Right",30,15,15,0,15,0,-15,0,0,15,"10-10",-20,-5,30,10,15,10
"53",6,"RIN1-RIN2",0.150984417333333,0.252785524,0.30667738,0.119640532666667,0.0112287753333333,-0.0864749126666667,-0.0314923986666667,0.0260903605333333,0.200487551866667,0.2442269992,0.259535390666667,0.134310176666667,0.179100802666667,0.118235276666667,0.124901512,0.079304676,0.053962902,0.0796093952666667,-0.0012567354,-0.0144158467333333,-0.00890466333333333,0.142475833333333,0.0893633386666667,0.01225645,-0.051689716,0.06170901,0.0555807726666667,0.120434962,0.0938022486666667,0.0533277812,-0.0521683648,-0.0643947801333333,-0.0279113173333333,0.02581743,0.095444212,0.076127232,0.0145749698,0.0358252764666667,0.109493541133333,0.106094533333333,-0.0542800333333333,-0.112305330266667,2174,"DG_s11",14.984,15.593,16.828,16.843,10,10,30,15,1.235,"Right",30,15,15,0,15,0,-15,0,0,15,"10-10",-20,-5,30,10,15,10
"54",6,"RIN2-RIN3",0.170034939333333,0.08271119,-0.013708242,-0.151539768,-0.086894366,-0.144587437333333,-0.043595104,0.0140955126666667,0.0670908793333333,0.134910472666667,-0.00546965266666667,0.0333597566666667,-0.00903232600000001,0.0959480106666667,0.0759444973333333,0.0882839661333333,0.107450283466667,0.0725157974666667,0.0521352846666667,0.019679786,0.034871633,-0.0907222296666667,-0.121655756333333,-0.19865416,-0.142628968,-0.192332729333333,-0.0894938413333333,0.0798022226666667,0.132560941333333,0.0515653492,-0.1125006288,-0.0812519461333333,0.0408171812,0.135303005866667,0.1465229572,0.0336201746666667,-0.0812998391333333,-0.0961910805333333,-0.112495259866667,-0.104922134066667,-0.172406575733333,-0.158836977066667,2174,"DG_s11",14.984,15.593,16.828,16.843,10,10,30,15,1.235,"Right",30,15,15,0,15,0,-15,0,0,15,"10-10",-20,-5,30,10,15,10
"55",7,"LIN4-LIN5",-0.0971229490666667,-0.170143867066667,-0.0533712170666667,0.113671474333333,0.133348137,0.0795616736666667,-0.014809927,0.0148125156666667,0.0618950216666667,0.114887995666667,0.114923122333333,0.069499577,-0.0324537783333333,-0.0918533703333333,-0.0581788403333333,-0.125856787,-0.101776211666667,-0.143018381466667,-0.0931110474666667,0.115525510533333,0.180430505666667,0.266399855666667,0.0519683634666667,0.0337626721333333,-0.101232210533333,0.0547494263333333,0.0110190576666667,-0.0101512616666667,-0.146673766133333,-0.2179614988,-0.104259631466667,-0.192452720333333,-0.156373973666667,-0.214210430333333,-0.114183283666667,-0.155662924733333,-0.0825301980666667,-0.110463784733333,0.0840762203333333,0.100500050266667,0.102950738466667,0.0143804116,2175,"DG_s11",17.843,18.453,19.593,19.593,10,10,28,4,1.14,"Right",28,4,24,0,24,0,-24,0,0,24,"10-10",-18,6,28,10,4,10
"56",7,"LIN3-LIN4",0.316686963166667,0.454276687166667,0.3624936805,0.132174070366667,0.000811884366666668,0.0641847577,0.0810770411666667,0.0853280885,0.218087535166667,0.326227895166667,0.3316830927,0.0767533460333333,0.0033064207,0.0653348118333333,0.251820623833333,0.3136252205,0.350458421833333,0.242966711166667,0.230994197166667,0.3210344465,0.397904425166667,0.4221994145,0.239672051833333,0.0855320531666667,0.0344479665,0.103328977966667,0.133134376633333,0.0192989559666667,-0.0399188521666667,-0.0168631415,0.126546727833333,0.1226792905,0.1076271645,0.0457164958333333,0.124460271833333,0.105683553833333,0.0891282167666667,0.0789599107666667,0.140345982766667,0.1500403965,0.223097063166667,0.263599495166667,2175,"DG_s11",17.843,18.453,19.593,19.593,10,10,28,4,1.14,"Right",28,4,24,0,24,0,-24,0,0,24,"10-10",-18,6,28,10,4,10
"57",7,"LIN9-LIN10",-0.00667578673333333,0.0471308019333333,0.0582443666,0.132913565333333,0.223792958666667,0.281872669333333,0.378334902666667,0.32248325,0.322547786,0.331208502666667,0.249046423333333,0.24883869,0.358018726666667,0.483870058666667,0.484675365333333,0.308206704,0.300738360666667,0.412465271333333,0.586777566,0.598783474666667,0.449812509733333,0.219554532466667,0.111735161133333,0.183464168733333,0.175323624,0.279901276666667,0.20972525,0.311324872,0.189561046666667,0.229549024,0.167490610666667,0.16248415,0.1753773616,0.215168886933333,0.2503846596,0.37674131,0.418734531333333,0.401799351333333,0.322857678666667,0.237611361333333,0.335908986,0.306162541333333,2175,"DG_s11",17.843,18.453,19.593,19.593,10,10,28,4,1.14,"Right",28,4,24,0,24,0,-24,0,0,24,"10-10",-18,6,28,10,4,10
"58",7,"LIN2-LIN3",0.0803973656666667,-0.0799158343333333,-0.119405254333333,-0.134126087666667,-0.0228756343333333,0.048952589,0.068919669,0.00178714233333332,0.0802164281333333,0.0546455801333333,0.0793372601333333,-0.0893720283333333,-0.159396213666667,-0.248006880333333,-0.153628757,0.0283087696666666,0.190501136333333,0.1898804954,0.228004062066667,0.175190908733333,0.0641915216666667,-0.0350623097333333,-0.1011434773,0.0376716433666667,-0.0912938385666667,-0.179499424333333,-0.333369751,-0.231793654333333,-0.0467184343333333,-0.011856821,0.053403889,-0.107711923,-0.173053469666667,-0.383332257,-0.247276371666667,-0.182593525,-0.137170704333333,-0.161379501666667,-0.00508002833333333,0.164537229666667,0.348871467,0.156971297666667,2175,"DG_s11",17.843,18.453,19.593,19.593,10,10,28,4,1.14,"Right",28,4,24,0,24,0,-24,0,0,24,"10-10",-18,6,28,10,4,10
"59",7,"RIN9-RIN10",-0.0247838001666667,0.0208518318333333,-0.0147644755,0.0211756431666667,0.0944952205,0.0592197472333333,-0.0187540541,-0.0594976447666667,0.0262760505,0.0757385098333333,0.0214413311666667,-0.0811492748333333,-0.106562494166667,0.00524272583333333,0.184973125833333,0.188765105833333,0.0610217605,0.0244925405,0.0262850165,0.0238531705,-0.115057276166667,-0.0965955528333333,-0.0373914215,0.0157842898333333,0.01518407448,-0.00472999885333333,0.07940377648,0.2038920385,0.3055772425,0.2183526265,0.0795245991666667,0.133939981833333,0.178814977166667,0.1930480045,-0.0398220688333333,-0.0687867288333333,-0.149412548166667,-0.0299906015,-0.0593345721666667,0.1211007225,0.0662872218333333,-0.00573154683333334,2175,"DG_s11",17.843,18.453,19.593,19.593,10,10,28,4,1.14,"Right",28,4,24,0,24,0,-24,0,0,24,"10-10",-18,6,28,10,4,10
"60",7,"RIN2-RIN3",-0.0595815836833333,-0.00761638701666667,0.0152967829833333,-0.134522361016667,-0.176910081683333,-0.15339564035,-0.0993713256833333,-0.146529127683333,-0.13455725435,-0.189611601683333,-0.133450589016667,-0.0837778556833333,0.0252389729833333,0.0317250223166667,0.0733871643166667,0.0386914163166667,0.0867907163166667,0.0623122169833333,0.0988804157166667,0.0268252223833333,-0.0778425832833333,-0.166263960016667,-0.106931402683333,-0.15307896635,-0.14054671835,-0.17226063435,0.00964321698333333,-0.00846992301666667,-0.0961827176833333,-0.25184980235,-0.0962166236833333,-0.06442527255,0.02056454945,0.00347631611666667,0.107328194316667,0.100134518983333,0.07685548565,-0.0739505456833333,-0.16965457235,-0.280188919016667,-0.169975419016667,-0.08325381235,2175,"DG_s11",17.843,18.453,19.593,19.593,10,10,28,4,1.14,"Right",28,4,24,0,24,0,-24,0,0,24,"10-10",-18,6,28,10,4,10
"61",7,"LIN1-LIN2",-0.2696464125,-0.337918633166667,-0.4109032845,-0.328155969166667,-0.189871149166667,-0.165837333833333,-0.167464309166667,-0.1585652825,-0.0898886698333334,0.0659749168333333,0.0433044235,0.0553560041666666,0.0739887908333333,0.0344619068333333,0.00854269683333331,-0.0102024125,0.0336486308333333,0.0457695948333333,0.0190557641666667,0.111304188833333,0.135444008833333,0.0780205155,-0.0941163138333333,-0.0270786205,-0.104659914786667,-0.116634912786667,-0.298302772786667,-0.238660056166667,-0.122083180166667,-0.107180984833333,-0.139157729833333,-0.2527757805,-0.262938251166667,-0.2583039125,-0.250853561833333,-0.2039331085,-0.1642793385,-0.2303847445,-0.2403742325,-0.363281571833333,-0.302932151833333,-0.367861855166667,2175,"DG_s11",17.843,18.453,19.593,19.593,10,10,28,4,1.14,"Right",28,4,24,0,24,0,-24,0,0,24,"10-10",-18,6,28,10,4,10
"62",7,"RIN1-RIN2",-0.0385072041666667,0.0232847518333333,-0.0368299228333333,-0.135533666833333,-0.220347902166667,-0.241566188166667,-0.193437620833333,-0.134876692166667,-0.1073001115,-0.0734397721666667,-0.126039118833333,-0.184891798833333,-0.2345992595,-0.222624654833333,-0.1829418615,-0.1557884015,-0.1207376395,0.00229216316666667,-0.0167209958333333,-0.0715085891666667,-0.1655086905,-0.207300250633333,-0.227596296566667,-0.2474441441,-0.0855516189666667,-0.0436487457,0.0107272938333333,-0.0164639981666667,-0.0385010681666667,-0.0733238595,-0.140150884766667,-0.132316756366667,-0.0835266683666667,0.0366040569,0.100348764633333,-0.0258323187,-0.159879376033333,-0.344126156166667,-0.363713560166667,-0.4529492495,-0.391271106833333,-0.395666482833333,2175,"DG_s11",17.843,18.453,19.593,19.593,10,10,28,4,1.14,"Right",28,4,24,0,24,0,-24,0,0,24,"10-10",-18,6,28,10,4,10
"63",7,"RIN3-RIN4",-0.1444372891,-0.0640631144333333,-0.0964437344333333,-0.0915735728333333,-0.1220797695,-0.0628485028333333,-0.0523943068333333,-0.0873342548333333,-0.2092700415,-0.338938384166667,-0.3183689955,-0.279343938166667,-0.0264454355,0.0468199658333333,0.205188361833333,0.1106326785,0.2046536185,0.1096161125,0.2221900325,0.0140748478333333,-0.0986504081666667,-0.2460813215,-0.129541834166667,-0.145929330766667,-0.1427144441,-0.261547985433333,-0.230300966833333,-0.275109916833333,-0.293093814833333,-0.276252657366667,-0.183619154033333,-0.121415389366667,-0.0825766715,-0.1595189635,-0.186515932833333,-0.2065052935,-0.135762900166667,-0.0793644217666667,-0.106120149766667,-0.247315964433333,-0.2142409115,-0.1944370515,2175,"DG_s11",17.843,18.453,19.593,19.593,10,10,28,4,1.14,"Right",28,4,24,0,24,0,-24,0,0,24,"10-10",-18,6,28,10,4,10
"64",8,"LIN4-LIN5",-0.0595354275666667,-0.00994410669999998,-0.179684520033333,-0.227375298033333,-0.250627059366667,-0.215404826033333,-0.214350810033333,-0.295095996033333,-0.201914049366667,-0.0562146587,-0.0241026760333333,0.0321346271666667,-0.0416486835,0.00863159250000001,-0.1345157667,-0.106083847366667,-0.186384094033333,-0.129659851966667,-0.177697124633333,-0.0967241333,-0.130059667366667,-0.0620874687,-0.0177789713666666,0.0385603839666667,0.170931642633333,0.265142595966667,0.3149445153,0.156602675966667,-0.00266042203333333,-0.126132837366667,-0.153725365366667,-0.1398971127,-0.1262839187,-0.0870367980333333,-0.0803141487,-0.0354596960333333,-0.0886049907,-0.0752596940333333,-0.0526882700333333,0.0110345299666667,0.0528481767,-0.0426784506333333,2176,"DG_s11",20.593,21.203,22.312,22.312,10,10,4,4,1.109,"Left",4,4,0,0,0,0,0,0,0,0,"10-10",6,6,10,4,10,4
"65",8,"LIN9-LIN10",0.276450154166667,0.270785718166667,0.2013526055,0.146789016833333,0.0339350228333334,0.0761168715,0.0364920361666667,0.218706754166667,0.1317709335,0.167599844166667,-0.0045989729,-0.0317190662333333,-0.134207416233333,-0.110661125166667,-0.181561607166667,-0.2061048705,-0.1397438445,-0.0384961311,0.1052847609,0.0408613882333334,0.105881256166667,0.1126598775,0.0725300455,0.0322661721666667,0.00265814550000001,0.0390320761666667,-0.151368351833333,-0.175225267833333,-0.205675927833333,-0.0498210938333333,-0.0744225638333333,-0.0314469605,-0.0517219592333333,-0.0679019665666667,-0.121640811233333,-0.2395444665,-0.159932471833333,-0.0561589271666667,0.0659519916266667,0.0974040636266667,0.0695958656266667,0.0770966175,2176,"DG_s11",20.593,21.203,22.312,22.312,10,10,4,4,1.109,"Left",4,4,0,0,0,0,0,0,0,0,"10-10",6,6,10,4,10,4
"66",8,"RIN9-RIN10",-0.0584573968333333,0.0857936178333333,0.161528499833333,0.3485806545,0.2001917605,0.1495582031,-0.0119214649,-0.0196554342333333,0.0567291765,0.240688267166667,0.2371933505,0.3062823505,0.197800363833333,0.342981637166667,0.222068809166667,0.1432438905,0.0708119371666667,0.0138832491666667,0.1278316945,0.151965587833333,0.178323221166667,0.122532821833333,0.0281935338333333,0.155843589833333,0.237175537833333,0.336115199833333,0.3427636665,0.290930463833333,0.2838178365,0.1691372345,0.1561515085,0.0847928485,0.0911603971666667,0.0586045478333333,0.0531532845,0.0372680851666667,0.1018653025,0.1351567265,0.0933929118333333,-0.0549131161666667,-0.1376625035,-0.163859762833333,2176,"DG_s11",20.593,21.203,22.312,22.312,10,10,4,4,1.109,"Left",4,4,0,0,0,0,0,0,0,0,"10-10",6,6,10,4,10,4
"67",8,"LIN2-LIN3",0.196339621866667,0.1332968932,0.2049148192,0.213151075,0.239869314333333,0.220380242333333,0.284595760333333,0.435120709666667,0.3603439276,0.3189256236,0.179588266266667,0.182944587666667,0.0934270736666667,0.141880084266667,0.177457756933333,0.525146956266667,0.5645435488,0.591602655466667,0.454797455466667,0.331894279666667,0.279231335666667,0.155012603,0.1361399692,0.1244898412,0.1396817892,0.267403098333333,0.362720430333333,0.414998275666667,0.357153663,0.215754641,0.188146270333333,0.192078255666667,0.275493072533333,0.371713476533333,0.3297683312,0.348367343,0.235744785,0.270009359466667,0.246170826133333,0.3057663238,0.365505883333333,0.360924437733333,2176,"DG_s11",20.593,21.203,22.312,22.312,10,10,4,4,1.109,"Left",4,4,0,0,0,0,0,0,0,0,"10-10",6,6,10,4,10,4
"68",8,"LIN3-LIN4",-0.370634753666667,-0.351969643,-0.178547925666667,-0.0598926943333333,-0.151768311,-0.178459735,-0.179348167666667,-0.0920602598,-0.130423635133333,-0.1785106898,-0.193520381666667,-0.268305537,-0.350639654333333,-0.340133411,-0.2483041162,-0.116946402866667,-0.120217023533333,-0.229030419666667,-0.246571918333333,-0.336481817,-0.212228699,-0.252980745666667,-0.0771940919333333,-0.0261746379333333,0.0547249494,0.103380369,0.0175753018666667,0.0324884918666667,-0.0519545821333333,-0.083323739,-0.0150189396666666,-0.0381481987333333,-0.00542250473333333,-0.116022976066667,-0.248241443,-0.257698053,-0.254370486333333,-0.165014723,-0.171423733666667,-0.167893733,-0.243328496333333,-0.184119485666667,2176,"DG_s11",20.593,21.203,22.312,22.312,10,10,4,4,1.109,"Left",4,4,0,0,0,0,0,0,0,0,"10-10",6,6,10,4,10,4
"69",8,"RIN1-RIN2",-0.0104720399,-0.0338254721,0.0166951479,0.1111789353,0.2003019135,0.266157074833333,0.136951160166667,0.1272609695,0.0515278395,0.0923166035,-0.00338082116666666,0.00799953083333335,0.0873174835,0.302521376833333,0.249212906833333,0.219710492833333,0.0787045741666667,0.220581580833333,0.0983581615,0.0942205932333333,0.00322783190000002,0.0232513379,0.0301348335,0.0163930301666667,0.0313327023,0.0433397336333333,0.203759791633333,0.223484568833333,0.147952420166667,0.0578268868333333,0.0396910781666667,0.0430412581666667,0.1715238915,0.315259990166667,0.412295558833333,0.284140132833333,0.2653714275,0.178414000833333,0.259746826833333,0.151977848166667,0.163090388166667,0.0636590308333333,2176,"DG_s11",20.593,21.203,22.312,22.312,10,10,4,4,1.109,"Left",4,4,0,0,0,0,0,0,0,0,"10-10",6,6,10,4,10,4
"70",8,"RIN2-RIN3",0.0982128238716667,0.165409299871667,0.138802361671667,0.104702309005,0.0615971457583333,-0.0157480980416667,-0.030711565375,0.00639006987166666,-0.00615948946166667,0.006132799205,-0.012325770795,0.106785952538333,0.149582661205,0.146021010538333,0.093945869005,0.0215186363383333,0.101840210338333,0.180420679871667,0.136768868538333,0.136801905871667,-0.00143580812833334,0.016890426405,-0.109345778928333,-0.021135749595,0.0443357225383333,0.0997894098716667,0.141395611871667,0.0691730325383333,0.007178921205,-0.158058640795,-0.136649726128333,-0.203724534128333,-0.126599680128333,-0.162312028795,-0.0288282154616667,0.0927354213383333,0.0868187013383333,0.0953961153383333,-0.065728208795,0.0521907898716667,0.144670182538333,0.238619130538333,2176,"DG_s11",20.593,21.203,22.312,22.312,10,10,4,4,1.109,"Left",4,4,0,0,0,0,0,0,0,0,"10-10",6,6,10,4,10,4
"71",8,"RIN3-RIN4",-0.000341886166666666,0.186201723166667,0.1397386525,0.1036865705,0.0265072105,0.0973839498333333,0.0938849631666667,0.1574606165,0.0763103941666667,0.0968612995,0.115174992833333,0.2178495025,0.288794905833333,0.2644385605,0.204336019166667,0.130412692566667,0.0767717205666667,0.205752456566667,0.151230183166667,0.1239492465,-0.0476210661666667,0.0382406028333333,0.0890114868333333,0.199812912833333,0.1288049585,0.122562319833333,0.0722280505,0.1172785123,0.0643479249666667,0.0356414862333333,0.107062684433333,0.148032154433333,0.115369677166667,0.0405854218333333,-2.66833333335131e-07,0.1108904745,0.0619856656333333,0.0869283469666667,-0.0324447557,0.0102373738333333,-0.1279275595,-0.155812846166667,2176,"DG_s11",20.593,21.203,22.312,22.312,10,10,4,4,1.109,"Left",4,4,0,0,0,0,0,0,0,0,"10-10",6,6,10,4,10,4
"72",8,"LIN1-LIN2",-0.0200838106266667,-0.0625671974,-0.153326936733333,-0.158139666066667,-0.106647226666667,-0.112690906666667,-0.122509670666667,-0.161870517666667,-0.026267145,0.0548073256666667,0.033841438,0.00779925693333333,0.0580111396,-0.00147382706666667,0.017771808,0.105328488,0.242183742,0.338615674666667,0.309965128,0.297678782666667,0.210981191333333,0.308296584666667,0.361675269333333,0.462576861333333,0.346142597333333,0.226047350666667,0.0928503429333333,-0.0457533305,0.0660403351666667,0.0783479895666667,0.111944732333333,0.12773824,0.187540346666667,0.197454403733333,0.1632008044,0.1329275684,0.120428584,0.112353692666667,0.0260781693333333,0.00586517133333333,0.00542770126666667,0.124048111066667,2176,"DG_s11",20.593,21.203,22.312,22.312,10,10,4,4,1.109,"Left",4,4,0,0,0,0,0,0,0,0,"10-10",6,6,10,4,10,4
"73",9,"LIN9-LIN10",-0.0489268383,0.0107866950333333,-0.0341486425666667,-0.103651309233333,-0.121573286566667,0.0958310254333333,0.1963855361,0.233873533433333,0.202980246766667,0.299821422766667,0.203242562766667,0.0172064427666667,0.0411824961,0.172305589433333,0.174734255433333,0.0609277241,-0.0854286684333333,0.1214043589,0.0610638917,0.167468784233333,0.0457656475666667,0.140822197433333,0.164689250766667,0.110445307433333,0.0859979041,0.000570977433333328,0.0343286267666667,0.0458461961,-0.0344329112333333,-0.0557398539,0.0812932487666667,0.148044077433333,0.142249464766667,0.0808318581,0.0888216701,0.0526059887666667,0.0617932221,0.143442495433333,0.1735444581,0.264085433433333,0.240417466766667,0.286471163433333,2177,"DG_s11",23.328,23.937,25.031,25.047,10,10,13,7,1.094,"Right",13,7,6,0,6,0,-6,0,0,6,"10-10",-3,3,13,10,7,10
"74",9,"RIN1-RIN2",0.121210531859333,0.0222930742666667,-0.0777356330666667,-0.181996545,-0.152926974333333,-0.284843200333333,-0.305084897,-0.290103954333333,-0.141761308333333,-0.099811115,-0.033263811,-0.000922437399999997,0.125389451933333,0.0766358352666667,0.201705862333333,0.272976171,0.376891887666667,0.249886395666667,0.0876013863333333,-0.0679409345333333,-0.161895953866667,-0.166866438533333,-0.112391664333333,0.089766499,0.100564191666667,0.130405846333333,0.100820521,0.0498724643333333,-0.0257447436666667,-0.162484284333333,-0.135017465933333,-0.1895301526,-0.1833914246,-0.150504216333333,-0.0889443423333333,-0.121668523,-0.0830653516666667,-0.158335559,-0.186949205666667,-0.377937097,-0.267613283666667,-0.0676082703333333,2177,"DG_s11",23.328,23.937,25.031,25.047,10,10,13,7,1.094,"Right",13,7,6,0,6,0,-6,0,0,6,"10-10",-3,3,13,10,7,10
"75",9,"RIN2-RIN3",0.2953189858,0.0993151164666667,0.0764270236666667,0.0589568123333333,0.0542128256666667,0.0446487583333333,0.059643683,0.101581474333333,0.114105442333333,0.207130555,0.220276029666667,0.279200473666667,0.317962418333333,0.370068941,0.439033055,0.323705879266667,0.279342453113333,0.164491653113333,0.118154276846667,0.0933768963333333,0.105448968333333,0.052543827,0.109926638333333,0.0366504796666667,0.125452126333333,0.160723271,0.233501394333333,0.240170498066667,0.1781224334,0.205034456466667,0.1264541794,0.0658870474,0.0170136536666667,0.015198321,0.0783546697333333,0.0545745597333333,0.0821832068666667,0.0794622021333333,0.0245677521333333,0.020863943,0.0606038103333333,0.114763862333333,2177,"DG_s11",23.328,23.937,25.031,25.047,10,10,13,7,1.094,"Right",13,7,6,0,6,0,-6,0,0,6,"10-10",-3,3,13,10,7,10
"76",9,"LIN2-LIN3",-0.157781173833333,-0.1874963247,-0.164057745366667,-0.148324814033333,-0.0635471731666667,-0.0301351998333333,-0.0518677038333333,-0.154643405833333,-0.0768812671666667,0.0396180441666667,0.0296818281666667,0.00370967683333333,0.0175488461666667,0.114917540166667,0.0432332128333333,-0.0186839371666667,0.0271078621666667,0.206904982166667,0.131792160166667,0.110516303966667,-0.0849688967,0.0287730813,-0.0374666378333333,-0.0280117538333333,-0.1124712577,-0.1560283797,-0.122186822366667,-0.1960822525,-0.1980630465,-0.253035919833333,-0.230256655166667,-0.123957403833333,-0.0373451245,-0.0331180038333333,-0.0690648185,-0.1438505445,-0.0561616318333333,-0.131618575833333,0.0252190368333333,0.0875765099666667,0.213016448633333,0.1303347333,2177,"DG_s11",23.328,23.937,25.031,25.047,10,10,13,7,1.094,"Right",13,7,6,0,6,0,-6,0,0,6,"10-10",-3,3,13,10,7,10
"77",9,"LIN3-LIN4",-0.0844628580666667,-0.153607486733333,-0.180288844733333,-0.065345185,0.0295348636666667,0.147428048333333,0.101645551666667,0.0894693616666667,0.020165209,0.0923087263333333,-0.0585350236666667,-0.131226764333333,-0.090002219,0.0452401143333333,0.105455314333333,-0.0296045719333333,-0.150620603933333,-0.174145896466667,-0.263824326866667,-0.0236884482,0.068207409,0.232903992333333,0.0932736323333333,0.0171567336666666,-0.0924158816666667,-0.278362715,-0.340647494333333,-0.381185392333333,-0.28566545516,-0.16422729916,-0.154418945826667,0.038914517,0.00118675233333332,0.00828422766666664,-0.170141784333333,-0.219037123,-0.106419691,-0.0847375866666667,0.0254695606666666,0.0486365666666667,-0.00174485900000002,0.005268141,2177,"DG_s11",23.328,23.937,25.031,25.047,10,10,13,7,1.094,"Right",13,7,6,0,6,0,-6,0,0,6,"10-10",-3,3,13,10,7,10
"78",9,"LIN4-LIN5",0.143231433,0.085426677,0.082703997,0.180700501,0.230061751,0.223430845,0.0746506716666667,-0.0362777920666667,-0.1529182594,-0.0782056800666667,-0.0650441075866667,0.0897148937466667,0.129267293013333,0.0823100669333333,-0.0261501610666667,-0.0827517863333333,0.0460453483333333,0.201333708333333,0.2520978122,0.1393770606,0.0957293139333333,0.114939662,0.119823094266667,0.00908465893333333,-0.100562754333333,-0.1568733496,-0.0351010489333333,0.125183969733333,0.092228819,0.0433447316666667,-0.047853205,0.0217792256666667,-0.0177056212,0.0235348941333333,0.0919084088,0.1662730952,0.122039809866667,0.0830955865333333,0.116931122333333,0.194894518333333,0.182310804333333,0.349265404333333,2177,"DG_s11",23.328,23.937,25.031,25.047,10,10,13,7,1.094,"Right",13,7,6,0,6,0,-6,0,0,6,"10-10",-3,3,13,10,7,10
"79",9,"RIN3-RIN4",0.1898277425,0.139490815833333,-0.00927727276666666,-0.0766691354333333,-0.140306224766667,-0.0669414481666667,0.0137143249,0.0118056295666667,-0.0095293471,0.128159795833333,0.142273253833333,0.234138245166667,0.113394993166667,0.256465097166667,0.1201016345,0.101199919166667,-0.0147764055,0.0576827508333333,-0.0303458105,-0.0552279711666667,-0.0595678275,-0.0577490781666667,0.0104142211666667,-0.0162539821666667,0.1444627705,0.1151550065,0.188027926566667,0.0615900059,0.141321227233333,0.127766785633333,0.2049239663,0.0636194576333333,0.0603893625,0.0058963625,-0.0661924441666667,-0.1884903575,-0.255084548833333,-0.142554016,-0.00468903,0.105864501333333,-0.0105096115,-0.0391219908333333,2177,"DG_s11",23.328,23.937,25.031,25.047,10,10,13,7,1.094,"Right",13,7,6,0,6,0,-6,0,0,6,"10-10",-3,3,13,10,7,10
"80",9,"RIN9-RIN10",0.0157702576333333,0.0897250176333333,0.140784903633333,0.0820441649666667,0.00318267363333333,0.0472703216333333,-0.0170618250333333,-0.0451108937,-0.133494572566667,-0.0495647219,-0.0240757085666667,0.228623563633333,0.247845300966667,0.345247011766667,0.294633991766667,0.380867097766667,0.2866108583,0.1730565303,-0.0164187237,-0.0499332930333333,-0.0939184750333333,-0.03642319596,0.0108690907066667,0.06841581404,0.132607563633333,0.0500364316333333,-0.0071711697,-0.0241884417,0.123144356966667,0.182207037633333,0.188928047633333,-0.0255435277,-0.202158871033333,-0.268299535033333,-0.178768382366667,-0.0590104983666667,0.0509595298333333,0.189668163833333,0.127178121166667,0.0568679536333333,-0.0224307390333333,0.117313633233333,2177,"DG_s11",23.328,23.937,25.031,25.047,10,10,13,7,1.094,"Right",13,7,6,0,6,0,-6,0,0,6,"10-10",-3,3,13,10,7,10
"81",9,"LIN1-LIN2",0.15486839565,0.0354235549833333,0.0522255329833333,-0.10472738235,-0.106429217016667,-0.111192421683333,-0.05281458835,-0.0966927036833333,-0.0249617150166667,0.132537700316667,0.124420962983333,0.10309639165,-0.03527127235,0.102583912983333,-0.0384940110166667,-0.00580657241666666,-0.0449668130833333,0.136444586916667,0.0280195389833333,0.00408338831666667,-0.09324181555,-0.101424728883333,-0.0758666722166667,-0.131548407016667,-0.0745526750166667,-0.110826627683333,-0.05524168835,0.0157971085166667,0.06383066785,0.06033036045,0.02020521225,0.142877425583333,0.09360964565,0.03091308565,-0.04341243435,-0.02001310435,-0.02361674623,-0.0294069328966667,0.0784983091033333,0.06349847565,0.172784175916667,0.12409445725,2177,"DG_s11",23.328,23.937,25.031,25.047,10,10,13,7,1.094,"Right",13,7,6,0,6,0,-6,0,0,6,"10-10",-3,3,13,10,7,10
"82",10,"RIN2-RIN3",-0.039063124,0.0151493604666667,0.0228824564666667,0.162638956533333,0.1679576312,0.1989434132,0.239330880466667,0.2457561118,0.3775670718,0.328073534466667,0.361519703133333,0.263648603133333,0.2806404238,0.109847657133333,0.0844121071333333,0.0608517024666667,0.2870201158,0.2513222858,0.1760809358,0.124642361133333,0.113600648466667,0.271603836466667,0.216826270466667,0.375424476466667,0.2374395858,0.156301486466667,0.00803263313333336,0.0206092398,0.149739211133333,0.1759004998,0.156867976466667,0.0801213279066667,0.10847014324,0.267095312573333,0.313677121133333,0.194634490466667,0.0166844478,-0.0454898728666667,0.0758669998,0.219366895133333,0.329631011133333,0.3316509918,2178,"DG_s11",26.047,26.656,27.703,27.718,10,10,10,26,1.047,"Left",10,26,16,0,16,16,0,0,0,-16,"10-10",0,-16,10,10,10,26
"83",10,"RIN1-RIN2",0.0610273900333333,-0.0148339773,-0.0391439799666667,-0.0287066981666667,0.0154493151666667,0.104736513966667,0.238337085966667,0.249386789966667,0.359936231166667,0.267007113166667,0.268938465833333,0.0992480178333333,0.1918795305,0.115516901166667,0.120654019166667,0.0303384078333333,0.113222812833333,0.220663492833333,0.0770141021666667,-0.0396973441666667,-0.236265340833333,-0.2777085935,-0.306358358833333,-0.204878764166667,-0.1037257647,-0.131312711366667,-0.0127916220333333,0.0169127778333333,0.1351004925,-0.0479891581666667,-0.116594124166667,-0.183734210833333,-0.1035741375,-0.00841015816666666,0.00282262543333334,-0.0386478145666667,0.0136456541,0.123963595833333,0.159395925166667,0.192369377833333,0.256018037833333,0.262738675166667,2178,"DG_s11",26.047,26.656,27.703,27.718,10,10,10,26,1.047,"Left",10,26,16,0,16,16,0,0,0,-16,"10-10",0,-16,10,10,10,26
"84",10,"LIN4-LIN5",-0.176742041216667,-0.248487859216667,-0.249283493883333,-0.143586060743333,-0.203717238076667,-0.322973416743333,-0.372170630743333,-0.361447346743333,-0.246245740743333,-0.37781725341,-0.331058530076667,-0.29682781941,-0.223098094076667,-0.260468954076667,-0.33028172341,-0.320471662076667,-0.290638082076667,-0.272611594076667,-0.10824704341,-0.0421996700766667,-0.00302297274333332,-0.08547316941,-0.188748192743333,-0.183814578743333,-0.114840592743333,-0.130093322743333,-0.18940630941,-0.131069602743333,-0.0257613064033333,-0.0490921672033333,-0.27157717387,-0.234390456876667,-0.0695829560766667,-0.11017222941,-0.160234302743333,-0.334222402743333,-0.284503522143333,-0.44359826881,-0.497321715476667,-0.439666416076667,-0.332593392076667,-0.22283511741,2178,"DG_s11",26.047,26.656,27.703,27.718,10,10,10,26,1.047,"Left",10,26,16,0,16,16,0,0,0,-16,"10-10",0,-16,10,10,10,26
"85",10,"LIN9-LIN10",0.0187874101666667,0.2130215835,0.255833222166667,0.2056785375,0.119713202833333,0.207082418166667,0.123737524166667,-0.0310174271666667,-0.0243924005,-0.0501614931666667,-0.1122785405,-0.235107823166667,-0.203936797833333,-0.138817589433333,-0.141475122033333,-0.0348983660333333,0.165033752233333,0.244452720833333,0.197269364166667,0.0608103508333333,-0.0181813558333333,0.0334522755,0.0544949955,0.0795622541666667,0.117743236166667,0.0083784975,0.1732395255,0.182579738833333,0.520753844166667,0.428963082566667,0.333816701233333,0.123529104566667,0.139571844166667,0.0758975788333333,-0.0792231751666667,-0.1332081265,-0.0781484998333333,-0.0172553845,-0.0224635073666667,0.0723158106333333,0.0617403746333333,0.0240703752333333,2178,"DG_s11",26.047,26.656,27.703,27.718,10,10,10,26,1.047,"Left",10,26,16,0,16,16,0,0,0,-16,"10-10",0,-16,10,10,10,26
"86",10,"LIN2-LIN3",-0.010568969,0.0705636156666667,0.047435835,0.0623416883333333,-0.116024719666667,-0.199891273666667,-0.214667209666667,-0.0951000623333333,0.0336659638666667,0.1213809412,0.115424760533333,0.0786720489333333,0.1796361876,0.136249480933333,0.227753551,0.203444371,0.330429159,0.170394153666667,0.201321133666667,0.0895582003333333,0.203286117666667,0.113313665533333,0.170254293466667,0.0871862608,0.0854277749333333,0.001785149,-0.045952047,-0.152387735666667,-0.090842433,-0.113865073666667,0.00825758966666666,0.0273798096666667,0.029711019,-0.034438291,0.015843081,0.206961861666667,0.189340167,0.0743092343333333,-0.0526684316666667,-0.105675891713333,-0.0482150257133333,-0.0789887157133333,2178,"DG_s11",26.047,26.656,27.703,27.718,10,10,10,26,1.047,"Left",10,26,16,0,16,16,0,0,0,-16,"10-10",0,-16,10,10,10,26
"87",10,"LIN3-LIN4",0.0398619447666667,-0.0718804515,-0.200246230166667,-0.1836801155,-0.213501077966667,-0.1216827573,0.0151706420333333,0.128116373833333,0.0580860485,0.00880465050000001,0.0626646058333333,0.217718863633333,0.176997860966667,0.1188929743,0.101274919833333,0.141055553166667,0.2119525465,0.151735033033333,0.1784765597,0.0855581749666667,0.0625804912333333,0.0175834665666667,-0.0433751520333333,-0.0716327495666667,-0.112839344233333,-0.115754907566667,-0.0420466861666667,-0.0569593308333333,-0.0355169150333333,-0.145566357033333,-0.0912077417,-0.0415540235,-0.109881512833333,-0.00223307083333334,0.114442127833333,0.266793065833333,0.196846263166667,0.0817952971666667,-0.0207495561666667,-0.0908871748333333,-0.1234045423,-0.13057666116,2178,"DG_s11",26.047,26.656,27.703,27.718,10,10,10,26,1.047,"Left",10,26,16,0,16,16,0,0,0,-16,"10-10",0,-16,10,10,10,26
"88",10,"LIN1-LIN2",-0.0521387067333333,-0.0301842728,0.0853394094,0.0461308787333333,0.103234230733333,0.0657774378666667,0.108846789133333,0.0725708371333333,0.0748691878,0.114999472533333,0.201248427866667,0.195988722133333,0.240758110466667,0.220487025133333,0.1805547874,0.105381671066667,0.124253021066667,0.114864602533333,0.1414452112,0.0254526938666667,0.0530588385333333,0.107808348533333,0.0788446512,0.0317295198666667,-0.1093887068,-0.0579026788,-0.0367723541333333,0.0530749845333333,0.0158860658666667,-0.0537516401333333,-0.148219052133333,-0.0353567541333333,0.0418114578666667,0.129673439866667,0.136901833866667,0.2386916472,0.2468867452,0.201985972533333,0.0766061672,0.0100689445333333,0.0397246232,0.119051521866667,2178,"DG_s11",26.047,26.656,27.703,27.718,10,10,10,26,1.047,"Left",10,26,16,0,16,16,0,0,0,-16,"10-10",0,-16,10,10,10,26
"89",10,"RIN9-RIN10",0.055293189985,0.114599463985,0.020398381985,0.0373926966516667,0.145335592651667,0.206613808651667,0.218253191318333,-0.00309886568166667,0.00426822565166667,-0.0383697323483333,0.0731788686516667,0.00384152331833333,0.0426539373183333,-0.0316907706816667,-0.00691755134833333,-0.007495938015,0.190073053985,0.237707539985,0.204362527985,0.0607894993183333,0.163947647985,0.110293353318333,-0.00197097068166667,-0.254213898015,-0.169305219348333,-0.0793151226816667,-0.100598522681667,-0.126299394681667,0.0544286886516667,0.116423861985,0.127824025318333,-0.0299252953483333,0.0315783940516667,-0.000201115948333332,-0.0334550159483333,-0.0903800386816667,-0.0587032973483333,-0.075991654015,0.00442028265166667,0.108476323318333,0.0668206466516667,0.036807051985,2178,"DG_s11",26.047,26.656,27.703,27.718,10,10,10,26,1.047,"Left",10,26,16,0,16,16,0,0,0,-16,"10-10",0,-16,10,10,10,26
"90",10,"RIN3-RIN4",0.0672383356666667,0.000529150333333332,0.014680711,-0.0454410156666667,-0.038809005,-0.147268719,0.055548525,0.206624012333333,0.386934447666667,0.204044531666667,0.0570420187333333,-0.0356247752666667,-0.0718520304066667,-0.0549733588066667,-0.06043577614,0.013246615,0.143786416333333,0.093572351,0.0792972816666667,-0.0695147256666667,-0.0833667769333333,0.0689642750666667,0.1043789424,0.253459435,0.174089888333333,0.149270039666667,0.162942199,0.0659498276666667,0.195560753666667,0.0889475847333333,0.1898191114,0.0408437275333333,-0.0256723368666667,-0.0790174122,-0.016712919,-0.0118723516666667,-0.139269738333333,-0.209630474333333,-0.197481315,-0.0732894643333333,0.0761561716666667,0.0718048603333333,2178,"DG_s11",26.047,26.656,27.703,27.718,10,10,10,26,1.047,"Left",10,26,16,0,16,16,0,0,0,-16,"10-10",0,-16,10,10,10,26
"91",11,"RIN2-RIN3",0.0791401963333333,0.056583481,0.054368431,0.0272334883333333,-0.0957637143333333,-0.0764669054666667,0.0270936558666667,0.0226078772,-0.021647379,-0.109823485666667,-0.022007429,0.0803477816666667,0.0877425783333333,0.105494631666667,0.286282167666667,0.269407360333333,0.222938793,-0.036501473,0.051637339,0.0205560461333333,0.0068892088,-0.0921230678666667,-0.103203251666667,-0.0425147016666667,-0.0118243016666667,-0.0362940403333333,0.110919319666667,0.273440020333333,0.259667809666667,0.215386245533333,0.126947744866667,0.218755135066667,0.154002677,0.11368145674,0.0570160972066667,0.0761048460733333,0.116046460333333,0.268489489666667,0.277705192333333,0.315152279666667,0.114544701666667,0.0590892923333333,2179,"DG_s11",28.718,29.328,30.156,30.172,10,10,13,22,0.828,"Left",13,22,9,0,9,9,0,0,0,-9,"10-10",-3,-12,10,13,10,22
"92",11,"LIN9-LIN10",0.0831262578833333,-0.0648787887833333,-0.09555710945,0.09748999055,0.158903662083333,0.301696994083333,0.246595667416667,0.294121575883333,0.234011775883333,0.107140692216667,0.15564979755,0.117105724216667,0.12346565455,0.0364387958833333,0.0468043158833333,0.174283424483333,0.255512690483333,0.19689518035,0.16806423175,0.106275201083333,0.153068517883333,0.02202229655,0.162399321216667,0.219107701216667,0.27915359055,0.150284853216667,0.169469219883333,0.21527900255,0.396614793216667,0.30619149255,0.278780433216667,0.25824136655,0.332145371883333,0.58810948055,0.37279820455,0.253328539216667,0.09064437255,0.522322915216667,0.700891275883333,0.532688917216667,0.0475959638833333,-0.13589675345,2179,"DG_s11",28.718,29.328,30.156,30.172,10,10,13,22,0.828,"Left",13,22,9,0,9,9,0,0,0,-9,"10-10",-3,-12,10,13,10,22
"93",11,"LIN3-LIN4",0.03844592325,-0.0357527738833333,0.00332831811666667,0.15032450145,0.350620577916667,0.440209533916667,0.396469926583333,0.278855311916667,0.258742638583333,0.227250402583333,0.238487893916667,0.10189607325,0.119673070583333,0.0410887045833333,0.15994430525,0.205632938583333,0.278985739916667,0.237354861116667,0.25146229645,0.246721391116667,0.194554294583333,0.192193041916667,0.249836501916667,0.267969090583333,0.295971943916667,0.277407309916667,0.251727136583333,0.16990104325,0.0409576779166667,0.135363774583333,0.268095130583333,0.41637721405,0.30650644405,0.216742800716667,0.164228438783333,0.267815656116667,0.249301886783333,0.14948861725,0.227228539916667,0.181417491369333,0.123848352036,0.069497194036,2179,"DG_s11",28.718,29.328,30.156,30.172,10,10,13,22,0.828,"Left",13,22,9,0,9,9,0,0,0,-9,"10-10",-3,-12,10,13,10,22
"94",11,"LIN2-LIN3",0.0314787206666667,-0.0274889766666667,-0.06333277,-0.110241761333333,0.00568822466666667,-0.0113523893333333,0.0655693306666667,-0.0342492793333333,-0.118189712,-0.161151798,-0.0625169566666667,0.0129886573333333,0.0912870306666667,0.0384649766666667,0.188580962666667,0.226626592666667,0.472284193333333,0.305452633333333,0.163253338666667,-0.0941449893333333,-0.149646229333333,-0.167110655333333,0.0242643833333333,0.100468472393333,0.15329565506,-0.0554992040066667,-0.1005793944,-0.176944251066667,-0.123623712466667,-0.124850751133333,-0.0484315071333333,-0.115390441333333,-0.0740003446666667,-0.0713616846666667,-0.0288058145333333,0.1034828288,0.0316110234666667,0.00533162066666666,-0.0954957593333333,-0.045093974,-0.0117891234,0.0287875432666667,2179,"DG_s11",28.718,29.328,30.156,30.172,10,10,13,22,0.828,"Left",13,22,9,0,9,9,0,0,0,-9,"10-10",-3,-12,10,13,10,22
"95",11,"RIN1-RIN2",-0.2300629565,-0.421793883833333,-0.421108842833333,-0.4497222415,-0.438593878833333,-0.3517035055,-0.175317838833333,-0.1384117895,-0.1394561835,-0.153258510166667,-0.150643524833333,-0.181838337033333,-0.3282709497,-0.182129832766667,-0.111712725233333,-0.0724150085666666,-0.245882454833333,-0.3501012295,-0.307554740166667,-0.3201129855,-0.2931947795,-0.3049643635,-0.357988310833333,-0.285841456833333,-0.235122568833333,-0.132845838833333,-0.2093198295,-0.359566168166667,-0.3221130495,-0.181449500833333,-0.0883945688333333,-0.186154404166667,-0.3118567923,-0.231889789633333,-0.1013664043,0.0875590591666667,0.00331077716666667,-0.146074914833333,-0.2375621635,-0.1942017815,0.0781072305,0.114638885833333,2179,"DG_s11",28.718,29.328,30.156,30.172,10,10,13,22,0.828,"Left",13,22,9,0,9,9,0,0,0,-9,"10-10",-3,-12,10,13,10,22
"96",11,"RIN3-RIN4",0.109473754,0.221796322,0.1994564022,0.171847986866667,0.0616469202,0.0817386682,0.1826384888,0.1566196868,0.0557614934666667,-0.00744576246666666,0.0060771622,0.127482015533333,0.124937116733333,0.384270640733333,0.494373854066667,0.488592972866667,0.356689512866667,0.215239071533333,0.186319758266667,0.0859822649333333,0.121223190266667,0.1513455342,0.208193007533333,0.1933718402,0.137247006866667,0.0332857568666667,-0.0104831098,0.0414989368666667,0.0705485686666667,0.103728209933333,0.0735538099333333,0.0919262481333333,0.2241252902,0.252222453533333,0.2752665802,0.2265874102,0.2950872722,0.306072002866667,0.302565039533333,0.2972666742,0.217975231533333,0.2673873182,2179,"DG_s11",28.718,29.328,30.156,30.172,10,10,13,22,0.828,"Left",13,22,9,0,9,9,0,0,0,-9,"10-10",-3,-12,10,13,10,22
"97",11,"LIN4-LIN5",0.0711476748666667,0.116865553533333,-0.0832448883333333,-0.153149669,-0.230353373,-0.222702609,-0.125591454333333,-0.146875119,-0.067988463,-0.0714954656666667,0.011873603,0.014383089,-0.101132643,-0.188294375,-0.328021514333333,-0.264771432333333,-0.192252240333333,-0.0954850936666667,-0.159706522333333,-0.160329589,-0.1300921194,-0.0587280327333333,-0.0132701927333333,-0.102511044666667,-0.0194549513333333,0.00740980933333332,0.0530755432,-0.00732633013333334,-0.125497033466667,-0.193666381666667,-0.275825875,-0.251210189,-0.204151503666667,-0.143737778333333,-0.193159565,-0.115563060333333,-0.110371343,-0.00945085366666668,-0.043416381,-0.0259929883333333,-0.149373625,-0.190169683666667,2179,"DG_s11",28.718,29.328,30.156,30.172,10,10,13,22,0.828,"Left",13,22,9,0,9,9,0,0,0,-9,"10-10",-3,-12,10,13,10,22
"98",11,"RIN9-RIN10",0.232404093166667,0.0802024145,0.1074675525,0.0628169178333333,0.213448117833333,0.208498335833333,0.224665791833333,0.257928371833333,0.420347191833333,0.293173117166667,0.230277611566667,0.0526690935666667,0.207527280233333,0.228228731166667,0.169166355833333,0.0749642598333333,0.1693807145,0.221771582166667,0.286899798166667,0.1335719055,0.0529493378333333,-0.0795077021666667,-0.0881291428333333,0.0127083838333333,0.150669193166667,0.232814282166667,0.110201364833333,0.159266688833333,0.159256626366667,0.374568090366667,0.342988557033333,0.2816242705,0.205049435166667,0.215592181166667,0.2933077545,0.255452173833333,0.2043510613,0.239856399966667,0.343465015966667,0.4382924625,0.370828413166667,0.372811897833333,2179,"DG_s11",28.718,29.328,30.156,30.172,10,10,13,22,0.828,"Left",13,22,9,0,9,9,0,0,0,-9,"10-10",-3,-12,10,13,10,22
"99",11,"LIN1-LIN2",0.0343167877,-0.0861447915666667,-0.0375888482333333,0.0752895517666667,0.186938364366667,0.0497271243666667,-0.0617876823,-0.0802297589666667,0.0400469077,0.1026001937,0.1465277337,0.0799197610333333,0.197920056366667,0.126354619246667,0.22962322818,0.307795553513333,0.365314387966667,0.3033354557,0.2486359237,0.285341370366667,0.270647607033333,0.183237244366667,0.00641031636666667,-0.0279076689666667,-0.1280867743,-0.231918292966667,-0.209737630966667,-0.0966093003,0.1972390997,0.218059665033333,0.219324326366667,0.0247579530333333,-0.0634779796333333,-0.114267476966667,-0.137546983633333,-0.1397258283,-0.1962521843,-0.104099881633333,0.00665957703333334,0.108456182366667,0.130432466366667,0.0951787043666667,2179,"DG_s11",28.718,29.328,30.156,30.172,10,10,13,22,0.828,"Left",13,22,9,0,9,9,0,0,0,-9,"10-10",-3,-12,10,13,10,22
"100",12,"RIN2-RIN3",-0.101488515833333,-0.107150515833333,-0.0844161618333333,-0.1460474245,0.000657482166666667,0.0333833015,-0.0365504751666667,-0.155736489166667,-0.239789779166667,-0.166906426366667,-0.145974578366667,-0.0115837217,0.3120894855,0.590975072166667,0.5989676393,0.288167217033333,0.0776552957,-0.0307242447666667,-0.00330126583333333,0.0977486815,0.0954179621666667,0.00476807083333333,-0.205991689166667,-0.2167230497,-0.156795628366667,-0.0982014143666667,-0.0986122318333333,-0.0777466271666667,0.0188089988333333,0.0248618828333333,-0.00540127783333333,-0.117431432153333,-0.10770930082,-0.118528097486667,-0.0908204851666667,-0.179000469833333,-0.241435923833333,-0.3330211685,-0.188430901166667,-0.0891464385,-0.0011500225,-0.0842745878333333,2180,"DG_s11",31.172,31.781,33.125,33.14,10,10,16,4,1.344,"Right",16,4,12,0,12,0,-12,0,0,12,"10-10",-6,6,16,10,4,10
"101",12,"RIN3-RIN4",-0.0798163231833333,-0.07393511185,0.228159301483333,0.214177695483333,0.399196375483333,0.175014195483333,0.17067606215,0.0529294114833333,0.04573581815,0.122587154816667,0.0843474980833333,0.10397059075,0.0533636674166667,0.17108254815,0.212993008816667,0.188045910816667,0.136409341483333,0.0714652754833333,0.119375906816667,0.12323425015,0.279067502816667,0.22849450355,0.155669386883333,0.0871638268833333,0.255948259483333,0.29346303495,0.248431541616667,0.263823541616667,0.262747495483333,0.15288743015,0.0505510234833333,0.0744153894833333,0.123731940816667,0.0248529328166667,-0.0276675525166667,0.0545517614833333,0.03857270915,-0.00169476858333333,-0.0762614281566667,0.00244102817666667,0.02949607491,0.0286926670166667,2180,"DG_s11",31.172,31.781,33.125,33.14,10,10,16,4,1.344,"Right",16,4,12,0,12,0,-12,0,0,12,"10-10",-6,6,16,10,4,10
"102",12,"RIN9-RIN10",-0.0753740026666667,-0.0975857746666667,-0.11571677,-0.137648431333333,-0.0759102813333333,-0.0429837353333333,-0.0102246829333333,0.0607722070666667,0.0958237174666667,0.144535153733333,0.0269340497333333,0.0606569793333333,-0.0133287974,0.0739751059333333,0.0161043859333333,-0.025854956,-0.139193375333333,-0.138277842,-0.0882341576533333,0.00374316901333334,0.184353380346667,0.145415138,0.0289877439333333,-0.189861468733333,-0.1871702574,-0.0740639166666667,-0.00297391066666666,0.00329752600000001,-0.101835287333333,-0.169239746,-0.173058698,-0.124129518666667,-0.011952656,-0.076174388,-0.08576972,-0.196052165333333,-0.13825061,-0.106505030666667,-0.0208248693333333,-0.058822886,-0.0370275033333333,-0.116299416666667,2180,"DG_s11",31.172,31.781,33.125,33.14,10,10,16,4,1.344,"Right",16,4,12,0,12,0,-12,0,0,12,"10-10",-6,6,16,10,4,10
"103",12,"LIN9-LIN10",0.37078231525,0.35649284325,0.0822070699166667,0.00651688391666667,0.04478316125,0.244297408583333,0.21478838125,0.154106406583333,0.164874952583333,0.278994385916667,0.231467109916667,0.0580781917833333,0.0913295917833333,0.134976823783333,0.09095327125,-0.00262199941666667,0.116141001916667,0.20908962325,0.162433113916667,0.0650442139166667,0.258644687916667,0.28646941945,0.224866804783333,0.09913270745,0.0309664585833333,0.14787751325,0.13693855925,0.243469989916667,0.145227946583333,0.12929255325,0.0886831799166667,0.00915053538333334,-0.139370644616667,-0.195684744616667,-0.20352909875,-0.0499443520833333,-0.0181907320833333,0.0137478985833333,-0.0738580760833333,-0.13862165675,-0.0958736254166667,-0.06075825075,2180,"DG_s11",31.172,31.781,33.125,33.14,10,10,16,4,1.344,"Right",16,4,12,0,12,0,-12,0,0,12,"10-10",-6,6,16,10,4,10
"104",12,"RIN1-RIN2",-0.152450317266667,-0.134316677266667,-0.1993580886,-0.269754327266667,-0.228259487266667,-0.1429729626,-0.0681060846,-0.0453852846,-0.0296908366,-0.0430952899333333,-0.105901779266667,0.0613069327333333,0.2194392594,0.3211668154,0.170837134066667,-0.00259565193333333,-0.0537464306,-0.0153676284,0.0213007562666667,0.0127659282666667,-0.0703955112666667,-0.249755843266667,-0.238792009933333,-0.318318533733333,-0.316655867066667,-0.4425102404,-0.4107028464,-0.2726312364,-0.274114389066667,-0.212011393266667,-0.179096561266667,-0.168483647933333,-0.0780753286,-0.215794911933333,-0.1522343546,-0.294620263266667,-0.1899289673,-0.231511946033333,-0.166348997366667,-0.120042615333333,-0.0833218426,-0.177091927266667,2180,"DG_s11",31.172,31.781,33.125,33.14,10,10,16,4,1.344,"Right",16,4,12,0,12,0,-12,0,0,12,"10-10",-6,6,16,10,4,10
"105",12,"LIN4-LIN5",0.206462126166667,0.200262930166667,0.204801768166667,0.124446303766667,0.0192392371,-0.0971800342333333,-0.0769134211666667,-0.0943034945,0.0149693855,0.0739684121,0.1543770481,0.0720256974333333,0.0384406341666667,0.1417681155,0.3015733415,0.3029892695,0.1990028335,0.0170753181666667,0.0429631155,0.0605101478333333,0.0124444078333333,-0.0769656281666667,-0.0405099125,0.152252860833333,0.2679477195,0.220191110833333,0.2026340775,0.0532075975,0.0614378361666667,-0.0415292425,0.0755031155,0.0925548655,0.155703590833333,0.155818152833333,0.1787682615,0.0930917468333333,-0.0185705798333333,-0.0752277665,-0.0347328679666667,-0.0313976473,-0.163140378633333,-0.170621563833333,2180,"DG_s11",31.172,31.781,33.125,33.14,10,10,16,4,1.344,"Right",16,4,12,0,12,0,-12,0,0,12,"10-10",-6,6,16,10,4,10
"106",12,"LIN2-LIN3",-0.0580570671666667,-0.00729800916666666,-0.0608103091666667,-0.0595879498333333,-0.1514079285,-0.140863829833333,-0.2319180385,-0.0980767851666667,-0.1403081705,-0.107365589833333,-0.137115015833333,0.2391975175,0.455109474166667,0.482670434166667,0.2878143675,0.157255090166667,0.1569395235,0.0714748068333333,0.0531687215666667,0.121947170233333,0.208122806966667,0.0816453455666667,-0.153913609766667,-0.251770643166667,-0.1902781765,-0.1485268785,-0.0785716571666667,-0.0624846018333333,-0.0680766598333333,-0.195715501166667,-0.193836665833333,-0.1295053065,-0.125404233166667,-0.0590478378333333,-0.0749589305,-0.0150606031666667,-0.0724506765,-0.0913025831666667,-0.0623919365,0.0268972481666667,-0.0315094385,0.0167246408333333,2180,"DG_s11",31.172,31.781,33.125,33.14,10,10,16,4,1.344,"Right",16,4,12,0,12,0,-12,0,0,12,"10-10",-6,6,16,10,4,10
"107",12,"LIN3-LIN4",-0.0608258736666667,0.0414001483333333,-0.0787149083333333,-0.123209730333333,-0.159691163666667,-0.076292313,-0.0662815836666667,-0.0416206723333333,-0.0191141456666667,-0.0265827343333333,0.129912959,0.152618879,0.366512038333333,0.309362585,0.294715431666667,0.0440049976666667,0.020137211,0.0275197376666667,0.219308805,0.157894482493333,0.09737774916,-0.0680141055066667,-0.0288049563333333,0.0978166903333333,0.191502144333333,0.100244649,-0.051852897,-0.177083057666667,-0.122747326333333,-0.180374623,-0.200276695,-0.246843645666667,-0.1058800032,-0.0276004731333333,-0.000215737800000004,-0.1350125776,-0.155763775,-0.159187549066667,-0.107307957066667,-0.0564872230666667,-0.120166618333333,-0.0130312243333333,2180,"DG_s11",31.172,31.781,33.125,33.14,10,10,16,4,1.344,"Right",16,4,12,0,12,0,-12,0,0,12,"10-10",-6,6,16,10,4,10
"108",12,"LIN1-LIN2",0.1544544625,0.259627181833333,0.0128634811666667,-0.0771881995,-0.217964680166667,-0.1677490395,-0.154552566166667,-0.0699940881666667,0.0247152398333333,0.0507742751666667,0.0897309111666667,0.251014909833333,0.3437986725,0.215648649833333,-0.00779278083333333,-0.1241794615,-0.0366907315,-0.000433460233333335,0.1133539671,0.167940726433333,0.392470885833333,0.3145597325,0.206819289833333,-0.0388314955,-0.0391591361666667,-0.106174450833333,-0.0557542947,-0.110434024033333,-0.0608187873666667,-0.0942637281666667,-0.100154658166667,-0.0668493535,-0.1647469835,-0.108621675166667,-0.1029790325,-0.0991090531666667,-0.1910233635,-0.225053488833333,-0.159568882166667,-0.0574589468333333,0.00341675716666667,0.112742495833333,2180,"DG_s11",31.172,31.781,33.125,33.14,10,10,16,4,1.344,"Right",16,4,12,0,12,0,-12,0,0,12,"10-10",-6,6,16,10,4,10
"109",13,"RIN3-RIN4",-0.0241912317816667,-0.0806383884483333,-0.093991587115,-0.0688898577816667,-0.101976808448333,-0.101778035781667,-0.0325658957816667,0.069348764885,0.233903812218333,0.129972038885,0.0408758315516667,-0.0942209721816667,0.00566578181833333,0.00120999315166666,0.0567815035516667,0.047199312885,0.00297247355166666,0.117675366885,0.117133284218333,0.054523972885,-0.00195446044833333,0.0199018822183333,0.0594933155516667,-0.073529931115,-0.127351120448333,-0.0995824364483333,-0.072845229915,-0.0133426632483333,0.054413540085,0.0264785335516667,-0.0340975457816667,-0.080378503115,0.0167327702183333,0.030898462885,-0.0342030857816667,-0.0362047057816667,-0.0525802857816667,0.0176937095516667,-0.0933904764483333,0.00284376935166666,-0.0592801626483333,-0.116190413315,2181,"DG_s11",34.14,34.75,35.468,35.484,10,10,8,11,0.718,"Left",8,11,3,0,3,3,0,0,0,-3,"10-10",2,-1,10,8,10,11
"110",13,"RIN9-RIN10",0.04090250605,0.0538941513833333,0.08752511205,0.02619967205,-0.0416668372833333,-0.05571407875,-0.01014847875,0.0852027465833333,0.130081686716667,0.22286710405,0.225178960716667,0.203562820716667,0.0188199167166667,-0.124225694616667,-0.20413293795,-0.0553906012833333,0.17395464005,0.34732889005,0.50366958005,0.347881749383333,0.207396769383333,0.0590821827166667,0.0225128187166667,-0.0335890726166667,-0.00819281195,0.10323631605,0.0976171027166667,0.0275734087166667,0.0648675807166667,0.18405984005,0.28204044005,0.212530226716667,0.188299938716667,0.13454210805,0.10187873405,0.000275860716666659,0.11703191805,0.0962707087166667,0.21811229785,0.148502904516667,0.286504934516667,0.21561825205,2181,"DG_s11",34.14,34.75,35.468,35.484,10,10,8,11,0.718,"Left",8,11,3,0,3,3,0,0,0,-3,"10-10",2,-1,10,8,10,11
"111",13,"LIN9-LIN10",0.268108884333333,0.399852972333333,0.305937667,0.156731148333333,0.167494927666667,0.0978095743333333,0.121987525666667,0.0766564683333333,0.229974089,0.117007861666667,0.123906841666667,0.0877432576666667,0.138543591,0.200664751,0.196794788333333,0.208267232333333,0.106451105666667,0.0343497236666667,0.102964334333333,0.0648263636666667,0.151901679,-0.0140964276666667,-0.0419819276,-0.0702410702666667,0.1776883764,0.229724422333333,0.100388915666667,0.0567932423333333,0.077049383,0.134805267933333,0.0760743772666667,0.0680748819333333,0.210875446333333,0.167534241,0.137630955666667,0.057374187,0.0278094843333333,0.023816833,-0.061022005,0.024080541,0.00722736033333334,-0.009764811,2181,"DG_s11",34.14,34.75,35.468,35.484,10,10,8,11,0.718,"Left",8,11,3,0,3,3,0,0,0,-3,"10-10",2,-1,10,8,10,11
"112",13,"RIN1-RIN2",0.0902996086666667,0.135867904,0.0501846506666667,0.075299246,0.131106686866667,0.203958684866667,0.252946213533333,0.244977979333333,0.381966462666667,0.260899993333333,0.176335531333333,0.074230938,0.123867123333333,0.290223220666667,0.293039769333333,0.279014339333333,0.307831308666667,0.413026026666667,0.475987270666667,0.420954288666667,0.309685395333333,0.309030097333333,0.129675059333333,0.109935284666667,0.086044577,0.163417167666667,0.170814662333333,0.118482088,0.178814448,0.254821448,0.314314586666667,0.287361511866667,0.287591287866667,0.298776296533333,0.357721074,0.324642124666667,0.344015626,0.296553617333333,0.268662386666667,0.144911092,0.142807428,0.057085518,2181,"DG_s11",34.14,34.75,35.468,35.484,10,10,8,11,0.718,"Left",8,11,3,0,3,3,0,0,0,-3,"10-10",2,-1,10,8,10,11
"113",13,"RIN2-RIN3",0.0662503713333333,0.102396588193333,0.0222571701933333,0.00841258832666666,-0.0427195196733333,0.01120695166,0.0218060263266667,0.0159436983266667,0.0133875107266667,0.0174717807266667,0.0243705607266667,0.0477353423266667,0.0158044049933333,0.0129362743266667,0.0505562803266667,0.150684560326667,0.289888390326667,0.362186296993333,0.218265416326667,0.154831122993333,0.240089302993333,0.342788711993333,0.214004806526667,-0.0206696611933333,-0.0381547009266667,-0.0196006067933333,0.0142221249266667,-0.03590247234,-0.0455283726066667,0.0588514967266667,0.108217121926667,0.19753487686,0.09063935086,0.06842864166,-0.04267821434,-0.0913690952733333,-0.132488233273333,-0.17774834394,-0.0996790816733333,-0.152953811673333,-0.01944498634,-0.08631524834,2181,"DG_s11",34.14,34.75,35.468,35.484,10,10,8,11,0.718,"Left",8,11,3,0,3,3,0,0,0,-3,"10-10",2,-1,10,8,10,11
"114",13,"LIN2-LIN3",-0.04508203725,-0.183663399916667,-0.11179764325,-0.13934193925,-0.127849001916667,-0.14143040725,-0.22758656725,-0.283519534583333,-0.310426474583333,-0.25613450125,-0.197238732663333,-0.118944125996667,-0.0189993259966667,0.0178071680833333,-0.0618575085833333,-0.128896704583333,-0.132058629916667,-0.0353289199166667,-0.00202228391666667,0.0419769114166667,0.0176293600833333,-0.02326373725,-0.0326532965833333,-0.0267593033166667,0.112109714016667,0.105477958683333,0.173627190083333,0.07479967675,-0.00991035705000001,-0.113377450383333,-0.12773848505,-0.0421823399166667,-0.06568465325,-0.12588035325,-0.219813572583333,-0.30824077925,-0.249973884583333,-0.15736657685,-0.0988688455166667,-0.0462512655166667,-0.10768364325,-0.0188249159166667,2181,"DG_s11",34.14,34.75,35.468,35.484,10,10,8,11,0.718,"Left",8,11,3,0,3,3,0,0,0,-3,"10-10",2,-1,10,8,10,11
"115",13,"LIN3-LIN4",-0.226969111116667,-0.197863086516667,-0.07798221585,0.0403553454833333,0.107121368616667,0.0914518752833333,0.15250345395,0.03254393995,-0.0799673703166667,-0.219016112116667,-0.211121026783333,-0.24094107965,-0.24389979985,-0.328863347183333,-0.26951394405,-0.24915044205,-0.09164440205,-0.0448354507166667,-0.0367062107166667,-0.06062732605,-0.11253218405,-0.198536290716667,-0.17465070205,-0.0858663473833333,-0.111657854716667,-0.12786371805,-0.248608042716667,-0.13757030205,-0.19857832205,-0.15274219405,-0.193856305383333,-0.107242948716667,-0.11565312445,-0.0959756631166667,-0.266271729783333,-0.298882901383333,-0.291100404716667,-0.12886443805,-0.172919923383333,-0.133963776716667,-0.21974435205,-0.20905137005,2181,"DG_s11",34.14,34.75,35.468,35.484,10,10,8,11,0.718,"Left",8,11,3,0,3,3,0,0,0,-3,"10-10",2,-1,10,8,10,11
"116",13,"LIN4-LIN5",0.0714662199,0.0467358001666667,0.0499248528333333,0.173676496166667,0.142176448833333,0.0372595626333333,-0.0210427373666667,0.0501397623666667,0.1572586619,0.109455905233333,0.104171514166667,0.0015084195,0.000750238166666667,-0.0518513527,0.0153010579666667,0.0507939793,0.195330984166667,0.249148140833333,0.338276924166667,0.184406466166667,0.147427220166667,0.1452386415,0.282016730833333,0.227400744166667,0.1752533695,0.141454018833333,0.301527860833333,0.3460275875,0.2464737695,0.0234461941666667,-0.0657650925,-0.1021445105,0.00400124016666666,-0.0536186445,-0.0685423638333333,-0.0831451872333333,0.111446899766667,0.2449906951,0.262916867833333,0.173102732166667,0.125411198166667,0.0302523023666667,2181,"DG_s11",34.14,34.75,35.468,35.484,10,10,8,11,0.718,"Left",8,11,3,0,3,3,0,0,0,-3,"10-10",2,-1,10,8,10,11
