"","trial","electrodes","bin_3","bin_4","bin_5","bin_6","bin_7","bin_8","bin_9","bin_10","bin_11","bin_12","bin_13","bin_14","bin_15","bin_16","bin_17","bin_18","bin_19","bin_20","bin_21","bin_22","bin_23","bin_24","bin_25","bin_26","bin_27","bin_28","bin_29","bin_30","bin_31","bin_32","bin_33","bin_34","bin_35","bin_36","bin_37","bin_38","X","SID","newround_time","choice_time","buttonpress_time","reveal_time","self_payoff","other_payoff","self_foregone","other_foregone","RT","side_chosen","self_var_payoff","other_var_payoff","ineq_var_abs","ineq_choice_abs","ineq_foregone_abs","ineq_disadvent","ineq_advent","ineq_choice","chose_equality","self_diff","other_diff","L_self","R_self","L_other","R_other"
"1",1,"LIN2-LIN3",0.05090119065,-0.00593913268333333,0.0705286805833333,0.10260662325,0.17832230325,0.180021697983333,0.235913711316667,0.16775867665,0.05421835865,-0.0202453480166667,-0.0518040146833333,-0.0510014366833333,-0.102983926016667,0.0464618219833333,-0.00565692468333333,-0.0681341486833333,-0.22400031535,-0.06893051535,0.00278616065,0.00318714465,-0.169958642016667,-0.0677563846833333,-0.0390123980166667,0.03509074465,-0.0990908280166667,0.00643540131666667,0.0625906477833333,0.03868892045,-0.05617372715,-0.000626756283333328,0.175447783716667,0.279403189316667,0.110955961983333,0.0324894173166667,0.0183671659833333,0.07384054665,2169,"DG_s11",-0.61,0,2.015,2.031,10,10,10,18,2.015,"Left",10,18,8,0,8,8,0,-8,"10-10",0,-8,10,10,10,18
"2",1,"LIN9-LIN10",-0.0147234761666667,0.0300620458333333,-0.0315363855,0.0533370018333333,0.0343594031666667,0.0580438965,0.0459618275,0.109924114833333,0.157714489833333,0.120210838833333,0.0676133388333333,0.175495893166667,0.146476693166667,0.200749853166667,0.0542913598333333,0.0203621265,-0.0940331281666667,-0.0204470612333333,0.279900778766667,0.414622570766667,0.430021197166667,0.304354857166667,0.285459753166667,0.373192413166667,0.789777493166667,0.953893103833333,0.931933537166667,0.4389148005,0.372216393833333,0.286916735166667,0.331050925166667,0.275648027166667,0.290103165833333,0.242932413166667,0.267902952766667,0.301547488766667,2169,"DG_s11",-0.61,0,2.015,2.031,10,10,10,18,2.015,"Left",10,18,8,0,8,8,0,-8,"10-10",0,-8,10,10,10,18
"3",1,"LIN3-LIN4",0.508339018133333,0.5691709048,0.505096351466667,0.2857956408,0.350350059466667,0.334598966133333,0.394545440133333,0.2823321228,0.286595485466667,0.1690072088,0.0398076774666667,0.0464509081333333,0.165213707466667,0.2977747188,0.2045241588,0.285154818133333,0.267607312133333,0.520273752133333,0.391751793466667,0.346569771466667,0.169781338133333,0.230190511466667,0.189803378133333,0.155696410133333,0.0775543868,0.1268801288,0.117260759,0.0958500956666667,0.0791181483333333,0.123901558133333,0.303315645466667,0.3343016108,0.277833885533333,0.189434150866667,0.211671997533333,0.2286109528,2169,"DG_s11",-0.61,0,2.015,2.031,10,10,10,18,2.015,"Left",10,18,8,0,8,8,0,-8,"10-10",0,-8,10,10,10,18
"4",1,"RIN9-RIN10",0.232360122333333,0.230878195666667,0.0803471763333333,-0.00362047833333333,-0.187066525,-0.165465913666667,-0.206601469,-0.142163277,0.0101879996666667,0.133544548333333,0.154292523,0.0552312962643333,-0.006595989069,-0.00151258040233333,-0.0334330736666667,-0.0723956303333333,-0.117949345666667,-0.114134815666667,-0.0693775476666667,-0.124150374333333,-0.0968011763333333,-0.0925302783333333,0.0143781836666667,-0.0355615463333333,0.512357422333333,0.637292527,0.757695357666667,0.185760051,0.105534036333333,0.110622781666667,0.137649943466667,0.255642811466667,0.1924498488,0.140141987,-0.0169119956666667,-0.037522676,2169,"DG_s11",-0.61,0,2.015,2.031,10,10,10,18,2.015,"Left",10,18,8,0,8,8,0,-8,"10-10",0,-8,10,10,10,18
"5",1,"LIN4-LIN5",0.0890979533333333,0.169175106666667,0.0728455693333333,-0.040981584,-0.0839181324666667,-0.0438888821266667,-0.03129092346,-0.02683436166,0.0349973853333333,0.150046203333333,0.143064903333333,0.111366574666667,-0.00570521933333333,0.0563545186666667,0.135274727333333,0.167082642,0.126587912,0.0414925726666667,-0.0250691793333333,0.083491126,0.113971458666667,0.173460781333333,-0.015641192,0.0414711946666667,0.04869181,0.0792325033333333,-0.0440569510666667,-0.0581599093333333,-0.057737313,-0.0296785726,0.133044471266667,0.348615574933333,0.3406848946,0.333726015666667,0.247736161,0.215665613866667,2169,"DG_s11",-0.61,0,2.015,2.031,10,10,10,18,2.015,"Left",10,18,8,0,8,8,0,-8,"10-10",0,-8,10,10,10,18
"6",1,"RIN1-RIN2",-0.0679642551666667,-0.180438561833333,-0.175142445833333,-0.155458921833333,-0.190614821833333,-0.1760025925,-0.0152704458333334,0.0630089408333333,0.0931615781666666,0.1661463315,0.0716971448333333,0.00815381663333331,-0.250649350033333,-0.240482757366667,-0.0257106125,-0.157313245833333,-0.0672304151666667,-0.139140205166667,-0.0496056445,-0.198007033166667,-0.1985432665,-0.129088797833333,-0.0847681725,-0.272070257166667,-0.2750488245,-0.299178109833333,-0.227829623166667,-0.214750503166667,-0.261322169833333,-0.174293025166667,-0.220251151166667,-0.129651141833333,-0.211189131166667,-0.164894641833333,-0.202340909833333,-0.2281104581,2169,"DG_s11",-0.61,0,2.015,2.031,10,10,10,18,2.015,"Left",10,18,8,0,8,8,0,-8,"10-10",0,-8,10,10,10,18
"7",1,"RIN3-RIN4",0.100150398533333,0.1039229192,0.135703213,0.0766160671333333,0.0274235738,0.00251083,0.118735734,0.0811426873333333,0.00698188666666667,0.02892004,0.061865034,0.0666422782,0.0116138182,0.0534014729333333,0.1743653206,0.0727221163333333,0.0333094609333333,0.0105234330666667,0.127719088933333,0.131254784933333,0.0029434696,0.0701514446666667,0.073018374,0.0988297226666667,-0.0546219493333333,-0.0957940578666667,-0.1377300312,-0.168357235866667,-0.130307998666667,-0.056064476,0.011651872,0.228532538,0.267041820666667,0.291338714666667,0.127415078666667,0.0495103106666667,2169,"DG_s11",-0.61,0,2.015,2.031,10,10,10,18,2.015,"Left",10,18,8,0,8,8,0,-8,"10-10",0,-8,10,10,10,18
"8",1,"RIN2-RIN3",0.0310920567,-0.0297957461666667,0.0573281178333333,0.0180405311666667,0.144060259166667,0.367303259166667,0.2779492145,0.214371303833333,-0.0453867161666667,0.108604401833333,0.0885130891666667,-0.0094238375,-0.251047678833333,-0.3039396235,-0.204838472966667,-0.141371304966667,-0.106467015633333,0.1940782205,0.284911681833333,0.359133601166667,0.0247320971666667,-0.0111303235,-0.112749998833333,-0.0995046888333333,-0.194502375233333,-0.1847476139,-0.245567526566667,-0.2005551815,-0.2297707815,-0.1425950815,-0.204666760833333,-0.0829948761666667,-0.1632453017,-0.148194123033333,-0.2809858997,-0.266344352166667,2169,"DG_s11",-0.61,0,2.015,2.031,10,10,10,18,2.015,"Left",10,18,8,0,8,8,0,-8,"10-10",0,-8,10,10,10,18
"9",1,"LIN1-LIN2",0.0241816855,0.0209238841666667,-0.0482039245,-0.109093357833333,-0.1581544625,-0.0522272231666667,-0.0329676698333333,-0.119462697166667,-0.3276366905,-0.345067155833333,-0.223284195833333,-0.119739549166667,-0.0973858458333333,-0.162893075166667,-0.1797695937,-0.2158528517,-0.2327198697,-0.135475591166667,-0.0397490418333333,0.00464908883333334,-0.0880029337,-0.123738423033333,-0.0673227063666667,0.00120822283333336,0.0356487828333333,0.0896554768333334,0.0641143168333334,0.0456362368333333,-0.0948336591666667,-0.1557131965,-0.0788696298333333,-0.0649333025,-0.0781540765,-0.2230185705,-0.181250555166667,-0.1575434625,2169,"DG_s11",-0.61,0,2.015,2.031,10,10,10,18,2.015,"Left",10,18,8,0,8,8,0,-8,"10-10",0,-8,10,10,10,18
"10",2,"LIN9-LIN10",-0.0453730676666667,-0.0891972143333333,-0.197668104333333,-0.207135737666667,-0.187454191,-0.105112394333333,-0.020042823,0.013344417,0.108277587,-0.0170253416666667,-0.0556100823333333,-0.204262135666667,-0.231166422333333,-0.252984313666667,-0.226729207,-0.0368029423333333,0.013977925,0.211539471666667,0.213983149,0.134691972333333,-0.176436514333333,-0.0865871743333333,-0.0315141583333333,0.040728655,-0.211479579666667,-0.167445467666667,-0.155116673666667,-0.114300411666667,-0.0681535743333333,-0.092376299,0.0295598003333333,-0.093781185,0.039210879,0.080596079,0.0197952896666667,-0.0340184556666667,2170,"DG_s11",3.031,3.64,4.797,4.812,12,12,10,10,1.157,"Left",12,12,0,0,0,0,0,0,"Equal",2,2,12,10,12,10
"11",2,"RIN2-RIN3",-0.163897625716667,-0.31939108305,-0.48236122305,-0.538336011716667,-0.626931227716667,-0.477169401716667,-0.294239968383333,-0.23411821505,-0.366155443716667,-0.507713070116667,-0.461984784783333,-0.48152834945,-0.531066628383333,-0.614121120383333,-0.606673196383333,-0.504718818383333,-0.351656999983333,-0.43707291065,-0.496638133316667,-0.513293031716667,-0.366485015716667,-0.20591719905,-0.26937224905,-0.245423011716667,-0.232986278383333,-0.05994969505,-0.130124360383333,-0.28214792705,-0.476665536383333,-0.41925209505,-0.358547521716667,-0.279055885716667,-0.249370991716667,-0.310570284383333,-0.37083166105,-0.453544675716667,2170,"DG_s11",3.031,3.64,4.797,4.812,12,12,10,10,1.157,"Left",12,12,0,0,0,0,0,0,"Equal",2,2,12,10,12,10
"12",2,"LIN3-LIN4",0.226805577866667,0.103873174533333,0.0818223015333333,0.0108022936666667,-0.000221685666666659,-0.046472927,-0.0171946723333333,0.215312907,0.397255261666667,0.330308110333333,0.0374490436666667,-0.161017609933333,-0.1040140666,-0.0090230026,0.032997257,-0.0307379656666667,0.0496412983333333,0.0336750232,0.225467949866667,0.3221876052,0.393772315666667,0.383866975666667,0.191931480333333,0.109312132333333,0.102252519,0.0946584443333333,0.0501626883333333,-0.130113779666667,-0.141870987666667,-0.180398118333333,-0.198210543666667,-0.114543073666667,-0.0349464207333333,0.183328685933333,0.0665018572666667,0.074889729,2170,"DG_s11",3.031,3.64,4.797,4.812,12,12,10,10,1.157,"Left",12,12,0,0,0,0,0,0,"Equal",2,2,12,10,12,10
"13",2,"LIN4-LIN5",-0.229244627,-0.240934693666667,-0.241118663666667,-0.180521624333333,-0.167278230133333,-0.163211365106667,-0.14966048444,-0.130300634506667,-0.0546066762,0.0928009904666666,0.090972421,-0.115583539,-0.178066823666667,-0.0660357316666667,0.0577750263333333,0.0603855416666667,0.0786393816666666,0.0388405723333334,-0.142648825,-0.2817029654,-0.257179900733333,-0.211954918733333,-0.138097698333333,-0.0783343423333333,-0.0266952602,-0.0387726868666667,-0.0443996962,-0.0231738456666667,0.087453521,0.018725291,-0.051442877,-0.165669747066667,-0.226937213066667,-0.2162836864,-0.2932882722,-0.2498485682,2170,"DG_s11",3.031,3.64,4.797,4.812,12,12,10,10,1.157,"Left",12,12,0,0,0,0,0,0,"Equal",2,2,12,10,12,10
"14",2,"RIN9-RIN10",-0.0649297296933333,-0.15010990036,-0.0720083116933333,-0.147014557093333,-0.231212063093333,-0.33193228776,-0.283387097026667,-0.25841115436,-0.312338847026667,-0.258383415026667,-0.17885229636,-0.02420591236,-0.0182177450266666,-0.0809117936933333,-0.182372126293333,-0.250422892293333,-0.188978083626667,-0.158410025026667,-0.153165030026667,-0.235316448026667,-0.155217857513333,0.114446109486667,0.125492827486667,0.12060645164,-0.173148209693333,-0.05201785436,-0.15875873036,-0.106752603026667,-0.15698575636,-0.0767796610266667,-0.14564465636,-0.273044043626667,-0.222315870293333,-0.218460703626667,-0.160328499693333,-0.242812001026667,2170,"DG_s11",3.031,3.64,4.797,4.812,12,12,10,10,1.157,"Left",12,12,0,0,0,0,0,0,"Equal",2,2,12,10,12,10
"15",2,"LIN2-LIN3",-0.00922551583333333,0.0650222701666667,0.0877240253,0.0360648615666667,0.0495421022333333,0.0151250957666667,0.0125275581666667,0.00784139683333334,0.0446310521666667,0.1598714575,0.0940621088333333,0.0137528188333333,-0.0809422198333333,-0.101665581166667,-0.0466209333,-0.109726527966667,-0.0449917279666667,-0.0523794985,0.0845035948333333,0.234266728166667,0.264242818833333,0.166654608833333,-0.0185082498333333,-0.0353192305,0.0541076841666667,0.0406499095,-0.0029366965,0.00511083676666667,0.0741068327666667,0.149327389433333,0.1897141875,0.160754876166667,0.1418603295,0.0481250401666667,0.0251789308333333,0.0792933741666667,2170,"DG_s11",3.031,3.64,4.797,4.812,12,12,10,10,1.157,"Left",12,12,0,0,0,0,0,0,"Equal",2,2,12,10,12,10
"16",2,"RIN3-RIN4",-0.139351876566667,-0.210118117233333,-0.3217653859,-0.3800122145,-0.411404405166667,-0.2421690205,-0.2331885365,-0.0357537578333333,-0.0458343538333334,0.0494754121666666,-0.0372026611666667,-0.128613823833333,-0.242964383166667,-0.312078951833333,-0.365047369166667,-0.262448527166667,-0.3135163185,-0.288120907166667,-0.359004285833333,-0.3323232935,-0.2518566435,-0.1965003083,-0.0614949539666667,-0.0639973170333334,0.0409361044333333,-0.0506285769,-0.127164048033333,-0.253043386713333,-0.252281558046667,-0.212708333846667,-0.2473445085,-0.2220636587,-0.251645797366667,-0.273145424033333,-0.311115737833333,-0.368132049833333,2170,"DG_s11",3.031,3.64,4.797,4.812,12,12,10,10,1.157,"Left",12,12,0,0,0,0,0,0,"Equal",2,2,12,10,12,10
"17",2,"LIN1-LIN2",-0.0333831677,0.0101451205,-0.0850732268333333,-0.147913082166667,-0.1560617159,-0.0595040799,-0.0808944325666667,-0.142021418833333,-0.165961598166667,-0.112565832833333,-0.141615158166667,-0.197467586833333,-0.1559411895,-0.0845094241666667,0.0064771579,-0.0757983547666667,-0.0579619534333333,-0.135071388633333,-0.0300957739666667,0.0146368047,0.0201516898333333,-0.0657271641666667,-0.172580730833333,-0.0516351855,0.0326958405,0.140275547166667,0.107168409833333,0.0047534505,-0.0451112921666667,-0.0668526328333333,0.0322237145,0.0148258818333333,0.0721900611666667,-0.000720011500000006,0.0246764751666667,0.0919892671666667,2170,"DG_s11",3.031,3.64,4.797,4.812,12,12,10,10,1.157,"Left",12,12,0,0,0,0,0,0,"Equal",2,2,12,10,12,10
"18",2,"RIN1-RIN2",-0.260935297666667,-0.194478267066667,-0.123306773733333,0.0382755416666667,-0.0115011489333333,-0.102684534933333,-0.292974659,-0.337103597666667,-0.224478871666667,-0.0610412916666667,0.00676575566666668,-0.0778540676666667,-0.0956292423333333,-0.137051763666667,-0.0958738176666667,0.044770657,0.266775018,0.128798281333333,-0.100522256,-0.259822789,-0.172401848333333,-0.113051550333333,-0.192552224333333,-0.319756631,-0.400444759666667,-0.364855427,-0.285838221933333,-0.267185679933333,-0.226621213933333,-0.237327561666667,-0.215683306333333,-0.255428711666667,-0.186458333666667,-0.193533846333333,-0.157798531,-0.212203725,2170,"DG_s11",3.031,3.64,4.797,4.812,12,12,10,10,1.157,"Left",12,12,0,0,0,0,0,0,"Equal",2,2,12,10,12,10
"19",3,"RIN1-RIN2",0.159545899466667,0.113761216133333,0.1262438308,0.176510884133333,0.160644096133333,0.139063764133333,0.0784236734666667,0.0995961599333333,0.121732899933333,0.175885301266667,0.2223145028,0.246716456133333,0.1855195528,0.1053704968,0.0319392368,-0.0290479172,-0.154903957866667,-0.0023134112,0.159788902133333,0.282552645466667,0.1431199428,0.0113449461333333,-0.0445428325333333,-0.0319152712,0.0994645854666667,0.468060644133333,0.543937526133333,0.5274645728,0.157975219466667,0.2189562588,0.203329091466667,0.256107898133333,0.2595459048,0.212792894733333,0.276225428066667,0.153888966066667,2171,"DG_s11",5.812,6.422,7.89,7.89,10,10,8,8,1.468,"Left",8,8,0,0,0,0,0,0,"10-10",2,2,10,8,10,8
"20",3,"LIN2-LIN3",-0.152071975,0.075706359,0.172827257,0.27990376926,0.174329383926667,0.150931129993333,0.169969921733333,0.215567553733333,0.242114764333333,0.3220308692,0.3985410492,0.5248792092,0.366030284333333,0.247904499,0.134594517,0.135385737,0.146108178333333,0.0503195743333333,0.0384823963333333,-0.104331967666667,-0.0940544660666666,-0.0469416920666667,0.0521174159333333,0.059602861,0.0237068876666667,-0.0490300456666667,0.171986867666667,0.259325380333333,0.297310833666667,0.149863292333333,0.102677687666667,0.196101583,0.176424924333333,0.180279647,0.0631278676666667,0.056226695,2171,"DG_s11",5.812,6.422,7.89,7.89,10,10,8,8,1.468,"Left",8,8,0,0,0,0,0,0,"10-10",2,2,10,8,10,8
"21",3,"RIN3-RIN4",0.0431079964,0.0409080938666667,0.00610892166666667,-0.0354127723333333,-0.11936554564,-0.16407824624,-0.0759326509066667,-0.00326817093333333,-0.0470754583333333,-0.177095879,-0.101867574333333,0.032161941,0.131581623,0.057846883,0.00937767700000001,-0.0515576802666667,-0.0225623196,-0.0282884456,0.124127856333333,0.139090515666667,0.181715587,-0.0209854596666667,-0.00507822633333333,-0.033507893,0.00763560893333334,-0.0424038697333333,-0.0572097037333333,0.0355010943333333,0.0623948383333333,0.0416921976666667,0.109737251666667,0.125767114333333,0.1905765932,0.0274399271333333,0.179956340466667,0.176120922933333,2171,"DG_s11",5.812,6.422,7.89,7.89,10,10,8,8,1.468,"Left",8,8,0,0,0,0,0,0,"10-10",2,2,10,8,10,8
"22",3,"RIN2-RIN3",0.301025041893333,0.269808307226667,0.263576677926667,0.170534683266667,0.1052847426,0.0412792011666667,0.0970067341933333,0.157599141526667,0.146164938526667,0.1567967915,0.255306684833333,0.3400362799,0.3940670007,0.260426645366667,0.269118477366667,0.1849172799,0.0621433685666667,0.0749358092333333,0.1124918999,0.349833973233333,0.400555732566667,0.40713765388,0.35520445388,0.26482002788,0.207769154566667,0.238728414566667,0.3463908339,0.4604947279,0.375627201233333,0.307737274566667,0.264766742566667,0.236706991233333,0.230792652566667,0.2393790339,0.350453078566667,0.2365916921,2171,"DG_s11",5.812,6.422,7.89,7.89,10,10,8,8,1.468,"Left",8,8,0,0,0,0,0,0,"10-10",2,2,10,8,10,8
"23",3,"LIN9-LIN10",0.0939503618333333,0.102293157973333,0.18917878264,0.0261946773066667,0.0933313345,0.0973995525,0.0885282431666667,0.0782937298333333,-0.00951713950000001,0.0889778418333333,0.0241589151666667,0.170208631166667,0.294927557833333,0.297086157833333,0.323134035833333,0.0510612805,-0.0351133868333333,-0.147202714833333,-0.0484536435,-0.0498536761666667,-0.1300357955,-0.162729178166667,0.0532862818333333,0.220691667833333,0.220880023833333,0.245975777166667,0.2874488505,0.3745370845,0.383704811166667,0.333663165833333,0.1543673425,0.135333669166667,0.0860914185,0.1273892125,0.0675494725,0.0866389558333333,2171,"DG_s11",5.812,6.422,7.89,7.89,10,10,8,8,1.468,"Left",8,8,0,0,0,0,0,0,"10-10",2,2,10,8,10,8
"24",3,"RIN9-RIN10",0.41251161965,0.302143184316667,0.194458370316667,0.11169592165,0.199127130316667,0.274446838183333,0.31464855485,0.14760409485,0.199437954983333,0.17418111165,0.24265640565,0.242035524316667,0.30086604965,0.272005096983333,0.24693114165,0.22601945765,0.211545336716667,0.09820953405,0.09668780805,0.0760152369833333,0.08119377165,0.02152906965,0.11755241365,0.12872685665,0.144313245983333,0.0365055537833333,0.0275596901166667,0.0486100967833333,0.125072018983333,0.171419722983333,0.29166864165,0.312192836716667,0.420850952716667,0.38513782005,0.347465690983333,0.274535850316667,2171,"DG_s11",5.812,6.422,7.89,7.89,10,10,8,8,1.468,"Left",8,8,0,0,0,0,0,0,"10-10",2,2,10,8,10,8
"25",3,"LIN4-LIN5",-0.251508507466667,-0.223359281466667,-0.195054190333333,-0.291097913666667,-0.311644769666667,-0.322326143,-0.205595190333333,-0.203817585,-0.199102884333333,-0.164293801,-0.121585786333333,-0.206717741666667,-0.194371409,-0.203747839666667,-0.246432941,-0.389794395666667,-0.463374880333333,-0.3340588026,-0.3033010366,-0.365903219266667,-0.402458326333333,-0.320186098333333,-0.218542552333333,-0.116022846333333,-0.189476405666667,-0.249636095933333,-0.0833002159333333,0.0311140020666666,-0.01223192328,-0.38384248328,-0.41180237908,-0.295024894533333,-0.230959381866667,-0.241931043733333,-0.28107789,-0.234412616,2171,"DG_s11",5.812,6.422,7.89,7.89,10,10,8,8,1.468,"Left",8,8,0,0,0,0,0,0,"10-10",2,2,10,8,10,8
"26",3,"LIN3-LIN4",-0.0657315206166667,-0.00775016394999999,-0.0455455066166667,-0.0509320230833333,0.00442714025,0.142246295583333,0.199738783383333,0.37314773005,0.200765000716667,0.27673399205,0.216385825383333,0.31344033205,0.257782979383333,0.201633404716667,0.115030257383333,0.23789081005,0.191193117383333,0.17610169405,0.00139941738333334,-0.0366573226166667,0.000371968050000004,-0.0562879232833333,0.0344210965833333,0.0471826045833333,0.12109684805,0.0730681961833333,0.139787779243333,0.303803103776667,0.30829188511,0.229016839383333,0.0337739653833333,0.0985110747166667,0.0773560467166667,0.130148201383333,0.10104787005,0.218067186716667,2171,"DG_s11",5.812,6.422,7.89,7.89,10,10,8,8,1.468,"Left",8,8,0,0,0,0,0,0,"10-10",2,2,10,8,10,8
"27",3,"LIN1-LIN2",0.072454373455,0.0762625881216667,0.063800380255,-0.0231523124116667,0.0330156955883333,0.00220621492166667,0.0737136629216667,0.0476622095883333,0.116615208255,0.152516736921667,0.221632910255,0.303632320921667,0.334825462255,0.329905508921667,0.315748191588333,0.260522985388333,0.149233162721667,0.049083666055,0.165211557588333,0.217237126921667,0.335000227588333,0.304076927588333,0.299599720921667,0.251945131588333,0.201294538255,0.209404338255,0.330399100921667,0.286869495466333,0.217494723466333,0.0322587634663333,-0.018109929745,-0.0156624714783333,0.00971798118833334,0.075670537655,0.0719072553883333,0.186247829388333,2171,"DG_s11",5.812,6.422,7.89,7.89,10,10,8,8,1.468,"Left",8,8,0,0,0,0,0,0,"10-10",2,2,10,8,10,8
"28",4,"LIN1-LIN2",-0.0803096715,-0.00440441549999999,-0.0122988735,-0.0988807121666667,-0.1732243875,-0.154173958166667,-0.225832840833333,-0.163348178566667,-0.0902440219,-0.0213478419,-0.0749217848333333,-0.0842382315,-0.155905224833333,-0.0626599295,-0.0827853028333333,0.0282725931666667,0.00624068983333334,-0.0313266235,-0.0408901768333333,-0.106078390166667,-0.1460389075,-0.0515803901666667,0.0629945278333333,0.186194237166667,0.0970588931,-0.0189982967,-0.0798942307,-0.0819248413,-0.0427623755,-0.0107235641666667,0.0172929905,0.0255653145,-0.133925788166667,-0.1748031655,-0.1296059911,-0.0223365035,2172,"DG_s11",8.89,9.5,10.922,10.922,10,10,28,4,1.422,"Right",28,4,24,0,24,0,-24,24,"10-10",-18,6,28,10,4,10
"29",4,"LIN9-LIN10",0.130905689316667,0.253312561316667,0.12413457865,0.113703399983333,-0.0219508760166667,-0.127694404016667,-0.09569899935,-0.0252151900166667,0.270658743316667,0.37332145465,0.311969387983333,0.151809065316667,0.0294666453166667,0.102171185983333,0.14922035665,0.27081193665,0.319857059316667,0.41728734465,0.32921540865,0.389334993983333,0.31294064065,0.381570783316667,0.431219521316667,0.36517711905,0.297477972383333,0.195035692383333,0.29312601465,0.32182729365,0.226586422316667,0.115922632316667,0.0108337733166667,0.0460791933166667,0.0274855033166667,0.0347320133166667,-0.0912324486833333,0.01446570065,2172,"DG_s11",8.89,9.5,10.922,10.922,10,10,28,4,1.422,"Right",28,4,24,0,24,0,-24,24,"10-10",-18,6,28,10,4,10
"30",4,"LIN4-LIN5",-0.1326317138,-0.103880475,-0.250217289,-0.372931355,-0.417490690333333,-0.325467665333333,-0.252726425333333,-0.0945699553333333,-0.106743593666667,-0.0185491043333333,-0.0256692663333333,0.0916344636666667,0.111404232333333,0.0544565323333333,-0.0100656962,-0.0511812215333333,-0.00318704619999999,-0.0186707676666667,-0.00751137473333333,-0.0851866827333333,-0.0521387654,-0.145604748333333,-0.0817695023333333,-0.151340646333333,-0.0823241436666667,-0.161978275,-0.036712615,-0.0345642543333333,-0.00599622766666666,-0.0913631083333333,-0.0834973616666667,0.0419623516666667,0.111243263,0.182452783,0.0997638776666667,0.0688394843333333,2172,"DG_s11",8.89,9.5,10.922,10.922,10,10,28,4,1.422,"Right",28,4,24,0,24,0,-24,24,"10-10",-18,6,28,10,4,10
"31",4,"LIN2-LIN3",0.169084416483333,0.194202882283333,0.145348746283333,0.147396146416667,0.149696819083333,0.0634611270833333,0.0834186750833333,0.251823600416667,0.34313128575,0.281094418416667,0.160290857083333,0.330683725083333,0.275511954416667,0.23039028575,0.0694272744166667,0.206661506416667,0.207045236416667,0.25403542775,0.158030743283333,0.154148915283333,0.06558977995,0.0964396764166666,0.0260666844166667,0.0205336530833333,0.187400554416667,0.380016234416667,0.519632754416667,0.378458301716667,0.286730915183333,0.198018869183333,0.12473965055,0.17998226175,0.205434025083333,0.172297503083333,0.06986536975,0.0651586430833333,2172,"DG_s11",8.89,9.5,10.922,10.922,10,10,28,4,1.422,"Right",28,4,24,0,24,0,-24,24,"10-10",-18,6,28,10,4,10
"32",4,"RIN2-RIN3",0.1337513105,0.205404803166667,0.0986605245,0.0448402311666667,-0.0595601148333333,-0.0516084035,0.0518640491666667,-0.000133830433333334,0.0163273889,-0.163532063766667,-0.1717673975,-0.104641480166667,0.0425395531666667,0.0071777245,-0.0915023448333333,0.0266732085,0.146603283833333,0.1998668705,0.0657116398333333,-0.0234906668333333,-0.0711006095,-0.125951584833333,0.00315548183333333,0.0267941945,0.150397329833333,0.230001875166667,0.328263499833333,0.206582317166667,0.179565585166667,0.1675453305,0.219963035966667,0.118750535966667,0.0039812813,0.0451272272333333,0.0593655279,0.145035311233333,2172,"DG_s11",8.89,9.5,10.922,10.922,10,10,28,4,1.422,"Right",28,4,24,0,24,0,-24,24,"10-10",-18,6,28,10,4,10
"33",4,"RIN1-RIN2",-0.160269904666667,-0.0210025243333333,-0.0692159183333333,0.028401565,-0.0182919046666667,0.0279003993333333,0.00462553666666667,0.118365857333333,0.240065693333333,0.385706006,0.288346412666667,0.125355002666667,0.0353921193333333,0.0388714355333333,0.0224440788666667,0.0482521175333333,0.124713890666667,0.172420196,0.105809498,0.171545588666667,0.32458255,0.318955606,0.124047291333333,-0.0750828086666667,-0.112654295333333,-0.0349804473333333,0.139748084,0.121612097333333,0.137576270666667,0.153965139333333,0.175063359333333,0.133098659333333,-0.0495628727333333,-0.0939736527333333,-0.0499301307333333,-0.0316066846666667,2172,"DG_s11",8.89,9.5,10.922,10.922,10,10,28,4,1.422,"Right",28,4,24,0,24,0,-24,24,"10-10",-18,6,28,10,4,10
"34",4,"LIN3-LIN4",0.152263306666667,0.151933152,0.0848203873333333,0.0676834766666667,0.00703265,0.0172258906666667,-0.0119577494666667,0.0803263318666667,0.0494767545333333,0.185630741333333,0.112737499333333,0.157504907333333,0.01473276,0.0418887566666667,-0.0229387013333333,-0.0374399746666667,-0.0891734166666667,1.79386666666684e-05,-0.0181253046666667,0.0913397113333333,0.086266876,0.116063236,0.215069689333333,0.187019028,0.298426734666667,0.1382149598,0.148385002133333,0.144580546133333,0.164153911666667,0.093302492,0.0264042786666667,0.0750362746666667,0.0653949726666667,0.00578696866666666,0.0793940486666667,0.278960316,2172,"DG_s11",8.89,9.5,10.922,10.922,10,10,28,4,1.422,"Right",28,4,24,0,24,0,-24,24,"10-10",-18,6,28,10,4,10
"35",4,"RIN9-RIN10",-0.0391272661666667,-0.0615675475,-0.1177810335,-0.137296530833333,0.0212720025,0.0598446158333333,0.0304197725,-0.0885687901666667,0.0271853891666667,0.167358953833333,0.315686183166667,0.312956949833333,0.332960641833333,0.187492976966667,0.0944882749666667,0.0843579529666667,0.1335964305,0.0731541991666667,-0.0853856041666667,-0.0198613635,-0.0085795295,0.139658763833333,0.0233400838333333,-0.0676726101666667,-0.156890330166667,0.1009806965,0.1582055765,0.103740823166667,-0.126242296833333,-0.0259768168333333,0.161670263166667,0.2394121325,0.108023559833333,-0.0223935275,-0.151636760833333,-0.139595174433333,2172,"DG_s11",8.89,9.5,10.922,10.922,10,10,28,4,1.422,"Right",28,4,24,0,24,0,-24,24,"10-10",-18,6,28,10,4,10
"36",4,"RIN3-RIN4",0.465306494833333,0.3614750565,0.161347487833333,0.0756768111666667,0.0674097957,-0.0109594023,0.150790076366667,0.193336974833333,0.264477417833333,0.130520271833333,0.0531427511666667,0.0506865948333333,0.1136196975,0.139924958166667,0.219998032833333,0.2377852855,0.225826354833333,0.199211062833333,0.0602261755,0.0292417935666667,-0.0592499737666667,0.0551428355666667,0.116028296833333,0.139093150833333,0.214463994833333,0.3550278015,0.494941226833333,0.349230506833333,0.1468489775,0.0684633215,0.165054940833333,0.1931553475,0.287388948833333,0.2398748235,0.3451925475,0.166862880833333,2172,"DG_s11",8.89,9.5,10.922,10.922,10,10,28,4,1.422,"Right",28,4,24,0,24,0,-24,24,"10-10",-18,6,28,10,4,10
"37",5,"RIN1-RIN2",0.284120764433333,0.259540746433333,0.261905836833333,0.1273023155,0.0787678448333333,-0.0329309838333333,-0.0795219551666667,-0.104726583166667,-0.0370120331666667,0.0477973495,0.0443095661666667,-0.0715356211666667,-0.100047093833333,-0.151488293833333,-0.120710635166667,-0.146303379166667,-0.136548245833333,-0.113100039833333,-0.0473161471666667,0.0110870361666667,0.112724156166667,0.1264912175,0.1235143255,0.139635225233333,0.0660491785666667,0.133241459233333,0.182065238166667,0.372188504166667,0.222450752166667,0.0741238035,-0.1526931785,-0.0159583570333333,-0.0668491977,0.0699771709666667,0.0157708635,-0.0317289725,2173,"DG_s11",11.922,12.531,13.968,13.968,10,10,22,6,1.437,"Left",22,6,16,0,16,0,-16,16,"10-10",-12,4,10,22,10,6
"38",5,"LIN2-LIN3",-0.129421059641667,-0.115222812308333,-0.0421300003083333,0.151327093025,0.113839496358333,0.0208260516916667,-0.0839078883083333,-0.0243988683083333,-0.026268930975,-0.128742332975,-0.020230532975,0.00293643769166667,0.207993199691667,0.0801161483583333,0.0179613883583333,-0.125408884308333,-0.0614703423083333,-0.105151575641667,-0.124277632308333,-0.265873852308333,-0.214991941508333,-0.155095878841667,-0.049295150175,0.0227539723583333,0.101571266358333,0.0620870536916667,0.028845719025,-0.0381855216416667,-0.0170269856416667,0.0654547303583333,0.041218582225,0.127561211558333,0.063357590225,0.0298407082916667,-0.142242877041667,-0.168480757308333,2173,"DG_s11",11.922,12.531,13.968,13.968,10,10,22,6,1.437,"Left",22,6,16,0,16,0,-16,16,"10-10",-12,4,10,22,10,6
"39",5,"RIN9-RIN10",0.212118726,0.0847649933333333,0.0537167898666667,0.108150619866667,0.244324608533333,0.420302776666667,0.365373724466667,0.323669253133333,0.1890212598,0.296829722666667,0.21014301,0.212182812,0.235517944666667,0.252309301866667,0.268092911866667,0.203998463866667,0.190427520666667,0.120164295333333,0.108121037333333,0.133642200666667,0.22144131,0.162611297333333,0.158695050666667,0.165433914666667,0.21437422,0.111977113333333,0.0592675601333333,0.0674735361333333,0.2018090428,0.203214424,0.164971745333333,0.273233657333333,0.2419831302,0.369817359533333,0.325645207533333,0.392686866666667,2173,"DG_s11",11.922,12.531,13.968,13.968,10,10,22,6,1.437,"Left",22,6,16,0,16,0,-16,16,"10-10",-12,4,10,22,10,6
"40",5,"LIN4-LIN5",-0.0559427278833333,-0.0289933058833333,0.100680280116667,0.09331022805,0.01767186205,0.0979471627166667,0.230402988116667,0.269030400116667,0.121293252116667,-0.02729679055,-0.07591719655,-0.06598384055,0.05903190945,0.134393078783333,0.22740611345,0.14343472545,0.0783741733166667,0.00362995331666667,-0.05182469935,-0.0577412618833333,-0.0479548992166667,0.179165374116667,0.239900306116667,0.33097130745,0.192092454116667,0.14422751585,0.0446583501166667,0.06850952345,0.0672495437166667,0.147068756116667,0.257788162783333,0.276178180783333,0.157863110783333,-0.0723233492166667,-0.13270338055,-0.127534511216667,2173,"DG_s11",11.922,12.531,13.968,13.968,10,10,22,6,1.437,"Left",22,6,16,0,16,0,-16,16,"10-10",-12,4,10,22,10,6
"41",5,"RIN3-RIN4",0.1856005425,0.1768131105,0.2626263185,0.256839005966667,0.128099924633333,0.0225511426333333,0.0204296178333333,0.0503341102333333,0.224130257566667,0.3792990349,0.414782301833333,0.3780161085,0.258095135166667,0.201377271033333,0.111068491033333,0.0854963663666667,0.0429409936333333,0.109926966966667,0.0910724249666667,0.141853519166667,0.0323075065,-0.0143232248333333,-0.0689447568333333,-0.0653274175,0.0276830005,0.201338637833333,0.369932717833333,0.4083393777,0.315652976366667,0.3458422297,0.349869369833333,0.358397229501333,0.139306889501333,0.157913185501333,0.328913745166667,0.372834081131333,2173,"DG_s11",11.922,12.531,13.968,13.968,10,10,22,6,1.437,"Left",22,6,16,0,16,0,-16,16,"10-10",-12,4,10,22,10,6
"42",5,"LIN9-LIN10",-0.0531751848,-0.1128392448,-0.00357983613333332,0.128121023866667,0.162918463866667,0.00855805906666668,0.0692345910666667,0.0655923570666667,0.137114132533333,0.0732906338666667,0.0127641978666667,0.1021372272,0.183629540533333,0.305567000066667,0.130389366733333,0.1412079334,0.1245982972,0.0912828172,-0.0664851738,-0.221472294466667,-0.204224838066667,-0.1699517684,-0.0541840344,0.0960627758666666,0.0889131485333333,0.1219631752,-0.0095722748,-0.123469399466667,-0.2322425708,-0.105133461466667,0.0126208785333333,-0.0822992101333333,-0.147838453466667,-0.00347336679999999,0.228241301866667,0.16082882754,2173,"DG_s11",11.922,12.531,13.968,13.968,10,10,22,6,1.437,"Left",22,6,16,0,16,0,-16,16,"10-10",-12,4,10,22,10,6
"43",5,"LIN1-LIN2",0.0981495476666667,0.092416071,0.135392731933333,0.222417653933333,0.3588543066,0.375963811,0.485030798333333,0.360686973666667,0.299340113,0.404692383,0.482209234333333,0.466102729,0.250985452333333,0.212626921666667,0.231370297666667,0.303886947666667,0.375695091666667,0.403608225,0.437618663,0.402301209666667,0.3505304106,0.183532165933333,0.0443784666,0.0155220023333333,0.098443625,0.128382642333333,0.176508950266667,0.185398040933333,0.348766642933333,0.404965640333333,0.405978833666667,0.226483549,0.215670570333333,0.243252134333333,0.283193075,0.166976381666667,2173,"DG_s11",11.922,12.531,13.968,13.968,10,10,22,6,1.437,"Left",22,6,16,0,16,0,-16,16,"10-10",-12,4,10,22,10,6
"44",5,"RIN2-RIN3",0.0185798483333333,0.034664051,0.129160121,0.185502343666667,0.168837857,0.120911849666667,-0.054446057,-0.018752795,0.0904810136666667,0.220718053666667,0.313013835,0.297640822266667,0.188173902266667,0.130337754933333,0.0735039476666667,0.190024330333333,0.232468079666667,0.238029959666667,0.214260579,0.177769733666667,0.045755987,-0.051180395,-0.100209544333333,-0.0535955343333333,0.0739924523333333,0.306342081666667,0.444539800333333,0.480883620333333,0.394225153,0.403119345,0.400218398333333,0.338036646533333,0.163996571866667,0.0338861898666667,-0.00760102633333333,0.048024289,2173,"DG_s11",11.922,12.531,13.968,13.968,10,10,22,6,1.437,"Left",22,6,16,0,16,0,-16,16,"10-10",-12,4,10,22,10,6
"45",5,"LIN3-LIN4",0.0203901643333333,0.0304830303333333,0.0473756536666667,0.182330840333333,0.201478994333333,0.274145307666667,0.203404498333333,0.189987915,0.1669910552,0.116156857866667,0.293198340533333,0.256310119,0.353486952333333,0.104028097666667,0.0908302256666667,0.00475655433333334,0.052459123,0.0261358076666667,-0.097167901,-0.080889635,-0.0799510616666667,0.0187909783333333,0.00709824053333333,0.0232635387866667,0.20618617212,0.182392103253333,0.277186520333333,0.069573057,0.0852961856666667,0.118586385666667,0.2052320726,0.314257963933333,0.248923423933333,0.140325680333333,0.146238993666667,0.152902840333333,2173,"DG_s11",11.922,12.531,13.968,13.968,10,10,22,6,1.437,"Left",22,6,16,0,16,0,-16,16,"10-10",-12,4,10,22,10,6
"46",6,"RIN9-RIN10",-0.133825218666667,-0.156243930666667,-0.0679929113333333,-0.0126381386666667,0.0465915426666667,-0.0722922353333333,-0.169430546066667,-0.247674056066667,-0.2093086134,-0.151205124,-0.141968921333333,-0.176011949333333,-0.231850584,-0.117046576666667,-0.0746648686666667,-0.0631733186666667,-0.194638334666667,-0.179908446,-0.078926566,-0.02724845,-0.0297388186666667,-0.149613912666667,-0.106046626,-0.150127844,-0.186521836666667,-0.338878796666667,-0.227852223333333,-0.105169296666667,-0.04637485,-0.0516150086666667,-0.100990895333333,4.01413333333267e-05,-0.0819544353333333,-0.0840791086666667,-0.14381198,-0.171809651333333,2174,"DG_s11",14.984,15.593,16.828,16.843,10,10,30,15,1.235,"Right",30,15,15,0,15,0,-15,15,"10-10",-20,-5,30,10,15,10
"47",6,"RIN2-RIN3",0.163390081333333,0.01003318,-0.0604657638666667,-0.135286649866667,-0.152331539866667,-0.194421929333333,-0.133571424666667,0.031093912,0.167500516666667,0.0618780926666667,-0.00917667733333333,-0.151439288666667,-0.0856729033333333,-0.149515832666667,-0.0295387606666667,0.0239849773333333,0.07276673,0.124333918,-0.013736282,0.0295215633333333,0.002162012,0.105660034666667,0.0907224206666667,0.0845123156,0.101502478266667,0.0511331669333333,0.0471056246666667,0.02930807,0.0360263843333333,-0.0977371036666667,-0.123534045,-0.203400367333333,-0.141822647333333,-0.191188312,-0.0732417953333333,0.0934113913333333,2174,"DG_s11",14.984,15.593,16.828,16.843,10,10,30,15,1.235,"Right",30,15,15,0,15,0,-15,15,"10-10",-20,-5,30,10,15,10
"48",6,"RIN1-RIN2",-0.0181123744066667,-0.0224474180733333,0.00852947366666667,0.0259032363333333,0.054754824,0.0365293546666667,-0.016479304,-0.00845301133333333,0.145619797333333,0.261338717333333,0.308970866666667,0.119443772,-0.010079194,-0.089298046,-0.0335299116,0.0366639277333333,0.199833805733333,0.238295397333333,0.257116197333333,0.132537523333333,0.190394305333333,0.114587117333333,0.127201867333333,0.0830748606666667,0.0569283553333333,0.07128287,-0.0143664753333333,-0.013874914,-0.000821408666666669,0.135206964666667,0.08809549,0.00774356,-0.040914754,0.0622403193333333,0.0631099206666667,0.13477684,2174,"DG_s11",14.984,15.593,16.828,16.843,10,10,30,15,1.235,"Right",30,15,15,0,15,0,-15,15,"10-10",-20,-5,30,10,15,10
"49",6,"LIN2-LIN3",-0.110416922516667,-0.127082891183333,-0.29381393785,-0.27914904985,-0.280281043183333,-0.190393557183333,-0.18755890185,-0.14408216785,-0.0583901071833333,0.06267822015,0.0643354594833334,-0.07614203585,-0.212471639183333,-0.308799392516667,-0.339201650516667,-0.381799662583333,-0.250839755916667,-0.0895154525833333,-0.0210244531833333,0.03195825215,0.109621128816667,0.224957291483333,0.31377992615,0.176540404816667,0.0267644448166667,-0.13071604185,-0.18536755985,-0.13129751985,-0.00847961984999998,0.158837059483333,0.23340130615,0.0687022648166667,-0.12401486185,-0.160690495183333,-0.143888373183333,-0.131599044583333,2174,"DG_s11",14.984,15.593,16.828,16.843,10,10,30,15,1.235,"Right",30,15,15,0,15,0,-15,15,"10-10",-20,-5,30,10,15,10
"50",6,"RIN3-RIN4",-0.0275062248166667,-0.03455402215,-0.0520256328166667,-0.05350723015,0.0397312151833333,0.135301582516667,0.155089143183333,0.0603718731833333,0.0504207345166667,0.0627586331833333,0.123852567183333,0.0233339671833333,-0.0235823788166667,-0.0802921308166667,0.00873406118333333,0.04511832785,0.0406256591833333,0.135239592516667,0.170265558516667,0.209619777183333,0.0435857103166667,-0.0344609016833333,-0.12471942035,-0.0896346134833333,-0.0871413788166667,-0.133698165483333,-0.15471857215,-0.150728861483333,0.01151387785,-0.03370052215,0.02325556445,-0.00998897821666667,0.0450268617833333,0.0107037005166667,-0.01466427875,0.11211029125,2174,"DG_s11",14.984,15.593,16.828,16.843,10,10,30,15,1.235,"Right",30,15,15,0,15,0,-15,15,"10-10",-20,-5,30,10,15,10
"51",6,"LIN1-LIN2",0.348304163833333,0.243486813833333,0.0688857471666666,0.0138209004333333,0.0992041331,0.0689670824333333,-0.0365825544333333,-0.0785276891,-0.0974088117666667,-0.0191890988333333,-0.0591950535,-0.0180797221666667,0.0830493351666667,0.119077451833333,0.114757009166667,-0.0378508161666667,-0.0127308841666667,-0.0428235661666667,-0.00612805616666667,-0.0735424995,-0.100485627566667,0.00642991509999999,0.0808606244333333,0.0243464925,-0.142522174166667,-0.242499170166667,-0.123831356166667,-0.0697203168333333,-0.0314851008333333,-0.0494739521666667,0.0627354671666667,0.0123979371,-0.0998834835666667,-0.217784565566667,-0.0863709995,0.0579188639666667,2174,"DG_s11",14.984,15.593,16.828,16.843,10,10,30,15,1.235,"Right",30,15,15,0,15,0,-15,15,"10-10",-20,-5,30,10,15,10
"52",6,"LIN3-LIN4",0.0724583785,0.0440245411666667,-0.0158432988333333,-0.0219140075,0.0022412945,-0.0265407741666667,-0.140318772166667,-0.156988732833333,-0.0168473908333333,0.0621051918333333,0.145444597166667,0.0327631605666667,-0.00324542076666666,-0.0942830767666667,-0.0771710801666667,-0.0593120148333333,-0.0538397435,-0.0312086455,0.00840987316666668,0.0869278371666667,0.241443925833333,0.278217907166667,0.2855719805,0.0604107921133333,-0.00851895722,-0.15979886722,-0.0933427091,-0.0268765757666667,0.0607582742333333,0.125069297566667,0.110863041566667,0.0505081215666667,-0.0185728855,-0.0831889561666667,-0.0993446428333333,-0.191281568833333,2174,"DG_s11",14.984,15.593,16.828,16.843,10,10,30,15,1.235,"Right",30,15,15,0,15,0,-15,15,"10-10",-20,-5,30,10,15,10
"53",6,"LIN9-LIN10",0.13043767,0.129025646,0.204781093333333,0.135848768,0.0213165446666667,0.0280942846666667,0.159313312,0.460711994666667,0.615992974666667,0.483952300666667,0.223207107333333,0.0155142603333333,0.112964747,0.215831884333333,0.239304112,0.160002013333333,-0.0182713221333333,-0.120028469466667,-0.0533129388,-0.0394887433333333,0.122952703333333,0.088022786,0.043190424,-0.114737441933333,-0.1215682086,0.0025791694,0.161385722,0.156535359333333,0.0916808326666667,0.383314399333333,0.471796080666667,0.468938484,0.0145533713333333,-0.128259074,-0.111862086666667,-0.0988818273333333,2174,"DG_s11",14.984,15.593,16.828,16.843,10,10,30,15,1.235,"Right",30,15,15,0,15,0,-15,15,"10-10",-20,-5,30,10,15,10
"54",6,"LIN4-LIN5",-0.09124909325,-0.0616119425833333,-0.159665553916667,-0.143479841183333,-0.123916261183333,-0.0702221925166667,-0.107455632516667,0.03730412415,0.07649008615,0.09072675855,-0.0277067667833334,-0.0444805527833333,-0.0749642833833333,-0.188729295383333,-0.318493342716667,-0.256392004516667,-0.26798647385,-0.225709547183333,-0.21137295785,-0.160918244516667,-0.10596390985,-0.153333187183333,-0.142527360516667,-0.23264122185,-0.220719013183333,-0.308474413183333,-0.26153635565,-0.21146398965,-0.123203584983333,0.00140749081666666,-0.110815220516667,-0.11164781585,-0.17566805385,-0.152821309183333,-0.16841872785,-0.260959703183333,2174,"DG_s11",14.984,15.593,16.828,16.843,10,10,30,15,1.235,"Right",30,15,15,0,15,0,-15,15,"10-10",-20,-5,30,10,15,10
"55",7,"LIN9-LIN10",0.336504801333333,0.273687533866667,0.1083322492,0.0983002558666667,0.132611242,0.112825363333333,0.0202162094,0.0290720987333333,0.0942067727333333,0.153984073333333,0.265081093333333,0.305932989333333,0.346452302,0.327175589333333,0.300916329333333,0.359540183333333,0.236275320666667,0.262302407333333,0.375703800666667,0.500387909333333,0.508633242,0.310003954,0.302219102,0.520560069333333,0.574727857333333,0.565428573333333,0.302687190933333,0.2016510184,0.1742407784,0.153954723466667,0.212535681333333,0.214535004,0.222547549333333,0.254679470666667,0.238539728666667,0.271045894,2175,"DG_s11",17.843,18.453,19.593,19.593,10,10,28,4,1.14,"Right",28,4,24,0,24,0,-24,24,"10-10",-18,6,28,10,4,10
"56",7,"LIN2-LIN3",-0.172375362333333,-0.121255958333333,-0.0346462736666667,0.137569405,0.241184847666667,0.152498996333333,0.056441751,-0.150603539,-0.109236382333333,-0.131526307666667,0.0221676556666667,0.0385955583333333,0.123381082333333,-0.0468127472666667,0.0978435627333333,0.0172451274,0.0861028176666667,-0.090658459,-0.222032510333333,-0.204120504333333,-0.141677005,0.0479531616666667,0.184042688333333,0.1820687374,0.337663370733333,0.113398144066667,0.0687795994,-0.163560853933333,-0.00818386913333334,0.0427368204666667,-0.0775914595333333,-0.268889084333333,-0.370902757,-0.171083117,-0.037633025,0.053698261,2175,"DG_s11",17.843,18.453,19.593,19.593,10,10,28,4,1.14,"Right",28,4,24,0,24,0,-24,24,"10-10",-18,6,28,10,4,10
"57",7,"LIN3-LIN4",0.0835975247666667,0.1171508401,0.0812123001,0.0199868298333333,-0.0113080155,0.116578897833333,0.4143264645,0.4702820125,0.320407679166667,0.0276461022333333,-0.0103459424333333,0.0613397842333333,0.101073675166667,0.0846523725,0.253754165833333,0.347367391833333,0.2625893105,0.0623149658333333,-0.0144882075,0.175541363166667,0.2418470965,0.3625794905,0.2734819745,0.221988665833333,0.302127293166667,0.3491583625,0.4851102225,0.305041371366667,0.216064958033333,0.0653291727,0.0530726685,0.0702278672333333,0.0902821819,-0.0415676507666667,0.0145044725,0.0084644465,2175,"DG_s11",17.843,18.453,19.593,19.593,10,10,28,4,1.14,"Right",28,4,24,0,24,0,-24,24,"10-10",-18,6,28,10,4,10
"58",7,"RIN9-RIN10",-0.109446538833333,-0.1328432695,-0.201130494833333,-0.116086290166667,-0.105704476833333,-0.00377178016666667,0.00990667916666666,0.0332875671666667,0.0178424225,0.0240667638333333,0.0839312711666667,0.0180223797,-0.0436290776333333,-0.0108932183,0.0118479205,0.0919931611666667,-0.0556314135,-0.0910306328333333,-0.0735111488333333,0.0884121845,0.2277340845,0.118151539166667,-0.0117429088333333,0.00840191116666666,0.0713254858333333,0.0289006871666667,-0.160947086166667,-0.121385368166667,-0.00352625816666666,0.0328103451666667,0.0524072706333333,0.0524213073,0.101689070633333,0.202718931833333,0.246841883833333,0.2322220425,2175,"DG_s11",17.843,18.453,19.593,19.593,10,10,28,4,1.14,"Right",28,4,24,0,24,0,-24,24,"10-10",-18,6,28,10,4,10
"59",7,"RIN3-RIN4",-0.0778392182733333,-0.0893064048333333,-0.0399820825666667,-0.178670293566667,-0.198712312233333,-0.21506434244,-0.09238767144,-0.0728130227733333,-0.0817683521666667,-0.1257395207,-0.0746710140333333,0.000538358633333319,-0.0751141095,-0.125502516166667,-0.314141702833333,-0.326478531233333,-0.3438192639,-0.2194998219,-0.0134646835,0.0921490005,0.261949945166667,0.1655477585,0.167680493833333,0.121586187166667,0.162569907166667,-0.00141105083333334,-0.181934104166667,-0.209207510833333,-0.132994281566667,-0.147893514233333,-0.1735803789,-0.2856321935,-0.2050160475,-0.287884512833333,-0.250879408833333,-0.2801142795,2175,"DG_s11",17.843,18.453,19.593,19.593,10,10,28,4,1.14,"Right",28,4,24,0,24,0,-24,24,"10-10",-18,6,28,10,4,10
"60",7,"RIN2-RIN3",0.03700023165,0.04585373285,-0.0473747204833333,0.0121776375166667,-0.0922409130166667,-0.0890103596833333,-0.0669313370166667,-0.0256724890166667,-0.0642103496833333,-0.129552253016667,-0.129151345016667,-0.10446107635,-0.137136885683333,-0.12197953435,-0.192949869016667,-0.140825745016667,-0.164523837683333,-0.00897799301666667,-0.0208824864166667,0.01886910025,0.0782608755833333,0.109149806983333,0.140067514983333,0.03860109565,0.08307542025,-0.0399647984166667,-0.0750558250833333,-0.22482345435,-0.120904375683333,-0.148901003016667,-0.108247865016667,-0.124451155016667,-0.0258178770166667,-0.0394654356833333,-0.136772319016667,-0.186696643683333,2175,"DG_s11",17.843,18.453,19.593,19.593,10,10,28,4,1.14,"Right",28,4,24,0,24,0,-24,24,"10-10",-18,6,28,10,4,10
"61",7,"LIN4-LIN5",0.180843545666667,0.146042659,0.134545539,0.117847443666667,0.00227725433333333,-0.118091812333333,-0.0780704024666667,-0.149774192466667,-0.0331061724666667,0.0760530816666667,0.136084768333333,0.0871035716666667,-0.015189677,0.0226394323333333,0.109991888333333,0.125166655,0.145137005666667,0.0123134263333333,-0.046339581,-0.139175503,-0.0609990076666667,-0.108005075,-0.0813499816,-0.125074178666667,-0.086675946,0.1183825886,0.222189357666667,0.218886467,0.0726114119333333,-0.0033801314,-0.0364121067333333,0.0166859283333333,-0.011382381,-0.0536736796666667,-0.174823800466667,-0.196818564466667,2175,"DG_s11",17.843,18.453,19.593,19.593,10,10,28,4,1.14,"Right",28,4,24,0,24,0,-24,24,"10-10",-18,6,28,10,4,10
"62",7,"LIN1-LIN2",-0.0935084538333334,-0.102400037166667,-0.1424585005,-0.0956932585,-0.1770936745,-0.1151566685,-0.3526590685,-0.314607391833333,-0.422685889166667,-0.2695455425,-0.187601429833333,-0.1470156625,-0.179799555833333,-0.162705255166667,-0.0136090891666667,0.0493520508333333,0.0697351641666666,0.0688075908333333,0.101423490833333,0.0510034748333333,-0.0889416125,-0.0147842325,-0.0147697678333333,0.1059064335,0.0912034268333333,0.1473073475,0.0772131541666666,-0.0274113965,-0.0749649485,-0.00148515516666667,-0.0938552595666667,-0.185324175566667,-0.337011895566667,-0.1742892543,-0.124552810966667,-0.0703868476333333,2175,"DG_s11",17.843,18.453,19.593,19.593,10,10,28,4,1.14,"Right",28,4,24,0,24,0,-24,24,"10-10",-18,6,28,10,4,10
"63",7,"RIN1-RIN2",-0.204754882833333,-0.212211496833333,-0.2099138035,-0.105550318166667,-0.102332902833333,-0.00872844950000001,-0.02781739148,0.03179389452,-0.104951066813333,-0.1591414555,-0.2541187315,-0.233383572166667,-0.127986622166667,-0.0974053661666667,-0.126003150833333,-0.0825172855,-0.176084438833333,-0.129776674833333,-0.275674406833333,-0.215419352166667,-0.1637797295,-0.194916382166667,-0.106659922833333,-0.0458557601666667,0.0525821551666666,-0.0789194188333333,-0.1804154185,-0.259599110366667,-0.241260933033333,-0.179424690766667,-0.0675356275666667,-0.0406764849,-0.00478297683333334,-0.0214879468333334,-0.0299144001666667,-0.115640880833333,2175,"DG_s11",17.843,18.453,19.593,19.593,10,10,28,4,1.14,"Right",28,4,24,0,24,0,-24,24,"10-10",-18,6,28,10,4,10
"64",8,"LIN4-LIN5",-0.281669598033333,-0.249621365366667,-0.2079226527,-0.186472301366667,-0.194411599833333,-0.0939183658333333,0.0126908674333333,-0.0592721401,-0.2225666201,-0.275356270033333,-0.289388250033333,-0.205948240033333,-0.3196764747,-0.198427227366667,-0.1359119707,0.0216364886333333,0.00420776070000001,0.0176084487,-0.0332466813,-0.0514963167,-0.114482807366667,-0.166669422033333,-0.153207341366667,-0.146348116033333,-0.137187777366667,-0.0994833067,-0.121241888033333,0.00579135863333335,0.0184856486333334,0.1292528733,0.201048879966667,0.330435587966667,0.2323698753,0.0878639093,-0.162498058033333,-0.192968837366667,2176,"DG_s11",20.593,21.203,22.312,22.312,10,10,4,4,1.109,"Left",4,4,0,0,0,0,0,0,"10-10",6,6,10,4,10,4
"65",8,"RIN9-RIN10",0.1355862405,0.324304235833333,0.355489693166667,0.260686938966667,0.1046983283,-0.0402891117,0.0497688318333333,0.148501933833333,0.296848513833333,0.254543639166667,0.155482631966667,0.0484471046333333,-0.0447605640333333,0.0510160398333333,0.167121353833333,0.2600981205,0.166497083166667,0.225978569833333,0.2897089765,0.3349318805,0.173962171833333,0.0955198665,0.0314770031666667,0.0609922065,0.1682205585,0.197226211833333,0.193130581166667,0.00826567383333333,0.0937333278333333,0.152271389833333,0.341025956366667,0.3065688257,0.364666366366667,0.296548062433333,0.242517078433333,0.197516058433333,2176,"DG_s11",20.593,21.203,22.312,22.312,10,10,4,4,1.109,"Left",4,4,0,0,0,0,0,0,"10-10",6,6,10,4,10,4
"66",8,"RIN1-RIN2",0.0989989221666667,0.155403826033333,0.260276866033333,0.272346474833333,0.161869592833333,0.00175932616666667,-0.0506413039,0.0208075659,0.0579659272333333,0.199144963966667,0.217863204166667,0.2188064415,0.117399766833333,0.0881956288333333,0.0702983575,0.00202527195333334,0.02349835262,0.00878092528666667,0.268039352166667,0.235012080166667,0.273557304166667,0.104075542166667,0.2077478955,0.147722698166667,0.123057948833333,0.0206053821666667,0.0454837728333333,0.00286934416666668,0.00779504596666668,-0.0152910980333333,0.0186681910333333,0.1434098159,0.2613007159,0.1774832335,0.126474434166667,0.0317634675,2176,"DG_s11",20.593,21.203,22.312,22.312,10,10,4,4,1.109,"Left",4,4,0,0,0,0,0,0,"10-10",6,6,10,4,10,4
"67",8,"LIN3-LIN4",-0.248178591,-0.238302059,-0.239661441666667,-0.201559381,-0.272185874333333,-0.376196901666667,-0.394491573666667,-0.201274713666667,-0.065385119,-0.107627605,-0.217045118333333,-0.241248304333333,-0.142918301066667,-0.100245661066667,-0.1191844584,-0.168667797666667,-0.261757410333333,-0.332171141666667,-0.368498374333333,-0.296115276333333,-0.194732881533333,-0.0912690848666667,-0.185230308866667,-0.191717609,-0.282813195,-0.265036727,-0.254442950333333,-0.129956799,-0.054698089,0.0391207996666667,0.053365745,0.0348846763333333,-0.0226539756666667,0.0276526856666667,-0.0331548863333333,-0.0154759883333333,2176,"DG_s11",20.593,21.203,22.312,22.312,10,10,4,4,1.109,"Left",4,4,0,0,0,0,0,0,"10-10",6,6,10,4,10,4
"68",8,"RIN2-RIN3",0.041952875205,0.149182318205,0.127759828871667,0.0713875355383333,-0.00965082946166667,0.0458045145383333,0.106126299871667,0.121566243671667,0.118085191005,0.111693939871667,0.0470270287383333,-0.0146171052616667,0.003291219205,-0.0219187401283333,0.021179673205,-0.0440016901283333,0.052939187205,0.0579278145383333,0.198781304538333,0.137130862538333,0.0747321801383333,0.023684142805,0.158999744805,0.164202359205,0.162645445871667,0.0389595718716667,0.021115032405,-0.064960955595,-0.0298754329283333,0.007378671205,0.0463431285383333,0.0385629245383333,0.108055213205,0.0649364125383333,-0.0323300254616667,-0.190615635461667,2176,"DG_s11",20.593,21.203,22.312,22.312,10,10,4,4,1.109,"Left",4,4,0,0,0,0,0,0,"10-10",6,6,10,4,10,4
"69",8,"RIN3-RIN4",-0.138224986166667,-0.1161367195,-0.139517818833333,-0.0755331148333333,-0.0544705748333333,0.0187033191666667,0.131809321833333,0.168058031166667,0.0823721138333333,0.0517954511666667,0.0344448631666667,0.0897255325,0.1386184345,0.164501735433333,0.1135812861,0.0782916067666667,0.137626769833333,0.238439065833333,0.2691722625,0.279399151833333,0.148824273833333,0.116765697166667,0.1615775585,0.185091709833333,0.165008085166667,0.0140743778333333,0.0432688865,0.0400932872333333,0.110320945233333,0.133903056566667,0.1149050865,0.0735700885,0.1191924085,0.100540304566667,0.0794807677666667,0.0561337404333333,2176,"DG_s11",20.593,21.203,22.312,22.312,10,10,4,4,1.109,"Left",4,4,0,0,0,0,0,0,"10-10",6,6,10,4,10,4
"70",8,"LIN9-LIN10",-0.0155047525,-0.0850626905,0.0661056268333333,0.239659528166667,0.3307279315,0.297830534166667,0.2220919575,0.2370508835,0.145895744833333,0.120617578833333,0.1102821115,0.0626657908333333,0.165115472833333,0.190780562166667,0.153518534166667,0.0326926044333334,-0.0451205755666667,-0.0711356229,-0.1108346465,-0.155918237166667,-0.203842789166667,-0.159894781833333,-0.0992974709,0.0661608951,0.0955301884333334,0.0795104535,0.0781319141666667,0.0142629515,-0.00784025316666664,0.0214042801666667,0.0613950828333333,-0.0266735325,-0.1755678185,-0.2002084805,-0.0536152191666667,-0.0562723438333333,2176,"DG_s11",20.593,21.203,22.312,22.312,10,10,4,4,1.109,"Left",4,4,0,0,0,0,0,0,"10-10",6,6,10,4,10,4
"71",8,"LIN1-LIN2",0.209371054,0.196323127333333,0.154239634666667,0.12839314,0.0662082266666667,-2.15446666666664e-05,-0.0955037973333333,-0.0893096466486667,-0.159029961982,-0.123449414648667,-0.121313758666667,-0.105475625333333,-0.168229098666667,-0.0894115266666667,0.0402672353333333,0.0885792086666667,0.00290206173333333,0.0543741785333333,0.0230242052,0.0466846801333333,-0.0102445793333333,0.183459694,0.337300136666667,0.373567537333333,0.319328725333333,0.167590984,0.277617197333333,0.290527262666667,0.463268088,0.365161757333333,0.274821864,0.143988947066667,0.0353897183333333,0.000355596533333332,0.0769275001333333,0.0990544808666667,2176,"DG_s11",20.593,21.203,22.312,22.312,10,10,4,4,1.109,"Left",4,4,0,0,0,0,0,0,"10-10",6,6,10,4,10,4
"72",8,"LIN2-LIN3",0.178587249933333,0.156289758866667,0.207581026866667,0.2584027082,0.288097351,0.211252393,0.1057426306,0.196138071266667,0.207335887266667,0.263936072266667,0.237912716933333,0.209942260266667,0.388575969,0.3385700862,0.391587871133333,0.1982993338,0.176175485933333,0.128186175666667,0.0982721309333333,0.171687274266667,0.326120592466667,0.564974019466667,0.598336689466667,0.622481135266667,0.403590813,0.262948181666667,0.178319560333333,0.127647131,0.114176133666667,0.117602375,0.269701637666667,0.325195738333333,0.366518451666667,0.371411617,0.311360803666667,0.205141691,2176,"DG_s11",20.593,21.203,22.312,22.312,10,10,4,4,1.109,"Left",4,4,0,0,0,0,0,0,"10-10",6,6,10,4,10,4
"73",9,"RIN1-RIN2",-0.061996977,0.012055856,0.099725908,0.0678956342,0.119325927866667,0.123672422333333,0.0328892968,-0.0716795572,-0.170278791,-0.153344645,-0.274249777666667,-0.311241010333333,-0.292275997666667,-0.145463423666667,-0.102537523666667,-0.0439683823333333,-0.0151834119333333,0.114992464733333,0.0790938400666667,0.213111302333333,0.255494250333333,0.360129854333333,0.239886985666667,0.108591547,-0.0433471103333333,-0.155484421,-0.158849720333333,-0.126226496333333,0.0606305683333333,0.102690459666667,0.138463479,0.110113440333333,0.0522107956666667,-0.0241687636666667,-0.133554495666667,-0.145344833666667,2177,"DG_s11",23.328,23.937,25.031,25.047,10,10,13,7,1.094,"Right",13,7,6,0,6,0,-6,6,"10-10",-3,3,13,10,7,10
"74",9,"LIN9-LIN10",0.00836621943333332,0.0958876187666667,0.0570859027666667,0.0430940481,-0.0106688598333333,-0.0413463771666667,0.00445213416666666,-0.00877236523333333,-0.1144641719,-0.134131487233333,0.0775887741,0.2014462021,0.242856642766667,0.1988154361,0.291853054766667,0.222769029433333,0.0392603361,0.0409602961,0.169818049433333,0.180034636633333,0.0697415173,-0.10113699672,0.110514982746667,0.06491522788,0.167167977233333,0.0249313699,0.1417296261,0.172800709433333,0.136798183433333,0.0921378234333333,-0.0048354419,0.0345542987666667,0.0435337361,-0.0158080806333333,-0.0641123386333333,0.0828423553666667,2177,"DG_s11",23.328,23.937,25.031,25.047,10,10,13,7,1.094,"Right",13,7,6,0,6,0,-6,6,"10-10",-3,3,13,10,7,10
"75",9,"LIN2-LIN3",0.0862382128333333,-0.121841145166667,-0.166377303833333,-0.261955985833333,-0.2154533465,-0.1685755445,-0.1843723917,-0.1527648017,-0.141135389033333,-0.0841085291666667,-0.0369367051666667,-0.0691031858333333,-0.133251153833333,-0.0896202645,0.0543291688333333,0.0330921421666667,0.0212991448333333,-0.00181807583333334,0.115565386166667,0.0385812475,-0.0243755931666667,0.00101197816666666,0.197148638166667,0.1526010635,0.12164430088,-0.0614598864533333,0.0109054975466667,-0.0202374285,-0.0371245305,-0.0906294180333333,-0.1609531927,-0.1347733907,-0.1945476145,-0.194503899833333,-0.2496250765,-0.243506831166667,2177,"DG_s11",23.328,23.937,25.031,25.047,10,10,13,7,1.094,"Right",13,7,6,0,6,0,-6,6,"10-10",-3,3,13,10,7,10
"76",9,"RIN2-RIN3",0.0387106202,0.0752433443333333,0.0902763204,0.2510824104,0.262930937133333,0.2902702404,0.117272167733333,0.0853744663333333,0.0512716096666667,0.0510782696666667,0.0427697456666667,0.0578207576666667,0.101210507,0.108314971,0.216036087666667,0.216502743666667,0.268358535666667,0.314911429,0.372868271666667,0.445824087666667,0.331015181066667,0.2757378256,0.1607517696,0.1102205622,0.0981856276666667,0.113439718333333,0.0611947243333333,0.112464551666667,0.0468379636666667,0.115489171666667,0.153757386333333,0.203724365,0.248132373333333,0.186098806666667,0.214952105,0.108545843333333,2177,"DG_s11",23.328,23.937,25.031,25.047,10,10,13,7,1.094,"Right",13,7,6,0,6,0,-6,6,"10-10",-3,3,13,10,7,10
"77",9,"RIN3-RIN4",-0.0617126868333333,-0.0963836988333333,-0.139663780833333,-0.0605155708333333,0.103497695833333,0.192343175833333,0.151891129166667,0.00675907936666667,-0.0709672806333333,-0.132866705966667,-0.0816299341666667,0.00260689403333333,0.0073782587,-0.00271471063333333,0.127032487833333,0.142849115166667,0.234497841166667,0.128698653166667,0.265671347833333,0.121932955833333,0.0814987831666667,-0.0250702221666667,0.0605910925,-0.0207593321666667,-0.0537650355,-0.0650367501666667,-0.0544623315,0.0111066591666667,-0.0234247161666667,0.1556717705,0.1036006745,0.187204353766667,0.0584758411,0.152220449766667,0.125381267233333,0.204994533233333,2177,"DG_s11",23.328,23.937,25.031,25.047,10,10,13,7,1.094,"Right",13,7,6,0,6,0,-6,6,"10-10",-3,3,13,10,7,10
"78",9,"LIN4-LIN5",0.140109026333333,0.201354382333333,0.399378341666667,0.401767867,0.338476088333333,0.142382129,0.115493475,0.0763157136666667,0.178207999666667,0.226277663,0.249759612333333,0.090507799,-0.0226121416666667,-0.156540617666667,-0.0922396423333333,-0.075880631,0.0636910656666667,0.128838334733333,0.0954830594,-0.0122751706,-0.0836959283333333,0.0352857416666667,0.195245228333333,0.255444504333333,0.153594765866667,0.0806572992,0.117429878546667,0.12523128768,0.01970115368,-0.0915646463333333,-0.161717080733333,-0.0390318260666667,0.1141486786,0.0938966616666667,0.0568557383333333,-0.046029247,2177,"DG_s11",23.328,23.937,25.031,25.047,10,10,13,7,1.094,"Right",13,7,6,0,6,0,-6,6,"10-10",-3,3,13,10,7,10
"79",9,"RIN9-RIN10",-0.307966550366667,-0.169077604366667,-0.114189033033333,0.00534526363333334,-0.0602617770333333,0.000806108966666667,0.0908476823,0.1420232523,0.0833868616333333,0.0059011523,0.0386789103,0.0010776103,-0.0497063317,-0.1170285311,-0.0638978417666667,-0.00480829043333334,0.1994875223,0.257525011633333,0.3098762367,0.298989250033333,0.3593445667,0.318136621633333,0.172087175633333,0.0118962136333333,-0.0482594763666667,-0.0776248837,-0.0468970389,0.0060493811,0.0552492611,0.1300181543,0.0540840863,0.0107647176333333,-0.0304784463666667,0.1105504483,0.169377700966667,0.205075852833333,2177,"DG_s11",23.328,23.937,25.031,25.047,10,10,13,7,1.094,"Right",13,7,6,0,6,0,-6,6,"10-10",-3,3,13,10,7,10
"80",9,"LIN3-LIN4",-0.165465221,-0.141957296066667,-0.146249314066667,-0.104879414066667,-0.0966272723333333,-0.0888969756666667,-0.138305150333333,-0.176652627,-0.0572944883333334,0.00577684633333334,0.154764229666667,0.079608389,0.108355959666667,0.00943724499999998,0.101850017,-0.0536977203333334,-0.130592479,-0.106467612333333,0.025445621,0.106294149466667,-0.00817706360000001,-0.1474104236,-0.170660386866667,-0.262436045133333,-0.0333369451333334,0.0569621096666666,0.228707921,0.109979274333333,0.0268066916666667,-0.079125337,-0.267382990333333,-0.333145007666667,-0.382656519,-0.293313727466667,-0.165182211466667,-0.180346980133333,2177,"DG_s11",23.328,23.937,25.031,25.047,10,10,13,7,1.094,"Right",13,7,6,0,6,0,-6,6,"10-10",-3,3,13,10,7,10
"81",9,"LIN1-LIN2",0.146541046983333,-0.0395435876166667,0.00767703771666668,-0.0259307136166667,0.0475549183166667,0.14055191965,0.0529909429833333,0.0502889463166667,-0.0703874096833333,-0.115766255683333,-0.115999579016667,-0.0559801376833333,-0.0862127001833333,-0.03723597685,0.110907037816667,0.12396865965,0.127730332316667,-0.03374949035,0.0875913123166667,-0.0374426970166667,-0.0117728430166667,-0.04116820835,0.11718969165,0.04690163365,0.00991788631666666,-0.0797836798833333,-0.10871946655,-0.0816301878833333,-0.128864965016667,-0.0788957130166667,-0.0968615776833333,-0.0744107730166667,0.01841038365,0.0630326483166667,0.06389427445,0.0240785631166667,2177,"DG_s11",23.328,23.937,25.031,25.047,10,10,13,7,1.094,"Right",13,7,6,0,6,0,-6,6,"10-10",-3,3,13,10,7,10
"82",10,"LIN2-LIN3",-0.092599851,-0.217735277,-0.182124972333333,-0.0336203923333333,0.00601809966666667,0.0612855083333333,0.048463157,0.051345385,-0.106620901666667,-0.176764641666667,-0.236457325,-0.107567892333333,0.00462550753333333,0.1318691982,0.120622498866667,0.075029291,0.1603293174,0.1506547574,0.210604210733333,0.189158857,0.314652310333333,0.192895577666667,0.214409031,0.0830675576666667,0.190913029666667,0.1056575296,0.176840778066667,0.105316426066667,0.107078335466667,0.0110113276666667,-0.040469679,-0.137499301666667,-0.0844262463333333,-0.117647581,0.00942956233333333,0.0135074496666667,2178,"DG_s11",26.047,26.656,27.703,27.718,10,10,10,26,1.047,"Left",10,26,16,0,16,16,0,-16,"10-10",0,-16,10,10,10,26
"83",10,"RIN9-RIN10",0.111715559318333,0.246269697985,0.219000153985,0.214182950651667,0.0944019573183333,0.083930971985,0.0334343666516667,0.0363044666516667,0.119735362651667,0.196441641518333,0.240220754185,0.0401503408516667,0.00799972551833333,-0.0526634304816667,0.0760261155183333,-0.0200369693483333,0.0544157473183333,-0.027473930015,-0.00355845108166667,-0.0100894110816667,0.163238560251667,0.263846828651667,0.204819889985,0.0655172153183333,0.141057637318333,0.120595929318333,0.0390437225183333,-0.212668066815,-0.192498476815,-0.0945046266816667,-0.101359560015,-0.137861956681667,0.0527922713183333,0.115581597985,0.158468835985,-0.0549219806816667,2178,"DG_s11",26.047,26.656,27.703,27.718,10,10,10,26,1.047,"Left",10,26,16,0,16,16,0,-16,"10-10",0,-16,10,10,10,26
"84",10,"RIN2-RIN3",0.0258464458,0.00569793246666667,0.0107330554,0.00392293473333336,-0.0263649659333333,-0.0165516842,0.0260121424666667,0.157706940333333,0.168788034333333,0.178261633,0.2298721758,0.2513930478,0.376263216466667,0.330909223133333,0.3762062498,0.271924083133333,0.266738871133333,0.127209401133333,0.100058129133333,0.0563492411333333,0.225178401133333,0.256236186466667,0.2095850778,0.138792220466667,0.106410730466667,0.2305773038,0.2375671818,0.339060758466667,0.2675202538,0.167635333133333,0.0332805131333333,0.0188954784666667,0.0934748884666667,0.196452389133333,0.148930557133333,0.137104159133333,2178,"DG_s11",26.047,26.656,27.703,27.718,10,10,10,26,1.047,"Left",10,26,16,0,16,16,0,-16,"10-10",0,-16,10,10,10,26
"85",10,"LIN4-LIN5",-0.0739522880766667,-0.0900913367433333,-0.0726226160766667,-0.0907503040766667,-0.182606307943333,-0.25269644061,-0.26366407861,-0.15592010321,-0.182606529876667,-0.319672731876667,-0.37528483541,-0.36958353741,-0.250312422743333,-0.34477145541,-0.33203930141,-0.304624256076667,-0.220419494076667,-0.272602254076667,-0.32315630941,-0.348332936076667,-0.26610644941,-0.286614916076667,-0.0977813847433333,-0.0711879247433333,-0.0161353180766667,-0.09614046141,-0.175135788076667,-0.15540021541,-0.0946455187433333,-0.109597398743333,-0.22326394941,-0.15189300941,-0.0288146554766667,0.00317633265666667,-0.25901195401,-0.27706265461,2178,"DG_s11",26.047,26.656,27.703,27.718,10,10,10,26,1.047,"Left",10,26,16,0,16,16,0,-16,"10-10",0,-16,10,10,10,26
"86",10,"RIN1-RIN2",-0.0363256068333333,-0.0672822961666667,0.0461290838333333,0.0216168138333333,0.0521843032333333,-0.0192329887666667,-0.0218574554333333,-0.0240637575,-0.0086134975,0.1025478127,0.181127028033333,0.2776083947,0.325712611166667,0.293114507833333,0.271373631833333,0.1167175905,0.173273339833333,0.112767979166667,0.132141873833333,0.0567924751666667,0.0840643132333333,0.207772278566667,0.0948159372333333,-0.0147039568333333,-0.2059193555,-0.264490294833333,-0.3116471055,-0.232975328833333,-0.1217659455,-0.1219180547,-0.0295190253666667,-0.00702890203333333,0.1204171805,-0.0125498535,-0.0726607468333333,-0.188271026833333,2178,"DG_s11",26.047,26.656,27.703,27.718,10,10,10,26,1.047,"Left",10,26,16,0,16,16,0,-16,"10-10",0,-16,10,10,10,26
"87",10,"LIN9-LIN10",-0.0258858405,-0.0501868111666667,-0.0179676985,-0.123616517833333,0.0191830195,0.194498686166667,0.262261290366667,0.1794388695,0.109414524166667,0.1908164713,0.1573795121,-0.0116208832333333,-0.00347712989999999,-0.0332499571666667,-0.0852797031666667,-0.237252273166667,-0.201427287833333,-0.143320441833333,-0.155411037706667,-0.0510744143733333,0.15831437296,0.248508172166667,0.1823958775,0.0601848375,-0.00443405116666667,0.00912052216666667,0.0778995488333333,0.0680087988333333,0.161019738833333,-0.0175462938333333,0.146255298166667,0.140142878166667,0.496156710833333,0.470004247766667,0.343594528433333,0.1655175071,2178,"DG_s11",26.047,26.656,27.703,27.718,10,10,10,26,1.047,"Left",10,26,16,0,16,16,0,-16,"10-10",0,-16,10,10,10,26
"88",10,"LIN3-LIN4",0.104806428966667,0.0332699364733333,0.0932334236733333,0.175070367873333,0.0777566603666667,-0.0293361968333333,-0.2068279459,-0.190724395233333,-0.213448371233333,-0.136849266833333,0.0088714825,0.123167757166667,0.0622430958333333,-0.00427028616666666,0.0119493071666667,0.212711454966667,0.169146534966667,0.1335016683,0.0879874065,0.1472586465,0.210994893166667,0.140731937166667,0.2030526305,0.101375637833333,0.0733943885,0.00282761516666667,-0.0329258021666667,-0.0601916302333333,-0.0980325109,-0.1289894409,-0.0514040341666667,-0.0738609488333333,-0.0205057996333333,-0.131709680966667,-0.0843925483,-0.0253908421666667,2178,"DG_s11",26.047,26.656,27.703,27.718,10,10,10,26,1.047,"Left",10,26,16,0,16,16,0,-16,"10-10",0,-16,10,10,10,26
"89",10,"RIN3-RIN4",0.106959133,0.0547719972666667,0.1021538466,0.0142508486,0.0828472263333333,0.00307892366666666,0.0393838836666667,-0.046953183,-0.038528859,-0.140057427666667,0.005396591,0.153763593,0.387508036333333,0.246932272333333,0.109959275126667,-0.04646564554,-0.0632994162733333,-0.0664393037333333,-0.0563464284,-0.0253264036666667,0.132059261,0.126742561666667,0.117856917666667,-0.0512893136666667,-0.092227345,0.0154887236666667,0.105592969,0.227708190333333,0.231075743666667,0.134497536066667,0.1411007394,0.0622255420666667,0.181578171666667,0.12091749474,0.178568305406667,0.0839769230066667,2178,"DG_s11",26.047,26.656,27.703,27.718,10,10,10,26,1.047,"Left",10,26,16,0,16,16,0,-16,"10-10",0,-16,10,10,10,26
"90",10,"LIN1-LIN2",-0.0202443744666667,0.0117100668666667,-0.0355971541333333,-0.0412537901333333,-0.0429446288,-0.0600147781333333,0.0935547978666667,0.0569779852,0.0819880685333333,0.0845671865333333,0.0731883672,0.107285743866667,0.0570597418666667,0.14038667874,0.21004506674,0.19057611794,0.2218485266,0.220089137266667,0.203982524333333,0.0974037554666667,0.116320829466667,0.0904190785333333,0.1527455852,0.0381214952,0.0483582298666667,0.1055165592,0.0655163105333333,0.0593283538666667,-0.0986289128,-0.0546185221333333,-0.0472673121333333,0.0449556005333333,-0.00127964013333334,-0.0512160441333333,-0.133447923466667,-0.0354794114666667,2178,"DG_s11",26.047,26.656,27.703,27.718,10,10,10,26,1.047,"Left",10,26,16,0,16,16,0,-16,"10-10",0,-16,10,10,10,26
"91",11,"LIN1-LIN2",0.0329994690333333,-0.0480441823666667,-0.0304241290333333,0.114934106966667,0.1479013173,0.0331173706333333,-0.0755090160333333,-0.0584209643,0.0518657410333333,0.1513522297,0.128794187966667,0.1011818433,0.1589373613,0.154589708566667,0.2622208193,0.287455865966667,0.345501864433333,0.2615720997,0.265518033033333,0.279713662366667,0.302882555033333,0.142928912366667,0.00509915503333334,-0.0797751276333333,-0.1552481583,-0.240181311633333,-0.177461372966667,-0.0270666663,0.235109467033333,0.201778228366667,0.1905888217,-0.0111902356333333,-0.0679140018333333,-0.153431021833333,-0.155722317833333,-0.140826000966667,2179,"DG_s11",28.718,29.328,30.156,30.172,10,10,13,22,0.828,"Left",13,22,9,0,9,9,0,-9,"10-10",-3,-12,10,13,10,22
"92",11,"LIN9-LIN10",0.03308001455,-0.09329000945,-0.0648712895833333,0.126203970416667,0.20387570335,0.30204460215,0.225217975483333,0.295231809216667,0.180676409216667,0.11466369455,0.154890841216667,0.11297103455,0.113175665216667,0.04210699855,0.10207093855,0.232289096483333,0.23241592715,0.13970175995,0.16607742735,0.10874297535,0.15419348255,0.02421625855,0.178298433216667,0.228971119883333,0.22392085855,0.180964927883333,0.18132443455,0.293978627883333,0.371588805216667,0.274347597216667,0.225596255216667,0.280487855216667,0.408401441883333,0.605831621216667,0.32577656655,0.19942127295,2179,"DG_s11",28.718,29.328,30.156,30.172,10,10,13,22,0.828,"Left",13,22,9,0,9,9,0,-9,"10-10",-3,-12,10,13,10,22
"93",11,"RIN3-RIN4",0.108694562866667,0.221385689533333,0.180193833533333,0.156377862866667,0.0508744762,0.100315272866667,0.168599352866667,0.155229430866667,0.0335715242,0.00261828886666667,0.0310690022,0.123987960866667,0.192862425266667,0.424404247266667,0.5003967926,0.459085610866667,0.326557017533333,0.204083294333333,0.154753969,0.0629141956666667,0.113616407533333,0.153972442866667,0.225597869533333,0.2087987582,0.1246297082,0.0210398415333333,-0.0157796871333333,0.0339766495333333,0.0771145576,0.113143869626667,0.110994736293333,0.120890094893333,0.251336943533333,0.222017558866667,0.2414464722,0.235248325533333,2179,"DG_s11",28.718,29.328,30.156,30.172,10,10,13,22,0.828,"Left",13,22,9,0,9,9,0,-9,"10-10",-3,-12,10,13,10,22
"94",11,"RIN2-RIN3",0.0639099616666667,0.081923083,0.018666815,0.0418349456666667,-0.106815577666667,-0.0551527433333333,-0.005276242,0.0124523566666667,-0.0288732696666667,-0.0785961643333333,-0.0175825303333333,0.086929221,0.103629681666667,0.151430321666667,0.290976229666667,0.278724743666667,0.169170625,-0.0117107988666667,0.0188003498,0.0440624366,-0.0127900748666667,-0.107717206866667,-0.110724195666667,-0.0664287876666667,-0.003520341,0.009067551,0.154588465666667,0.259300054333333,0.201703495,0.226762838733333,0.1325025274,0.253033416666667,0.118879304933333,0.0977802597333333,0.0346496591333333,0.0604671724666667,2179,"DG_s11",28.718,29.328,30.156,30.172,10,10,13,22,0.828,"Left",13,22,9,0,9,9,0,-9,"10-10",-3,-12,10,13,10,22
"95",11,"RIN1-RIN2",-0.2941204051,-0.430721548833333,-0.452230582833333,-0.4123162375,-0.450373906166667,-0.285211006166667,-0.1853939935,-0.0886813221666666,-0.1527562735,-0.164979312166667,-0.172144842166667,-0.223420990033333,-0.291947493366667,-0.180323493966667,-0.0774250947666666,-0.1202779721,-0.264872616166667,-0.3478063895,-0.276025268833333,-0.314036362166667,-0.302259204166667,-0.3172543595,-0.335903964833333,-0.249924702833333,-0.2240932695,-0.142820636833333,-0.269042488833333,-0.351949992833333,-0.3359229755,-0.1444013075,-0.1170556675,-0.181508345766667,-0.285203423766667,-0.199482577766667,-0.114818276166667,0.0484827618333333,2179,"DG_s11",28.718,29.328,30.156,30.172,10,10,13,22,0.828,"Left",13,22,9,0,9,9,0,-9,"10-10",-3,-12,10,13,10,22
"96",11,"LIN3-LIN4",0.0211274179166667,-0.0289925640833333,0.0522542899166667,0.201789229916667,0.392863550583333,0.439973023916667,0.371562178583333,0.260921353916667,0.245210497916667,0.21226239925,0.227962573916667,0.0718584699166667,0.152520103916667,0.03111195525,0.18863549525,0.19477901725,0.287220492583333,0.22986954865,0.304574223316667,0.238135571983333,0.178966630583333,0.156574003916667,0.271937978583333,0.299560370583333,0.295959630583333,0.24451546525,0.21551378525,0.131159531916667,0.06692741725,0.150594060583333,0.294601541716667,0.408713241716667,0.323425771716667,0.206854136583333,0.205014184936667,0.255977820936667,2179,"DG_s11",28.718,29.328,30.156,30.172,10,10,13,22,0.828,"Left",13,22,9,0,9,9,0,-9,"10-10",-3,-12,10,13,10,22
"97",11,"LIN4-LIN5",0.0686285772,0.0898540698666667,-0.060500687,-0.204669140333333,-0.233637239,-0.210602806333333,-0.122748715,-0.107619107,-0.091625303,-0.034613677,0.025277407,0.00565143100000001,-0.126820376333333,-0.258434404333333,-0.326266023666667,-0.250371939666667,-0.157897451666667,-0.112800898333333,-0.148465962333333,-0.153823819666667,-0.100581968866667,-0.0596347148666667,-0.0052165642,-0.0733135894666667,-0.0284692561333333,-0.00763254946666667,0.0330646742666667,0.0098669736,-0.1350960504,-0.206376505333333,-0.290383656,-0.240298969333333,-0.195716547,-0.169638648333333,-0.191937906333333,-0.125763968333333,2179,"DG_s11",28.718,29.328,30.156,30.172,10,10,13,22,0.828,"Left",13,22,9,0,9,9,0,-9,"10-10",-3,-12,10,13,10,22
"98",11,"RIN9-RIN10",0.177040651833333,0.0727598398333333,0.1417684707,0.0946228800333333,0.2303678867,0.2099198645,0.2214995945,0.2881663545,0.378119163166667,0.278248933166667,0.1849615981,0.0568971247666667,0.2063022021,0.207571843166667,0.177146429833333,0.1280131845,0.180758951833333,0.234802019166667,0.252393437833333,0.1314351085,0.0264281678333333,-0.0899485721666667,-0.0471101428333333,0.0446717971666667,0.168269485833333,0.205266061966667,0.109914548633333,0.1584376933,0.171705044833333,0.3861397515,0.333327828833333,0.293841001833333,0.194653225166667,0.230331421166667,0.3002212805,0.245980921833333,2179,"DG_s11",28.718,29.328,30.156,30.172,10,10,13,22,0.828,"Left",13,22,9,0,9,9,0,-9,"10-10",-3,-12,10,13,10,22
"99",11,"LIN2-LIN3",0.0444752033333333,-0.00970189933333333,-0.0428735593333333,-0.105826989333333,-0.0109729373333333,-0.00309767733333333,0.054348232,-0.0423130973333333,-0.160304150666667,-0.108302542,-0.0511598306666667,0.0473903426666667,0.0875451873333333,0.0671511386666667,0.224190365333333,0.267591048,0.447482105333333,0.246070032,0.09072783,-0.11196037,-0.149715224,-0.155609121333333,0.0339567766666667,0.0922554392666667,0.1300370906,-0.0594512954,-0.0993861173333333,-0.150090142,-0.1044378372,-0.145900270533333,-0.0872868205333333,-0.125340480666667,-0.0257981333333333,-0.0445709733333333,-0.0125825972666667,0.0962314420666667,2179,"DG_s11",28.718,29.328,30.156,30.172,10,10,13,22,0.828,"Left",13,22,9,0,9,9,0,-9,"10-10",-3,-12,10,13,10,22
"100",12,"RIN1-RIN2",-0.337871391266667,-0.3374906654,-0.334256298066667,-0.354694798066667,-0.346538789933333,-0.3033952186,-0.204664369933333,-0.1620884306,-0.1350100826,-0.161190517933333,-0.144989489933333,-0.144901763266667,-0.1970649746,-0.263551936866667,-0.2255431902,-0.151383245533333,-0.0723226712666667,-0.0715568246,-0.0227607072666667,-0.0340068272666667,-0.0827336106,0.0210831954,0.2031346354,0.305103552066667,0.227312218066667,-0.0124564659333333,-0.0537460859333333,-0.0470721932,0.0279257694666667,0.0235286561333334,-0.0519086332666667,-0.224464871933333,-0.241512329933333,-0.317016017133333,-0.309630390466667,-0.440346575133333,2180,"DG_s11",31.172,31.781,33.125,33.14,10,10,16,4,1.344,"Right",16,4,12,0,12,0,-12,12,"10-10",-6,6,16,10,4,10
"101",12,"RIN9-RIN10",-0.0913792453333333,-0.0451893026666667,-0.00339157466666666,-0.00905521933333333,-0.0964565833333333,-0.0609054826666667,-0.0568433713333333,-0.01529969,-0.0780069313333333,-0.105663782666667,-0.057465476,-0.099279552,-0.120530365333333,-0.137192638,-0.0889672066666667,-0.0224964146666667,-0.0344822699333333,0.0653549487333333,0.0802225321333333,0.1566301954,0.0350137067333333,0.0694056606666667,-0.0268705349333333,0.0647819530666667,0.0154488690666667,-0.00528413999999999,-0.125840992666667,-0.137368185333333,-0.0879304448666667,-0.00705933153333333,0.170349478466667,0.15090628,0.0507202697333333,-0.1747868036,-0.195713846266667,-0.082827756,2180,"DG_s11",31.172,31.781,33.125,33.14,10,10,16,4,1.344,"Right",16,4,12,0,12,0,-12,12,"10-10",-6,6,16,10,4,10
"102",12,"LIN2-LIN3",-0.110455925166667,-0.1715946915,-0.135634534166667,-0.153491183833333,-0.0423859475,-0.1665472475,-0.1277143865,-0.1978049185,-0.1309934185,-0.0914463585,-0.0569007698333333,0.00729423083333333,-0.0484392698333333,-0.0580983018333333,-0.155439743166667,-0.130936875833333,-0.2132300905,-0.103494859833333,-0.1481438665,-0.125145461833333,-0.141781625166667,0.203138154833333,0.449632514833333,0.472562048166667,0.313271514833333,0.151576098166667,0.170235738166667,0.0703210048333333,0.0488154381666667,0.1250891435,0.216717270166667,0.102455326833333,-0.1510057185,-0.2541480165,-0.1843256565,-0.143814977166667,2180,"DG_s11",31.172,31.781,33.125,33.14,10,10,16,4,1.344,"Right",16,4,12,0,12,0,-12,12,"10-10",-6,6,16,10,4,10
"103",12,"RIN2-RIN3",-0.2016295129,-0.181555459566667,-0.129668907566667,-0.0633747638333333,-0.0541731258333333,0.0540493741666667,0.0372764428333333,0.0560719621666667,-0.0666496525,-0.120921235833333,-0.0738518945,-0.1122639145,-0.0858566431666667,-0.174860953166667,-0.0121781465,0.0263108495,-0.00841710183333334,-0.1444150785,-0.234231981166667,-0.170525472633333,-0.1477976613,-0.0389230786333333,0.2941157195,0.549589582833333,0.6259916767,0.279481628366667,0.122255316366667,-0.0420297975,0.0145409668333333,0.0832129608333333,0.110309570833333,0.0221094135,-0.192833893166667,-0.228719457166667,-0.165849389166667,-0.107041993833333,2180,"DG_s11",31.172,31.781,33.125,33.14,10,10,16,4,1.344,"Right",16,4,12,0,12,0,-12,12,"10-10",-6,6,16,10,4,10
"104",12,"LIN1-LIN2",-0.2560835567,-0.120691000166667,0.00384582716666668,0.0129767851666667,-0.1048089935,-0.194123766833333,-0.0984600528333333,0.0506137058333333,0.143948957166667,0.2066867105,0.1516723685,0.260059463833333,0.0501371125,-0.0648658101666667,-0.217181322833333,-0.175459264833333,-0.147872664166667,-0.0659236915,0.0218097391666667,0.0492684525,0.0908499638333333,0.223739053166667,0.345206017166667,0.2095080865,0.0105122151666667,-0.139305984833333,-0.0225215928333333,-0.0158587636333333,0.119217336366667,0.1430396837,0.391272899166667,0.314216339166667,0.215499005166667,-0.0230784535,-0.0461045741666667,-0.0999661528333333,2180,"DG_s11",31.172,31.781,33.125,33.14,10,10,16,4,1.344,"Right",16,4,12,0,12,0,-12,12,"10-10",-6,6,16,10,4,10
"105",12,"LIN3-LIN4",-0.0181841170666667,-0.036605337,-0.0772758596666667,-0.028556713,0.0509398883333333,-0.0629051396666667,-0.0605476463333333,-0.134807803666667,-0.180121653,-0.149052666333333,-0.061731753,0.031323165,-0.0656987176666667,-0.133724133666667,-0.160758496333333,-0.0719312403333333,-0.051959119,-0.0325652276666667,-0.0243294876666667,-0.042128321,0.107973719,0.138403365666667,0.362387011666667,0.320717591666667,0.292796785,0.0551575823333333,0.016019309,0.0485702956666667,0.198442405,0.170183558746667,0.0868151254133333,-0.0432280065866667,-0.0414030136666667,0.0865883996666667,0.176231032333333,0.102837618333333,2180,"DG_s11",31.172,31.781,33.125,33.14,10,10,16,4,1.344,"Right",16,4,12,0,12,0,-12,12,"10-10",-6,6,16,10,4,10
"106",12,"LIN9-LIN10",0.144431710583333,0.14013292725,-0.0238725860833333,-0.0169109154166667,0.0103722939166667,0.255108560583333,0.127804054583333,0.09080009245,0.0163835691166667,0.307137353783333,0.37586697325,0.374391396583333,0.08027638325,0.00194682791666667,0.00838710925,0.227744335916667,0.208025477916667,0.198630888583333,0.189529441916667,0.282227081916667,0.237445316583333,0.0498938213833333,0.07643008805,0.132065361383333,0.101789236583333,-0.00901456341666666,0.08656020325,0.20984295125,0.173846937916667,0.0697538659166667,0.25187292725,0.29805185605,0.244927511383333,0.11530096005,0.0335071599166667,0.147434189916667,2180,"DG_s11",31.172,31.781,33.125,33.14,10,10,16,4,1.344,"Right",16,4,12,0,12,0,-12,12,"10-10",-6,6,16,10,4,10
"107",12,"RIN3-RIN4",0.0934675130033333,0.13077612715,0.12070355415,0.0235065068166667,0.0230660114833333,0.114967211483333,0.124489513483333,0.08132302015,-0.0652150545166667,-0.16860264785,-0.08300099185,-0.07376304185,0.197800331483333,0.212250228816667,0.370745888816667,0.18874198215,0.185248655483333,0.07054909615,0.0424931494833333,0.112986082816667,0.07906625575,0.113042883083333,0.06147350975,0.182623489483333,0.20232738215,0.174498135483333,0.13594541415,0.0834089908166667,0.127507130816667,0.112019920816667,0.275363310816667,0.22044040415,0.151202496816667,0.08380197015,0.239763063483333,0.31278042575,2180,"DG_s11",31.172,31.781,33.125,33.14,10,10,16,4,1.344,"Right",16,4,12,0,12,0,-12,12,"10-10",-6,6,16,10,4,10
"108",12,"LIN4-LIN5",0.119690478833333,0.1503375915,0.0791967648333333,0.0624942332333333,0.0107737472333333,0.0998597472333333,-0.00921685116666667,0.0109764401666667,0.0258195921666667,0.1373683855,0.198565456833333,0.1867992315,0.2033711555,0.1354885745,0.0411758611666667,-0.0800574775,-0.0882302431666667,-0.0896838765,-0.00917842316666667,0.0615558893733333,0.15086906744,0.0967062921066667,0.0535080729,0.130866026166667,0.265669236833333,0.315221046166667,0.2006782895,0.0405970808333333,0.0157709178333333,0.0663790308333333,0.0215765441666667,-0.0562050928333333,-0.0475162385,0.1264963195,0.242427216833333,0.223440550833333,2180,"DG_s11",31.172,31.781,33.125,33.14,10,10,16,4,1.344,"Right",16,4,12,0,12,0,-12,12,"10-10",-6,6,16,10,4,10
"109",13,"LIN3-LIN4",-0.0172165059166667,0.06183197395,0.129225327283333,0.189973195283333,0.11025944395,-0.0885959933166667,-0.199676534383333,-0.19950191105,-0.22140735885,-0.246445633783333,-0.34543749645,-0.31891809805,-0.25923347405,-0.09019721805,-0.06307953805,-0.0594760193833333,-0.0944930807166667,-0.0456102567166667,-0.189697243383333,-0.145453091383333,-0.116699688716667,-0.0893945107166667,-0.143966318716667,-0.25563366805,-0.17842449005,-0.18479288605,-0.13352347005,-0.171379061383333,-0.131704637383333,-0.142893389916667,-0.0759819839166667,-0.223972150583333,-0.255070943383333,-0.299950838716667,-0.17215677205,-0.181354549383333,2181,"DG_s11",34.14,34.75,35.468,35.484,10,10,8,11,0.718,"Left",8,11,3,0,3,3,0,-3,"10-10",2,-1,10,8,10,11
"110",13,"RIN3-RIN4",-0.075601139115,-0.061317393115,-0.108509805781667,-0.0264119964483333,0.0400359622183333,0.199410178218333,0.169912748218333,0.061214662885,-0.0434342220483333,-0.0421204303816667,0.0102431236183333,0.0123193245516667,0.0252202702183333,0.00699509555166666,0.0842757595516666,0.152407315551667,0.082866202885,0.0539489495516667,-0.00199806044833334,0.0468873262183333,-0.0580110737816667,-0.0896325204483333,-0.128404325781667,-0.0846757973816667,-0.0614234055816667,0.0828938444183333,0.036133942685,-0.039668447115,-0.0764699064483333,-0.049829273115,0.0455971715516667,-0.0343950137816667,0.0353523122183333,-0.0488232144483333,-0.0250763404483333,-0.115700243781667,2181,"DG_s11",34.14,34.75,35.468,35.484,10,10,8,11,0.718,"Left",8,11,3,0,3,3,0,-3,"10-10",2,-1,10,8,10,11
"111",13,"LIN1-LIN2",-0.258090723766667,-0.2845102959,-0.220189712,-0.185554506,-0.184283924,-0.204744327233333,-0.255931421233333,-0.2376845279,-0.236042865233333,0.00486475943333334,0.145619630766667,0.1028711101,-0.0719698979,-0.164862086766667,-0.0889918581,-0.00198160476666667,0.00868526343333334,0.0479177527666667,-0.0228684023666667,-0.0453675037,-0.0850620933,-0.1064911315,-0.153948602166667,-0.161413081233333,-0.268456574566667,-0.201295312566667,-0.162457893233333,-0.0341681459,0.0420246914333333,-0.106866608566667,-0.209134483233333,-0.3271257219,-0.310348161233333,-0.160316418566667,0.0257817401,0.0360153654333333,2181,"DG_s11",34.14,34.75,35.468,35.484,10,10,8,11,0.718,"Left",8,11,3,0,3,3,0,-3,"10-10",2,-1,10,8,10,11
"112",13,"LIN9-LIN10",0.1904048478,0.2118359498,0.105683015666667,0.154567276333333,0.051270823,0.198293123,0.100542807666667,0.135634614333333,0.0947286043333333,0.152054451666667,0.216388425,0.208049521666667,0.216982009666667,0.106101961666667,0.015910557,0.054112817,0.051316483,0.136163414333333,0.0391314876666667,-0.0299417269333333,-0.0485954089333333,0.1167230844,0.234305148333333,0.150177510133333,0.0728050834666667,0.0765378841333333,0.0846592421333333,0.0844686301333333,0.0778924954666667,0.195565070333333,0.171099017,0.134457315,0.080675849,0.041777629,0.0360824523333333,-0.014849767,2181,"DG_s11",34.14,34.75,35.468,35.484,10,10,8,11,0.718,"Left",8,11,3,0,3,3,0,-3,"10-10",2,-1,10,8,10,11
"113",13,"RIN9-RIN10",0.0436705667166667,-0.0218169406166667,-0.0307071326166667,-0.02159989599,0.0701544953433333,0.133701272676667,0.19888494605,0.214671953383333,0.23059882005,0.06691418605,-0.0762883146166667,-0.243446062283333,-0.08527968895,0.11220374505,0.289804872716667,0.506941632716667,0.39452382405,0.23046172405,0.0671041173833333,0.01293613205,0.0139293653833333,-0.0356780226166667,0.101753081383333,0.12782801405,0.0442785887166667,0.04516119805,0.111872289383333,0.25059642605,0.244892959383333,0.16973156205,0.193025641383333,0.0672915533833333,0.04571052005,0.0333523173833333,0.12219443205,0.201244806303333,2181,"DG_s11",34.14,34.75,35.468,35.484,10,10,8,11,0.718,"Left",8,11,3,0,3,3,0,-3,"10-10",2,-1,10,8,10,11
"114",13,"LIN4-LIN5",0.1445738295,0.158067542833333,0.0866569637666667,0.0134430371,0.0085396493,0.1345534217,0.106950706366667,0.1311323575,0.0154842268333333,-0.0103598005,-0.0178725588333333,0.0176695245,0.0477142125,0.1172816575,0.237006682166667,0.313203102833333,0.241568080833333,0.138031046833333,0.142186136166667,0.3028677415,0.222289408833333,0.166495960166667,0.0755480621666667,0.330635666833333,0.3521268675,0.3150049055,0.0262131668333333,0.00307254616666666,-0.0953642338333333,-0.00834460116666667,-0.0747759945,-0.0591019571666667,-0.0869155258333333,0.0759373253666667,0.218052532626667,0.226923858626667,2181,"DG_s11",34.14,34.75,35.468,35.484,10,10,8,11,0.718,"Left",8,11,3,0,3,3,0,-3,"10-10",2,-1,10,8,10,11
"115",13,"RIN1-RIN2",0.0911472033333333,0.123481417266667,0.190555835933333,0.235076379933333,0.228900864666667,0.356559874666667,0.29058317,0.199039664666667,0.090758938,0.093750288,0.243230313333333,0.332628486,0.277012656,0.295018994666667,0.346476995333333,0.4942191146,0.477490883266667,0.3512899106,0.287912024666667,0.144658247333333,0.123639087333333,0.106863973933333,0.156582099266667,0.186296303266667,0.115858535333333,0.143061617333333,0.204482752666667,0.307938562933333,0.316598340933333,0.252771805666667,0.300302310066667,0.335325396066667,0.359983924666667,0.330393147333333,0.300666114,0.288213726,2181,"DG_s11",34.14,34.75,35.468,35.484,10,10,8,11,0.718,"Left",8,11,3,0,3,3,0,-3,"10-10",2,-1,10,8,10,11
"116",13,"RIN2-RIN3",-0.0301807968733333,-0.04509581834,-0.01287265034,0.06011208166,0.0205158229933333,0.00564058052666666,0.0187057751933333,0.0699290065266667,0.0403497969933333,0.04122257366,-0.0545818690066667,0.0474236563266667,0.0782467509933333,0.257436082993333,0.356574196326667,0.279864278326667,0.187810918326667,0.228557004993333,0.28454988166,0.249109754993333,0.00599949855333333,-0.0114322681133333,-0.00331743678,0.02597275566,-0.01002786234,-0.0663708970066667,0.03264173926,0.06087313326,0.206921084593333,0.08573154366,0.112615306993333,-0.0334465590066667,-0.0475275058066667,-0.112320554473333,-0.174320321806667,-0.10754978234,2181,"DG_s11",34.14,34.75,35.468,35.484,10,10,8,11,0.718,"Left",8,11,3,0,3,3,0,-3,"10-10",2,-1,10,8,10,11
"117",13,"LIN2-LIN3",-0.17988952525,-0.152360490583333,-0.109154925916667,-0.181819443916667,-0.253800294583333,-0.317880890583333,-0.269266483916667,-0.221849690583333,-0.15438545405,-0.0328438313833333,0.0364539966166667,-0.0490612565833333,-0.120986688583333,-0.11561033525,-0.103764302583333,-0.0170970465833333,0.02921881075,0.04997879875,-0.0282933139166667,-0.0565562799166667,-0.00364374125,0.0809177932166666,0.09288106855,0.15042672855,0.12616596675,0.0225527042833333,-0.0850602957166667,-0.15706948305,-0.0437990819166667,-0.03956233525,-0.103254687916667,-0.214246437916667,-0.307511644583333,-0.23599977125,-0.168957987916667,-0.122409415603333,2181,"DG_s11",34.14,34.75,35.468,35.484,10,10,8,11,0.718,"Left",8,11,3,0,3,3,0,-3,"10-10",2,-1,10,8,10,11
"118",14,"LIN9-LIN10",-0.122473860733333,-0.0953967440666666,-0.212171837333333,-0.21743892,-0.108901354,-0.00910336199999998,0.0334705913333334,0.0714283893333333,-0.0216950573333333,-0.0494245693333333,-0.1803467388,-0.0945219494666667,-0.0860312794666667,-0.079698788,0.0121693786666667,0.142461704666667,0.319561984,0.248557634666667,0.016918608,-0.113235888666667,-0.178587422,-0.163986648,-0.207804550666667,-0.221747878666667,-0.0671624126666667,-0.0856226813333333,-0.0111433266666666,-0.0612022066666666,-0.029900226,-0.150742025333333,-0.148039306666667,-0.183105776,-0.118723389333333,-0.0935611946666667,0.0404679193333334,0.0958679453333334,2182,"DG_s11",36.484,37.093,37.922,37.922,18,18,10,10,0.829,"Left",18,18,0,0,0,0,0,0,"Equal",8,8,18,10,18,10
"119",14,"RIN1-RIN2",0.104731577366667,0.2880568403,0.1913992223,0.2133767903,0.0812792355,0.1757421015,0.163522114833333,0.117172002166667,0.0598588383,0.0255052996333333,0.0703301296333333,0.0284236395,0.0216728028333333,-0.0610922051666667,-0.0603398303,0.1564910217,0.2744052297,0.2774762715,0.128650206833333,0.0348491601666667,0.0132202461666667,0.114352638833333,0.0490706121666667,0.0709500889666667,-0.0469268310333333,-0.0532928977,0.0488259601666667,0.1447574735,0.2092995295,0.0967510235,0.0760882055,0.0590395157,0.0921994503666667,0.0742461637,0.211746230166667,0.246455062166667,2182,"DG_s11",36.484,37.093,37.922,37.922,18,18,10,10,0.829,"Left",18,18,0,0,0,0,0,0,"Equal",8,8,18,10,18,10
"120",14,"RIN9-RIN10",-0.0338214425,0.0519155581666667,-0.0180111139,0.0141169061,-0.1312338325,-0.1613249951,-0.114841461766667,-0.0353850761666667,0.1060856805,0.1192517205,0.241332984833333,0.2095195915,0.104281070833333,-0.102295887833333,-0.0553452425,-0.0677891065,0.00180894367999999,-0.03717493432,0.0372426063466667,-0.0836284851666667,-0.0679451025,-0.0231434531666667,0.148984146833333,0.197206718833333,0.1357233695,0.0164163541666667,-0.0573407291666667,-0.0442306285,-0.0685641418333333,0.0391585061666667,0.0791473895,0.10966026144,-0.00662334322666667,-0.0961456452266667,0.0720105661666667,0.197384120833333,2182,"DG_s11",36.484,37.093,37.922,37.922,18,18,10,10,0.829,"Left",18,18,0,0,0,0,0,0,"Equal",8,8,18,10,18,10
"121",14,"LIN3-LIN4",0.1894069045,0.128982631166667,0.1300229485,-0.00332166616666667,-0.0523784685,-0.1998194785,-0.175135493166667,-0.200483438833333,-0.0545882548333333,-0.0507209201666667,-0.0527684158333333,-0.0860898365,-0.00943081316666667,0.134435557166667,0.1908272005,0.0107647105,-0.0874106768333333,-0.0885424468333333,0.1177154425,0.161470401833333,0.00435380383333334,-0.144694439566667,-0.268477253566667,-0.264606386433333,-0.1709176017,-0.0319882723666667,0.231245301833333,0.376495737833333,0.4555286365,0.367171837166667,0.181656097833333,-0.0220875781666667,-0.0568083121666667,-0.0948833999666667,-0.0530786359666667,-0.1132867019,2182,"DG_s11",36.484,37.093,37.922,37.922,18,18,10,10,0.829,"Left",18,18,0,0,0,0,0,0,"Equal",8,8,18,10,18,10
"122",14,"RIN3-RIN4",0.146882285333333,0.0767303586666667,-0.0438121706666667,0.0290784526666667,0.0870347926666667,0.219628874666667,0.0481473646666667,-0.0289497966666667,0.08683184,0.227810586,0.299220419333333,0.225900786666667,0.164649398666667,0.13862472,0.165576060666667,0.11968203,0.132929696666667,0.173707323333333,0.247284849333333,0.228058275333333,0.0973423506666667,0.01596697,-0.0589013826666667,0.026981626,0.0357262126666667,0.0542689986666667,-0.0221349533333333,0.0389571325333333,0.127522846533333,0.167299860533333,0.116161406,-0.00597869266666667,-0.0117170306666667,0.00824612666666667,0.066224592,0.115801276,2182,"DG_s11",36.484,37.093,37.922,37.922,18,18,10,10,0.829,"Left",18,18,0,0,0,0,0,0,"Equal",8,8,18,10,18,10
"123",14,"LIN2-LIN3",-0.108956986666667,-0.067046492,0.0157417406666667,-0.0109085773333333,-0.0784415726666667,-0.049070016,0.049922108,0.066686152,-0.0224618893333333,-0.090872992,-0.0267962813333333,0.042653204,0.1870894062,0.230886937533333,0.261191635533333,0.100358212,0.0290791000666667,-0.0019392026,-0.0158742586,0.08213622,0.0888340113333333,0.176075503333333,0.20895705,0.146799823333333,0.051267272,-0.0030648,0.21183794,0.39957174,0.463672872,0.36469393,0.287107772,0.123915004,0.109027897333333,0.0610359153333333,0.1577058,0.0403140693333333,2182,"DG_s11",36.484,37.093,37.922,37.922,18,18,10,10,0.829,"Left",18,18,0,0,0,0,0,0,"Equal",8,8,18,10,18,10
"124",14,"LIN4-LIN5",0.226481957066667,0.209997421733333,0.137133759066667,0.0207526704,-0.0107443116,-0.0043431156,-0.0431606002666667,-0.0336004029333333,0.0735231804,0.103418163733333,0.0539574159333333,-0.0259355494,-0.0655086000666667,-0.0559602083333333,0.0883608603333333,0.122414297,0.282534247066667,0.198324871066667,0.284497569066667,0.251100083733333,0.258652485066667,0.1243897644,0.00929473506666667,0.0131782770666667,0.207785387133333,0.2327526038,0.283195083133333,0.246511579733333,0.178654645733333,0.0575856104,-0.0587394229333333,0.0617161020333333,0.0406749907,0.0736604740333333,-0.0194046656,0.0638026537333333,2182,"DG_s11",36.484,37.093,37.922,37.922,18,18,10,10,0.829,"Left",18,18,0,0,0,0,0,0,"Equal",8,8,18,10,18,10
"125",14,"RIN2-RIN3",0.0705155551666667,0.1001461505,0.0442770485,0.1249413445,0.166065305166667,0.2417237145,0.223983201833333,0.2696597285,0.483374287833333,0.470372545166667,0.499336237833333,0.371064125833333,0.44443052262,0.31598255902,0.231025347066667,0.150847736946667,0.195489061213333,0.2195018465,0.301230713166667,0.182867941833333,0.120830493833333,-0.0448851588333333,-0.0476000379666667,-0.0359632113,0.0473960173666667,0.0816548725,0.1198672545,0.112358565166667,0.2236041325,0.1413467505,0.160344997166667,0.0964350660333333,0.217237582033333,0.2060899567,0.272653829166667,0.252564095166667,2182,"DG_s11",36.484,37.093,37.922,37.922,18,18,10,10,0.829,"Left",18,18,0,0,0,0,0,0,"Equal",8,8,18,10,18,10
"126",14,"LIN1-LIN2",0.141292376666667,0.115627048,0.125439924933333,9.60769333333347e-05,0.0494956602666667,0.127690860666667,0.113987660666667,0.0401161526666667,-0.128017122666667,-0.0320027826666667,-0.00399008266666666,0.0775333566666667,0.245260336666667,0.424399163333333,0.463700119333333,0.289059300666667,0.169880067333333,0.184632272,0.155678397333333,0.230235724,0.251786459333333,0.297610233333333,0.27905192,0.259227506666667,0.187881537333333,0.180167624,0.0597243353333333,0.113267901333333,-0.069918352,-0.0442284166666667,-0.0284534526666667,0.161318435333333,0.192440625333333,0.252405790666667,0.217210953266667,0.179994799933333,2182,"DG_s11",36.484,37.093,37.922,37.922,18,18,10,10,0.829,"Left",18,18,0,0,0,0,0,0,"Equal",8,8,18,10,18,10
"127",15,"RIN9-RIN10",-0.0211729131666667,0.0540183408333333,-0.0579815338333333,-0.1582722505,-0.2108635305,-0.245270396033333,-0.161596265366667,-0.1364032995,0.00050891003333333,-0.00629557596666667,0.0953710801666667,-0.0364113371666667,-0.0760186118333333,-0.172051005833333,-0.1465803037,-0.0897271670333333,-0.150793248366667,0.0196318895,-0.0455527171666667,0.1297000095,-0.0220587705,0.0780751775,0.0546799041666667,0.1203846295,0.0644421221666667,-0.0640143045,-0.1172215785,-0.0227789134333333,0.0227195599,0.0529741119,-0.0286050138333333,-0.147275367166667,-0.154528103233333,-0.1405200779,-0.1033402179,-0.1266989325,2183,"DG_s11",38.922,39.531,40.687,40.687,10,10,8,16,1.156,"Right",8,16,8,0,8,8,0,-8,"10-10",2,-6,8,10,16,10
"128",15,"RIN1-RIN2",-0.0308838795,0.0985860005,0.143869609166667,0.220986481166667,0.0567418885,-0.0313903501666667,-0.0771134955,-0.162746736166667,-0.1318812855,-0.161561306166667,0.0323296605,-0.0077129735,0.0329668315666667,-0.0472409217666667,0.0937105149,-0.0186880028333333,-0.0818731655,-0.1635627955,-0.0711431994333333,-0.0210844261,-0.0269841294333333,0.0772211751666667,-0.0125626301666667,0.0287503031666667,0.0379440758333333,0.0554197301,0.00902520476666667,-0.128578961766667,-0.1681555547,-0.186035251566667,-0.0983229357,0.00851679096666667,0.0270525171666667,-0.0439781435,-0.0181657848333333,0.2334167803,2183,"DG_s11",38.922,39.531,40.687,40.687,10,10,8,16,1.156,"Right",8,16,8,0,8,8,0,-8,"10-10",2,-6,8,10,16,10
"129",15,"LIN1-LIN2",0.0596869593333333,0.104556084666667,0.224626339333333,0.216675019333333,0.137837268666667,0.109699197733333,0.1593020124,0.1484083844,0.187981767333333,0.0859661726666667,0.0585415906,-0.0230714074,0.0448018124666667,0.0353327688666667,0.0012889312,-0.00396266426666667,0.0509416347333333,0.128405941733333,0.0668054173333333,0.106358584,0.0952108126666667,0.127772351333333,0.01970449,0.122311782,0.213033581333333,0.353940743333333,0.272442204666667,0.203826566666667,0.100634701466667,0.107580538133333,0.150400194133333,0.163800737333333,0.0874830613333333,0.115393872,0.111863331333333,0.171045581333333,2183,"DG_s11",38.922,39.531,40.687,40.687,10,10,8,16,1.156,"Right",8,16,8,0,8,8,0,-8,"10-10",2,-6,8,10,16,10
"130",15,"LIN4-LIN5",-0.110946191883333,-0.115028833883333,-0.05634368055,0.0114325527833333,-0.0481034332166667,-0.185106069216667,-0.22020210655,-0.254056091883333,-0.19001325055,-0.225224933216667,-0.225880632016667,-0.242355254683333,-0.226959918016667,-0.26057731255,-0.31019370055,-0.341908823883333,-0.16182959055,-0.05785351855,0.0451275161166667,-0.09885430655,-0.116429383216667,-0.126546943883333,0.0327806433166667,0.0193367703833333,0.0480204577166667,-0.01213828015,0.0598376827833333,0.0710891041166667,0.226133550783333,0.17718938945,0.101591126116667,-0.100753989883333,-0.09798688055,-0.0158067318833333,0.0980407907833333,-0.00131816921666666,2183,"DG_s11",38.922,39.531,40.687,40.687,10,10,8,16,1.156,"Right",8,16,8,0,8,8,0,-8,"10-10",2,-6,8,10,16,10
"131",15,"LIN3-LIN4",0.194589611466667,0.1491694028,0.136076582133333,0.2791376722,0.381983691533333,0.2952993462,0.241307433066667,0.204691429733333,0.240206069066667,0.1456995602,0.0187585908666667,0.0836251782,0.234612674866667,0.3169437048,0.308499469466667,0.1850885728,0.169694402866667,0.1364438002,0.175265910693333,0.09477383136,0.0132248690266667,0.0537273398666667,0.1629308052,0.278582285533333,0.1980723862,0.119383593533333,0.0329622202,0.118615020866667,0.1128273042,0.142654363533333,0.132989662866667,0.225330845533333,0.246118497533333,0.177243567533333,0.0970665608666667,0.0833647268666667,2183,"DG_s11",38.922,39.531,40.687,40.687,10,10,8,16,1.156,"Right",8,16,8,0,8,8,0,-8,"10-10",2,-6,8,10,16,10
"132",15,"RIN2-RIN3",-0.01059911735,0.00726695031666666,0.12803915765,0.0932761523166667,0.0372271603166667,-0.0316830130166667,0.000365787649999998,0.0502084363166667,-0.03407145635,-0.0887884650166667,0.0682897049833333,0.226542430983333,0.244605870983333,0.0680085943166667,-0.00772349901666667,0.01736958765,0.0733808983166667,0.0170980814966667,0.10745981483,0.01095367083,0.109441562316667,-0.02074063835,0.0807460409833333,0.00822620898333333,-0.0103584430166667,-0.100904145683333,-0.181542875016667,-0.226382929016667,-0.287129269016667,-0.219588109016667,-0.186871141616667,-0.02729263495,-0.0358274076166667,-0.00131924301666667,-0.110951647016667,-0.0244037236833333,2183,"DG_s11",38.922,39.531,40.687,40.687,10,10,8,16,1.156,"Right",8,16,8,0,8,8,0,-8,"10-10",2,-6,8,10,16,10
"133",15,"RIN3-RIN4",0.00928000613333333,-0.022985446,0.0453803372,-0.0321206832,0.00505339813333333,0.0449209549333333,0.146862403333333,0.150192054,0.0510076926666667,-0.0455734658,-0.00208651646666667,0.0460071428666667,0.0763429866666667,-0.0138248673333333,-0.0730173293333333,-0.0603444393333333,-0.116957775333333,-0.046251416,0.0842608866666667,0.210862226666667,0.308015284,0.160574237333333,0.143226653333333,0.0980485646666667,0.0717359966666667,-0.0112893006666667,-0.157211213333333,-0.115912412,-0.0242761153333333,0.0626888346666667,0.103885421333333,0.0530634726666667,0.0233024973333333,0.0100646266666667,-0.0203659746666667,-0.0965999206666667,2183,"DG_s11",38.922,39.531,40.687,40.687,10,10,8,16,1.156,"Right",8,16,8,0,8,8,0,-8,"10-10",2,-6,8,10,16,10
