"","trial","electrodes","bin_3","bin_4","bin_5","bin_6","bin_7","bin_8","bin_9","bin_10","bin_11","bin_12","bin_13","bin_14","bin_15","bin_16","bin_17","bin_18","bin_19","bin_20","bin_21","bin_22","bin_23","bin_24","bin_25","bin_26","X","SID","newround_time","choice_time","buttonpress_time","reveal_time","self_payoff","other_payoff","self_foregone","other_foregone","RT","side_chosen","self_var_payoff","other_var_payoff","ineq_var_abs","ineq_choice_abs","ineq_foregone_abs","ineq_disadvent","ineq_advent","ineq_choice","chose_equality","self_diff","other_diff","L_self","R_self","L_other","R_other"
"1",1,"LIN2-LIN3",0.08538049765,0.01590160865,-0.03383901935,0.11482173255,0.17872024255,0.12785141465,0.23094434465,0.26510735465,0.10945688265,-0.04159868435,-0.01689868235,-0.04957667735,-0.08773281735,-0.09366854935,0.09661821065,0.05825768465,-0.26556250535,-0.23089687535,0.05706313465,0.07461720865,-0.12272038535,-0.20205406935,-0.03179808535,0.07369898065,2169,"DG_s11",-0.61,0,2.015,2.031,10,10,10,18,2.015,"Left",10,18,8,0,8,8,0,-8,"10-10",0,-8,10,10,10,18
"2",1,"LIN9-LIN10",0.0106101915,0.0077210025,0.00467666050000001,-0.0146091725,0.0426334365,0.1035203435,-0.00754883049999999,0.060037073,0.181340671,0.160080163,0.075467159,0.0461889445,0.2430077445,0.1937621905,0.0840698845,0.1047297445,-0.0768193995,-0.1384168475,0.0435159629,0.4840814609,0.5141876005,0.2686965905,0.3186798905,0.2973454345,2169,"DG_s11",-0.61,0,2.015,2.031,10,10,10,18,2.015,"Left",10,18,8,0,8,8,0,-8,"10-10",0,-8,10,10,10,18
"3",1,"LIN3-LIN4",0.4314309548,0.5923518948,0.5924820348,0.4265669548,0.1672889988,0.3603625968,0.4997719428,0.2335820698,0.2819623318,0.3378470108,0.0635946988,-0.0882193802,0.1540125598,0.2517037438,0.2887663358,0.2129782368,0.2327738928,0.3833910658,0.5656566378,0.4189906148,0.1228350948,0.2327009548,0.2444217248,0.1528681548,2169,"DG_s11",-0.61,0,2.015,2.031,10,10,10,18,2.015,"Left",10,18,8,0,8,8,0,-8,"10-10",0,-8,10,10,10,18
"4",1,"RIN9-RIN10",0.277949266,0.191674099,0.225234112,0.049929847,-0.160073912,-0.17588644,-0.192838306,-0.189376328,-0.140932485,0.132345897,0.22418541,0.0752243,0.0148760188965,-0.0171473581035,-0.009891515,-0.025379608,-0.123471933,-0.136665923,-0.087988386,-0.050614236,-0.151689261,-0.129123829,-0.003184092,0.015079779,2169,"DG_s11",-0.61,0,2.015,2.031,10,10,10,18,2.015,"Left",10,18,8,0,8,8,0,-8,"10-10",0,-8,10,10,10,18
"5",1,"LIN4-LIN5",-0.00765728,0.212098715,0.182968155,-0.032035856,-0.103136321,-0.0521773977,-0.03639680319,-0.02419550749,-0.026595617,0.06303566,0.24112534,0.13550566,0.005016217,0.017970156,0.052987576,0.216486137,0.184062341,0.039957353,0.028101033,-0.043423296,0.102955183,0.23666199,0.091531187,-0.091463793,2169,"DG_s11",-0.61,0,2.015,2.031,10,10,10,18,2.015,"Left",10,18,8,0,8,8,0,-8,"10-10",0,-8,10,10,10,18
"6",1,"RIN1-RIN2",0.0103182175,-0.2530038785,-0.1299185645,-0.1504490685,-0.2155344185,-0.1531271285,-0.1812645745,0.0474821455,0.2053901715,-0.0186165385,0.2021882315,0.1731935215,-0.2556053108,-0.2813315108,-0.1997613395,0.0818027955,-0.1565772435,-0.2620410435,0.1090623565,-0.1301400875,-0.3503412855,-0.1143440765,-0.0267627345,-0.1796786445,2169,"DG_s11",-0.61,0,2.015,2.031,10,10,10,18,2.015,"Left",10,18,8,0,8,8,0,-8,"10-10",0,-8,10,10,10,18
"7",1,"RIN3-RIN4",0.120303093,0.0946918668,0.0911150168,0.1736323147,0.0537315887,-0.071304442,0.062474459,0.190699829,0.046643344,-0.105156312,0.112365858,0.128968065,-0.0485729547,0.0369890343,0.1091068571,0.1955542989,0.0659699994,-0.1024769324,0.102256274,0.2075844414,0.0786200954,-0.084907155,0.115929431,0.183732452,2169,"DG_s11",-0.61,0,2.015,2.031,10,10,10,18,2.015,"Left",10,18,8,0,8,8,0,-8,"10-10",0,-8,10,10,10,18
"8",1,"RIN2-RIN3",-0.0682931712,0.00615987649999999,0.0640777605,-0.0289390795,0.0779142925,0.1941759725,0.4949550125,0.2787477255,-0.0352219605,0.0099511165,0.1200973725,0.1656277475,-0.1670912425,-0.3892437795,-0.2761459315,-0.0977774337,-0.1453913017,-0.1285887455,0.4053968545,0.4416767445,0.1189943255,0.0151274775,-0.1137191425,-0.0872288185,2169,"DG_s11",-0.61,0,2.015,2.031,10,10,10,18,2.015,"Left",10,18,8,0,8,8,0,-8,"10-10",0,-8,10,10,10,18
"9",1,"LIN1-LIN2",0.0689744435,0.0374254335,-0.0387415225,-0.0396039715,-0.1576004295,-0.2036673295,0.0456952305,0.0301797595,-0.3045205405,-0.3963083005,-0.3082269285,-0.1479917985,-0.0583168905,-0.1193794035,-0.2127220875,-0.1818925123,-0.1988190683,-0.2921475015,-0.0613266215,0.0906371735,-0.0819604815,-0.1337074593,-0.1019440943,-0.0509401405,2169,"DG_s11",-0.61,0,2.015,2.031,10,10,10,18,2.015,"Left",10,18,8,0,8,8,0,-8,"10-10",0,-8,10,10,10,18
"10",2,"LIN9-LIN10",-0.015659808,-0.059015605,-0.12718001,-0.244102363,-0.23592339,-0.11185914,-0.091067348,0.015193662,0.065826077,0.101413267,-0.030360976,-0.180005427,-0.179441924,-0.293695486,-0.253088694,-0.172786101,0.030576571,0.107972004,0.19972752,0.330584407,-0.00729924500000001,-0.385901975,-0.00133431299999998,0.210084289,2170,"DG_s11",3.031,3.64,4.797,4.812,12,12,10,10,1.157,"Left",12,12,0,0,0,0,0,0,"Equal",2,2,12,10,12,10
"11",2,"RIN2-RIN3",-0.00855902405000003,-0.26187830105,-0.45449573805,-0.48625442005,-0.59029569405,-0.67135074505,-0.39450450505,-0.09125880505,-0.30677396505,-0.50237771805,-0.50165108765,-0.45051797665,-0.46310063705,-0.60527385305,-0.64940713305,-0.57651048905,-0.44117040005,-0.26688283845,-0.47504162745,-0.65864210005,-0.38121302005,-0.27981195105,-0.19757835105,-0.23554387005,2170,"DG_s11",3.031,3.64,4.797,4.812,12,12,10,10,1.157,"Left",12,12,0,0,0,0,0,0,"Equal",2,2,12,10,12,10
"12",2,"LIN3-LIN4",0.2663099455,0.1809712363,0.0487369468,0.048835031,0.041364915,-0.074329034,-0.0370778,0.015905435,0.318349717,0.584597101,0.18839824,-0.22135961,-0.1523914794,-0.0237964254,0.00663230100000001,0.053125506,-0.05636887,0.031598363,0.1497449893,0.2073711073,0.464367236,0.402201538,0.299890163,0.161605983,2170,"DG_s11",3.031,3.64,4.797,4.812,12,12,10,10,1.157,"Left",12,12,0,0,0,0,0,0,"Equal",2,2,12,10,12,10
"13",2,"LIN4-LIN5",-0.154198857,-0.231505827,-0.319564297,-0.172009912,-0.140886223,-0.2088036467,-0.14604452316,-0.11445960446,-0.1594375508,-0.00346381079999999,0.220192833,0.058931095,-0.316040605,-0.183366034,0.133252806,0.03772217,0.006265876,0.164549339,0.005404716,-0.325666434,-0.3162659676,-0.1663918976,-0.221044364,-0.137642664,2170,"DG_s11",3.031,3.64,4.797,4.812,12,12,10,10,1.157,"Left",12,12,0,0,0,0,0,0,"Equal",2,2,12,10,12,10
"14",2,"RIN9-RIN10",-0.02462986936,-0.18289205136,-0.11503752436,-0.03524774236,-0.17824903646,-0.35384315146,-0.31262433836,-0.25651158736,-0.24356145136,-0.35605196336,-0.25646997836,-0.04333162536,-0.00478570936,-0.01551815136,-0.12839044736,-0.25101728126,-0.26978479926,-0.13829938336,-0.11299798036,-0.21606521886,-0.25365901786,-0.11607722159,0.30857861741,0.16740700964,2170,"DG_s11",3.031,3.64,4.797,4.812,12,12,10,10,1.157,"Left",12,12,0,0,0,0,0,0,"Equal",2,2,12,10,12,10
"15",2,"LIN2-LIN3",-0.0544749105,0.0249304565,0.1132395855,0.0909494012,-0.0185056564,0.0559667009,0.0595397525,-0.0740274725,0.0450411525,0.1076949935,0.1540176185,0.1191877375,-0.1114829645,-0.1084888745,-0.0539398625,-0.0600010347,-0.1205802947,-0.0514960545,0.0260195095,0.0736626895,0.3784732855,0.2956283455,-0.0277554895,-0.0456533175,2170,"DG_s11",3.031,3.64,4.797,4.812,12,12,10,10,1.157,"Left",12,12,0,0,0,0,0,0,"Equal",2,2,12,10,12,10
"16",2,"RIN3-RIN4",-0.1217317185,-0.1386861806,-0.2637870916,-0.3953519825,-0.3935273265,-0.3982456205,-0.1885871915,-0.1262035235,-0.0886227265,0.0924440825,0.00164023149999998,-0.0756751875,-0.1746897715,-0.3070023515,-0.3508728795,-0.3578142505,-0.2325567145,-0.2735763035,-0.3963228205,-0.3007886655,-0.339879883,-0.235601357,-0.0970541877,-0.0543373487,2170,"DG_s11",3.031,3.64,4.797,4.812,12,12,10,10,1.157,"Left",12,12,0,0,0,0,0,0,"Equal",2,2,12,10,12,10
"17",2,"LIN1-LIN2",-0.0658123188,0.0328578205,-0.0019025725,-0.1433474075,-0.2042294835,-0.1083853061,-0.0107339041,-0.0914785585,-0.2321613145,-0.1383346525,-0.0472951795,-0.1956416545,-0.2656872835,-0.0687842265,-0.0262044105,-0.0220597624,-0.0557176224,-0.1228630775,-0.1109693132,-0.0139183532,0.1016992125,-0.0355981175,-0.1344643065,-0.1873994185,2170,"DG_s11",3.031,3.64,4.797,4.812,12,12,10,10,1.157,"Left",12,12,0,0,0,0,0,0,"Equal",2,2,12,10,12,10
"18",2,"RIN1-RIN2",-0.186187067,-0.251879182,-0.2450540981,0.0202557189,0.0972515311,-0.0773456609,-0.191184396,-0.324958734,-0.428974255,-0.088440715,0.089134725,-0.082107314,-0.113659879,-0.064457772,-0.170903858,-0.114026742,0.208275859,0.3730693955,0.0120146945,-0.342670052,-0.20986221,-0.095804694,-0.122513194,-0.240087774,2170,"DG_s11",3.031,3.64,4.797,4.812,12,12,10,10,1.157,"Left",12,12,0,0,0,0,0,0,"Equal",2,2,12,10,12,10
"19",3,"RIN1-RIN2",0.2327684598,0.0201178448,0.1570743688,0.1828153568,0.1142423468,0.2086747668,0.1266446768,-0.0090882872,0.1494733605,0.1916085165,0.1053454248,0.3003457648,0.2978552488,0.0501529998,0.0883268258,0.0674847748,-0.1514746212,-0.1919379662,0.1075865338,0.3205646688,0.2353611188,0.0825830948,-0.0862468802,-0.0461330442,2171,"DG_s11",5.812,6.422,7.89,7.89,10,10,8,8,1.468,"Left",8,8,0,0,0,0,0,0,"10-10",2,2,10,8,10,8
"20",3,"LIN2-LIN3",-0.145988449,-0.159580034,0.191020059,0.341360399,0.14671608139,0.19327324939,0.1479014401,0.1401768881,0.290227885,0.256118704,0.2998718613,0.5248673123,0.560391214,0.251105714,0.109405247,0.213237563,0.082327571,0.126675739,0.085638319,-0.079111102,-0.105301574,-0.1131669746,0.0069743114,0.113956249,2171,"DG_s11",5.812,6.422,7.89,7.89,10,10,8,8,1.468,"Left",8,8,0,0,0,0,0,0,"10-10",2,2,10,8,10,8
"21",3,"RIN3-RIN4",0.0468617581,0.0683042723,0.010858105,-0.00863685399999999,-0.046177027,-0.17735359596,-0.20163506486,0.0189723151,0.063861517,-0.158349276,-0.241769247,-0.018326657,0.155537454,0.108404549,0.020200756,-0.027768465,-0.0557022959,-0.0277092389,0.007135387,0.164332968,0.223359203,0.093516983,-0.075780995,-0.056831517,2171,"DG_s11",5.812,6.422,7.89,7.89,10,10,8,8,1.468,"Left",8,8,0,0,0,0,0,0,"10-10",2,2,10,8,10,8
"22",3,"RIN2-RIN3",0.3425829779,0.26397569789,0.24969134789,0.28641043195,0.11506526195,0.0122534449,0.0925272088,0.10264824934,0.18673335544,0.1662645153,0.1014447243,0.3504459749,0.4411237479,0.3095851981,0.2310315231,0.2537009629,0.1963211499,-0.0794311401,0.0887287569,0.2718439469,0.3329161059,0.5208245059,0.35779946787,0.26488918787,2171,"DG_s11",5.812,6.422,7.89,7.89,10,10,8,8,1.468,"Left",8,8,0,0,0,0,0,0,"10-10",2,2,10,8,10,8
"23",3,"LIN9-LIN10",-0.1099224445,0.1539382755,0.25034944871,0.03292018671,0.0397905545,0.1065782765,0.1397274995,0.0325859175,0.0779195425,-0.0073405745,0.0486120855,0.1284336245,0.1145056095,0.4547650495,0.3187499145,0.1568153265,0.0857277335,-0.2186212195,-0.1405806665,0.0657173485,-0.0725976615,-0.2629538945,-0.1035959045,0.2023854545,2171,"DG_s11",5.812,6.422,7.89,7.89,10,10,8,8,1.468,"Left",8,8,0,0,0,0,0,0,"10-10",2,2,10,8,10,8
"24",3,"RIN9-RIN10",0.47378348665,0.34490616665,0.25329255265,0.14670361265,0.05923527265,0.26029569265,0.39082998745,0.23251740945,0.07003157765,0.21801408765,0.27238293465,0.13485925365,0.31979570665,0.35969740065,0.17981361265,0.23889334465,0.29071894165,0.12673490525,0.04717845925,0.11843264865,0.09344345965,0.02393740465,0.03670339765,0.14798142265,2171,"DG_s11",5.812,6.422,7.89,7.89,10,10,8,8,1.468,"Left",8,8,0,0,0,0,0,0,"10-10",2,2,10,8,10,8
"25",3,"LIN4-LIN5",-0.2205734717,-0.2699625417,-0.22176567,-0.135891996,-0.37157049,-0.396651539,-0.18273434,-0.212496121,-0.218888702,-0.172995881,-0.153210445,-0.102613055,-0.236631792,-0.262388879,-0.098158202,-0.31472409,-0.541458713,-0.423571111,-0.2311207004,-0.3013479474,-0.471337736,-0.379856635,-0.232772266,-0.195464075,2171,"DG_s11",5.812,6.422,7.89,7.89,10,10,8,8,1.468,"Left",8,8,0,0,0,0,0,0,"10-10",2,2,10,8,10,8
"26",3,"LIN3-LIN4",-0.08424185295,0.06267740305,-0.08865807695,-0.05396283195,-0.00209538565,-0.01369910665,0.23580464605,0.29087207905,0.33265304505,0.23734397205,0.14625147205,0.35608428205,0.29240348205,0.20834720305,0.18837389105,0.07827439905,0.26273331105,0.30261818105,-0.01440927495,-0.02195723895,-0.01652034395,-0.01595044895,-0.05140313995,0.03455334885,2171,"DG_s11",5.812,6.422,7.89,7.89,10,10,8,8,1.468,"Left",8,8,0,0,0,0,0,0,"10-10",2,2,10,8,10,8
"27",3,"LIN1-LIN2",0.058232239055,0.076683637055,0.088159566255,0.045251249255,-0.072438713745,0.041982539255,0.083289040255,-0.011391762745,0.110166531255,0.147641358255,0.145890028255,0.267693084255,0.374314734255,0.315678856255,0.307102866255,0.345698828255,0.211605070955,0.057330322955,0.028539849255,0.235572663255,0.309560514255,0.283222854255,0.365832364255,0.256459754255,2171,"DG_s11",5.812,6.422,7.89,7.89,10,10,8,8,1.468,"Left",8,8,0,0,0,0,0,0,"10-10",2,2,10,8,10,8
"28",4,"LIN1-LIN2",-0.1776296785,-0.0012857315,0.0518442795,-0.0756134815,-0.1430001765,-0.1895439915,-0.1585533505,-0.2219128565,-0.2033053221,0.0448298779,-0.0089123515,-0.1803219665,-0.0495057065,-0.1303875115,-0.1479545135,0.0601741765,0.0060112725,-0.0144155245,-0.0292246485,-0.0646850275,-0.1265431745,-0.1869477445,0.0170619725,0.1870069785,2172,"DG_s11",8.89,9.5,10.922,10.922,10,10,28,4,1.422,"Right",28,4,24,0,24,0,-24,24,"10-10",-18,6,28,10,4,10
"29",4,"LIN9-LIN10",0.17457220265,0.22114190465,0.18061326865,0.16441553665,0.01172816265,-0.03851491335,-0.19768116935,-0.09889402235,0.11520390765,0.35185544465,0.49891094465,0.17716987465,0.01958686065,0.07515683065,0.10271305565,0.19921742765,0.32811795665,0.35866810965,0.41893053965,0.34215548065,0.31673958365,0.39451838765,0.33050916465,0.49415790465,2172,"DG_s11",8.89,9.5,10.922,10.922,10,10,28,4,1.422,"Right",28,4,24,0,24,0,-24,24,"10-10",-18,6,28,10,4,10
"30",4,"LIN4-LIN5",-0.1678919502,-0.05883651,-0.128039823,-0.344270313,-0.46241283,-0.378949925,-0.2730747785,-0.2152664325,-0.03260336,-0.054100531,-0.101235156,0.089008131,0.111174821,0.104375092,0.033241234,-0.0710300718,-0.0540815388,0.043559209,-0.022264391,-0.0605680316,-0.0562146636,-0.089205477,-0.15119513,-0.100660769,2172,"DG_s11",8.89,9.5,10.922,10.922,10,10,28,4,1.422,"Right",28,4,24,0,24,0,-24,24,"10-10",-18,6,28,10,4,10
"31",4,"LIN2-LIN3",0.14239226405,0.26304850655,0.13949017755,0.10678875875,0.19283840275,0.14601228675,-0.01911377025,0.09342118675,0.42855599675,0.37045514575,0.13732741375,0.15429535375,0.44483910575,0.31015905975,0.00385519474999999,0.13571208575,0.27456589075,0.21028213775,0.20677296775,0.20104415105,0.06045236905,0.06811152275,0.11448029275,0.00116772574999999,2172,"DG_s11",8.89,9.5,10.922,10.922,10,10,28,4,1.422,"Right",28,4,24,0,24,0,-24,24,"10-10",-18,6,28,10,4,10
"32",4,"RIN2-RIN3",0.1979774605,0.1171980505,0.1935586595,0.1453412815,-0.1236488075,-0.0437722995,0.000668329500000003,0.0434874385,0.0334395601,-0.0526366609,-0.2016099115,-0.2487026195,0.0356992145,0.1198505145,-0.0809738125,-0.1653636325,0.1490937405,0.2761846305,0.0944268605,0.0277562745,-0.0588516755,-0.1107915135,-0.1259351025,0.0525324615,2172,"DG_s11",8.89,9.5,10.922,10.922,10,10,28,4,1.422,"Right",28,4,24,0,24,0,-24,24,"10-10",-18,6,28,10,4,10
"33",4,"RIN1-RIN2",-0.16281986,-0.059364063,-0.0497247205,-0.0262388805,0.014742071,0.0266613,-0.026990629,0.049118233,0.162359487,0.326169606,0.450128456,0.234780566,-0.064356899,0.070697016,0.1050552153,-0.0837789597,0.084768039,0.258459933,0.102473158,0.05641145,0.257148022,0.430632736,0.277526476,-0.043654866,2172,"DG_s11",8.89,9.5,10.922,10.922,10,10,28,4,1.422,"Right",28,4,24,0,24,0,-24,24,"10-10",-18,6,28,10,4,10
"34",4,"LIN3-LIN4",0.162260064,0.175139893,0.118894731,0.061095685,0.04876538,0.002213125,-0.014590694,0.0202797808,0.0968637868,0.077561062,0.178236395,0.191754904,0.035372311,0.031229286,0.018330678,-0.021134881,-0.087763811,-0.081021395,0.035051989,0.018808357,0.055961264,0.19164026,0.055893644,0.249165484,2172,"DG_s11",8.89,9.5,10.922,10.922,10,10,28,4,1.422,"Right",28,4,24,0,24,0,-24,24,"10-10",-18,6,28,10,4,10
"35",4,"RIN9-RIN10",-0.0182356215,0.0237682205,-0.1565748195,-0.1362162725,-0.0898252545,0.0520047345,0.1594954475,-0.0761035995,-0.1706153745,0.1546438725,0.3077880165,0.2621358165,0.3730408665,0.3336997045,0.0739398572,0.0153323162,0.1789971685,0.1326020905,-0.0014733145,-0.1494758835,-0.0069212535,0.1137357975,0.0898043075,0.0409581665,2172,"DG_s11",8.89,9.5,10.922,10.922,10,10,28,4,1.422,"Right",28,4,24,0,24,0,-24,24,"10-10",-18,6,28,10,4,10
"36",4,"RIN3-RIN4",0.6281034255,0.4301516695,0.181917232,0.172164915,0.0014543015,0.0410106938,0.0422105948,0.1265247225,0.3474552595,0.212741607,0.032299668,0.0304532595,0.0929910915,0.1230150875,0.1643108045,0.2525585945,0.2698055785,0.1730532875,0.1946972605,0.0214053095,-0.0819006164,0.0154830366,0.0602568725,0.1810167895,2172,"DG_s11",8.89,9.5,10.922,10.922,10,10,28,4,1.422,"Right",28,4,24,0,24,0,-24,24,"10-10",-18,6,28,10,4,10
"37",5,"RIN1-RIN2",0.2570481099,0.2780555999,0.2803885565,0.2237257185,0.0796979535,0.0056815685,-0.0166242305,-0.1577367465,-0.1020118305,0.0471406525,0.0710491525,0.0199705685,-0.1318588035,-0.1454858375,-0.0999584405,-0.1628541155,-0.1377084655,-0.1237148565,-0.1130491065,-0.0038603175,0.0625657575,0.1270113485,0.1692459545,0.0787510115,2173,"DG_s11",11.922,12.531,13.968,13.968,10,10,22,6,1.437,"Left",22,6,16,0,16,0,-16,16,"10-10",-12,4,10,22,10,6
"38",5,"LIN2-LIN3",-0.082901165975,-0.112825909975,-0.171238731975,0.048035423025,0.286998948025,0.062715513025,-0.147716138975,-0.00962212897499999,-0.00512186697499999,-0.061257702975,-0.166137325975,0.003935730025,0.136260453025,0.176198273025,0.119705296025,-0.148787263975,-0.132089275975,0.00055770002500001,-0.118401300975,-0.226300210975,-0.240525714975,-0.254472764775,-0.060133250775,0.008019472025,2173,"DG_s11",11.922,12.531,13.968,13.968,10,10,22,6,1.437,"Left",22,6,16,0,16,0,-16,16,"10-10",-12,4,10,22,10,6
"39",5,"RIN9-RIN10",0.265488079,0.105210493,0.074627007,0.0278851748,0.1402889328,0.360538735,0.49611341,0.3218626067,0.2155884497,0.231584713,0.281603311,0.247271075,0.104614347,0.319665713,0.3074608098,0.1534767978,0.247199456,0.190962723,0.027725545,0.123739731,0.211179581,0.197705954,0.167193376,0.117060192,2173,"DG_s11",11.922,12.531,13.968,13.968,10,10,22,6,1.437,"Left",22,6,16,0,16,0,-16,16,"10-10",-12,4,10,22,10,6
"40",5,"LIN4-LIN5",-0.04533135955,-0.15615403455,0.07408134345,0.18960315245,0.02730126635,-0.05043128365,0.19655855445,0.34639795545,0.20619357245,0.03289395045,-0.09809283055,-0.08962210055,-0.02513662455,0.10433082845,0.21094327845,0.22742468145,0.11789329845,-0.01260463175,0.01771752325,-0.07740501055,-0.10466145455,0.02352222345,0.27795494345,0.32712135345,2173,"DG_s11",11.922,12.531,13.968,13.968,10,10,22,6,1.437,"Left",22,6,16,0,16,0,-16,16,"10-10",-12,4,10,22,10,6
"41",5,"RIN3-RIN4",0.2233499325,0.0688451325,0.2514254145,0.3388885965,0.1888839757,0.0496358237,-0.0125431985,0.0273785155,0.0913102751,0.2930077611,0.5208259025,0.3772883415,0.2910833715,0.2857951525,0.1123300853,0.0705434053,0.1119737955,0.0101388392,0.1071893062,0.1841709425,0.0580286675,0.0190419285,-0.0500941735,-0.0938497275,2173,"DG_s11",11.922,12.531,13.968,13.968,10,10,22,6,1.437,"Left",22,6,16,0,16,0,-16,16,"10-10",-12,4,10,22,10,6
"42",5,"LIN9-LIN10",0.0652438842,-0.1182536958,-0.1960118328,0.1396369072,0.2431867072,0.0537356172,-0.03970754,0.102660898,0.1392870642,0.0621117722,0.1142083132,-0.0472378378,0.1053816622,0.3705063272,0.2579068215,0.0255214015,0.1239677272,0.2492202172,-0.0493662728,-0.1626574793,-0.2199124503,-0.2559757692,-0.0853766902,0.00514875519999999,2173,"DG_s11",11.922,12.531,13.968,13.968,10,10,22,6,1.437,"Left",22,6,16,0,16,0,-16,16,"10-10",-12,4,10,22,10,6
"43",5,"LIN1-LIN2",0.211612063,0.049933218,0.024303147,0.2674768394,0.2449355924,0.359495509,0.497796075,0.43420033,0.336580253,0.219260047,0.500208444,0.610883935,0.311375566,0.153372771,0.230670224,0.281952834,0.29026281,0.447157415,0.43153475,0.383148167,0.445196892,0.3009023714,0.0549946014,-0.014031024,2173,"DG_s11",11.922,12.531,13.968,13.968,10,10,22,6,1.437,"Left",22,6,16,0,16,0,-16,16,"10-10",-12,4,10,22,10,6
"44",5,"RIN2-RIN3",-0.062147496,0.073423184,0.068590161,0.103722913,0.299680623,0.128106765,0.006837172,-0.035245248,-0.081390202,0.224227778,0.323961025,0.25240903,0.3396119309,0.1367011259,0.00145442900000001,0.167606999,0.226230989,0.239900627,0.239615443,0.198919738,0.149510288,-0.013141445,-0.144505455,-0.069438009,2173,"DG_s11",11.922,12.531,13.968,13.968,10,10,22,6,1.437,"Left",22,6,16,0,16,0,-16,16,"10-10",-12,4,10,22,10,6
"45",5,"LIN3-LIN4",0.008634023,0.023090762,0.044585007,0.049112257,0.250862477,0.275740018,0.186833958,0.253750733,0.149503929,0.1322137933,0.1430041473,0.338814857,0.342443685,0.233437065,0.110391825,-0.051541405,0.08452975,0.052835171,-0.019472525,-0.139910786,-0.107702993,0.006352734,0.009610134,0.0228709603,2173,"DG_s11",11.922,12.531,13.968,13.968,10,10,22,6,1.437,"Left",22,6,16,0,16,0,-16,16,"10-10",-12,4,10,22,10,6
"46",6,"RIN9-RIN10",-0.180430173,-0.141521769,-0.113151782,-0.081681712,0.073886919,0.058724899,-0.171162857,-0.2501462141,-0.2043478321,-0.230979958,-0.105442816,-0.103338294,-0.268190196,-0.24026531,-0.014890235,-0.032411623,-0.159455423,-0.194850434,-0.207514314,0.01411223,0.03413956,-0.133732693,-0.169435964,-0.080322151,2174,"DG_s11",14.984,15.593,16.828,16.843,10,10,30,15,1.235,"Right",30,15,15,0,15,0,-15,15,"10-10",-20,-5,30,10,15,10
"47",6,"RIN2-RIN3",0.187977486,0.099080183,-0.026922777,-0.1478062818,-0.1188995618,-0.164721441,-0.236509201,-0.090759389,0.173552321,0.215098711,-0.044583118,-0.09146347,-0.104877361,-0.159327457,-0.088578286,-0.020676147,0.100923758,0.06487995,0.129847264,-0.02883076,-0.077338582,0.153694705,0.085376947,0.055502031,2174,"DG_s11",14.984,15.593,16.828,16.843,10,10,30,15,1.235,"Right",30,15,15,0,15,0,-15,15,"10-10",-20,-5,30,10,15,10
"48",6,"RIN1-RIN2",-0.08414762761,0.01986285139,0.0034450875,-0.0441848555,0.092388833,0.072783113,-0.028245678,-0.014462359,0.005309564,0.214902974,0.390225234,0.250336168,0.002060556,-0.088349857,-0.062776559,-0.0331155204,0.1005931036,0.287269017,0.269331684,0.186516691,0.128632206,0.169248846,0.159591082,0.033843549,2174,"DG_s11",14.984,15.593,16.828,16.843,10,10,30,15,1.235,"Right",30,15,15,0,15,0,-15,15,"10-10",-20,-5,30,10,15,10
"49",6,"LIN2-LIN3",-0.05305697085,-0.06167779985,-0.24151494985,-0.32815249385,-0.28977703785,-0.22121560785,-0.19501925485,-0.15069382585,-0.15174852385,-0.00126606285,0.15944675615,0.03233982615,-0.20949644685,-0.25576389185,-0.31664620885,-0.39959146385,-0.36526429695,-0.18410336695,0.03883485115,-0.02054134285,-0.00189280984999998,0.23480322415,0.26895721615,0.30434538615,2174,"DG_s11",14.984,15.593,16.828,16.843,10,10,30,15,1.235,"Right",30,15,15,0,15,0,-15,15,"10-10",-20,-5,30,10,15,10
"50",6,"RIN3-RIN4",-0.04955154615,-0.03629719315,-0.00724163115,-0.08633065815,-0.06472700515,0.13039364085,0.19688256085,0.10830988685,0.01799907685,0.03987994785,0.11189002685,0.12814682585,-0.01925705115,-0.10926239215,-0.02729232115,0.02921760885,0.07885329585,0.02054507585,0.16439950585,0.27331314485,0.13211535285,-0.02562026645,-0.09280787345,-0.12034234315,2174,"DG_s11",14.984,15.593,16.828,16.843,10,10,30,15,1.235,"Right",30,15,15,0,15,0,-15,15,"10-10",-20,-5,30,10,15,10
"51",6,"LIN1-LIN2",0.4552417065,0.3953554085,0.0370893515,0.0361140815,0.0508565384,0.0825669304,0.1188333545,-0.1528234929,-0.1386752269,0.0275939685,-0.0638156075,-0.0813545895,0.0292580335,0.1495509755,0.1243811715,0.0768195445,-0.0858414265,-0.0668506685,0.0693604195,-0.0759371845,-0.1129290685,-0.0721759376,0.0440214374,0.1590903095,2174,"DG_s11",14.984,15.593,16.828,16.843,10,10,30,15,1.235,"Right",30,15,15,0,15,0,-15,15,"10-10",-20,-5,30,10,15,10
"52",6,"LIN3-LIN4",0.0799897075,0.1133518305,-0.0186171585,-0.0524628085,0.0144440075,0.00850973150000001,-0.0594029585,-0.1993960925,-0.1871622065,0.1258041135,0.1292447945,0.0562757755,0.0817910666,-0.0937902324,-0.1342935805,-0.0290974225,-0.0413336395,-0.0992965755,0.0130576315,0.0520407855,0.0779081485,0.3626087105,0.3389758905,0.1441002305,2174,"DG_s11",14.984,15.593,16.828,16.843,10,10,30,15,1.235,"Right",30,15,15,0,15,0,-15,15,"10-10",-20,-5,30,10,15,10
"53",6,"LIN9-LIN10",0.11911546,0.048402701,0.221676813,0.230630595,0.058637384,-0.05352001,0.06899887,0.265632535,0.595406555,0.754018364,0.300492994,0.00622775399999999,0.0513613035,0.1351294535,0.30670419,0.240870351,0.051384647,-0.0796589612,-0.1791753732,-0.001177778,0.041150628,0.08522309,0.190089516,-0.078492791,2174,"DG_s11",14.984,15.593,16.828,16.843,10,10,30,15,1.235,"Right",30,15,15,0,15,0,-15,15,"10-10",-20,-5,30,10,15,10
"54",6,"LIN4-LIN5",-0.06823576385,-0.04326078195,-0.11779500795,-0.17086045485,-0.16606262985,-0.06417106885,-0.06097398185,-0.14137168685,0.09711840615,0.21494459615,-0.06123773525,-0.05917687325,0.01213362915,-0.13212401015,-0.27554998715,-0.35315995985,-0.23361807385,-0.19978968385,-0.30713627385,-0.14869779985,-0.10260272985,-0.14902270185,-0.13732021385,-0.15744790585,2174,"DG_s11",14.984,15.593,16.828,16.843,10,10,30,15,1.235,"Right",30,15,15,0,15,0,-15,15,"10-10",-20,-5,30,10,15,10
"55",7,"LIN9-LIN10",0.318186554,0.420924666,0.1761772828,-0.0240722742,0.157843749,0.212595772,-0.002284613,-0.0107487999,0.0869658751,0.108701232,0.176619162,0.343277356,0.336624606,0.298675975,0.375141256,0.268320647,0.347222866,0.278179743,0.122463983,0.556365586,0.635307996,0.321858145,0.270789653,0.325686786,2175,"DG_s11",17.843,18.453,19.593,19.593,10,10,28,4,1.14,"Right",28,4,24,0,24,0,-24,24,"10-10",-18,6,28,10,4,10
"56",7,"LIN2-LIN3",-0.19985602,-0.216780968,-0.023809993,0.006737613,0.171457077,0.389936689,0.029132,-0.105657568,-0.064717114,-0.2193852,-0.077041721,0.132388943,0.035797599,0.074778419,0.00427648459999999,-0.0025086804,0.170865231,-0.013334633,-0.16436406,-0.291337761,-0.183527701,-0.043830802,0.086772738,0.305051839,2175,"DG_s11",17.843,18.453,19.593,19.593,10,10,28,4,1.14,"Right",28,4,24,0,24,0,-24,24,"10-10",-18,6,28,10,4,10
"57",7,"LIN3-LIN4",0.0814095245,0.0515592199,0.1681538029,0.0778316875,-0.0941867955,0.0293733295,0.2227197895,0.5442649245,0.5599280015,0.0818416115,-0.1196889409,0.0637975691,0.1323821345,0.0474404855,0.0987664515,0.3614028705,0.4415130145,0.1120191685,-0.0661757685,0.0258967375,0.2818587645,0.3183271875,0.3064539285,0.3293110815,2175,"DG_s11",17.843,18.453,19.593,19.593,10,10,28,4,1.14,"Right",28,4,24,0,24,0,-24,24,"10-10",-18,6,28,10,4,10
"58",7,"RIN9-RIN10",-0.0169338375,-0.1343191935,-0.2121816815,-0.1544597715,-0.1091837245,-0.0690426545,0.0140119935,0.0642330095,-0.0134536335,0.0259156085,0.0504018045,0.0856796395,0.0168490323,-0.1409387187,0.0423062425,0.1000645295,0.0133908505,-0.0589127585,-0.1744711615,-0.0134287525,0.2102514675,0.2773966885,0.0311802795,-0.1489640225,2175,"DG_s11",17.843,18.453,19.593,19.593,10,10,28,4,1.14,"Right",28,4,24,0,24,0,-24,24,"10-10",-18,6,28,10,4,10
"59",7,"RIN3-RIN4",-0.13652935666,-0.1042218245,-0.0099672535,-0.0797436531,-0.2382676576,-0.248062598,-0.13433472641,-0.07878069641,-0.0346856185,-0.1184057475,-0.1581704433,-0.0240396113,0.0710110715,-0.1588350865,-0.2131009235,-0.2875303185,-0.4602991091,-0.2576172651,-0.1270622545,0.0352327615,0.2098559685,0.2860596885,0.1453308985,0.0684517915,2175,"DG_s11",17.843,18.453,19.593,19.593,10,10,28,4,1.14,"Right",28,4,24,0,24,0,-24,24,"10-10",-18,6,28,10,4,10
"60",7,"RIN2-RIN3",0.13925386965,0.01524072265,-0.03021364555,0.01269144145,-0.03527342035,-0.09751293435,-0.13909055435,0.00269094364999999,-0.00250612835,-0.13500907335,-0.15312870235,-0.09991762135,-0.09737230835,-0.16510701335,-0.12619530835,-0.18109178335,-0.19337632935,-0.08355626135,0.01667984465,0.02208569755,-0.04178562145,0.16539488765,0.15750675765,0.05092433765,2175,"DG_s11",17.843,18.453,19.593,19.593,10,10,28,4,1.14,"Right",28,4,24,0,24,0,-24,24,"10-10",-18,6,28,10,4,10
"61",7,"LIN4-LIN5",0.261248649,0.041689719,0.187390939,0.191801639,-0.000603104000000007,-0.011011488,-0.162107245,-0.1211245892,-0.0585350582,-0.0946609,0.217616322,0.195251353,-0.078085165,-0.00929534600000001,0.098555144,0.109687183,0.144495488,0.15127282,-0.05959266,-0.142719392,-0.075960574,-0.0815818,-0.09596375,-0.1064870349,2175,"DG_s11",17.843,18.453,19.593,19.593,10,10,28,4,1.14,"Right",28,4,24,0,24,0,-24,24,"10-10",-18,6,28,10,4,10
"62",7,"LIN1-LIN2",-0.1399652535,-0.0809466505,-0.0729508325,-0.2133903235,-0.0708864825,-0.1249035935,-0.2425854385,-0.3342345735,-0.4240796785,-0.3476256695,-0.2666417995,-0.0714529895,-0.1638308495,-0.2549389885,-0.0949873785,0.0854548505,0.0631469705,0.0300290015,0.1146381605,0.1106794605,0.00332282749999999,-0.1709094945,0.0119978995,0.1145805945,2175,"DG_s11",17.843,18.453,19.593,19.593,10,10,28,4,1.14,"Right",28,4,24,0,24,0,-24,24,"10-10",-18,6,28,10,4,10
"63",7,"RIN1-RIN2",-0.1305601065,-0.2782799505,-0.2166095125,-0.1382984875,-0.1182881825,-0.0552381615,0.00693431549999998,-0.00651491547000002,0.00554535452999999,-0.1087661975,-0.2929179405,-0.2182061425,-0.2201293725,-0.1037197765,-0.0142388335,-0.2171541655,-0.0813876555,-0.0893607655,-0.2880432495,-0.2307726075,-0.2178247815,-0.1202012335,-0.2000181525,-0.1321450715,2175,"DG_s11",17.843,18.453,19.593,19.593,10,10,28,4,1.14,"Right",28,4,24,0,24,0,-24,24,"10-10",-18,6,28,10,4,10
"64",8,"LIN4-LIN5",-0.2687000847,-0.3368863147,-0.1913500457,-0.1580796667,-0.2421627187,-0.1710834664,-0.0192487634,0.0684909822,-0.1191141278,-0.3721349947,-0.2556352127,-0.2193465727,-0.2680229497,-0.3010675497,-0.2080650537,0.00762380630000001,0.0290280243,0.0021145434,0.00158174640000003,-0.0271536387,-0.1015426047,-0.1202724427,-0.1999132967,-0.1596294057,2176,"DG_s11",20.593,21.203,22.312,22.312,10,10,4,4,1.109,"Left",4,4,0,0,0,0,0,0,"10-10",6,6,10,4,10,4
"65",8,"RIN9-RIN10",0.0730737345,0.2360667255,0.3806952545,0.4029289135,0.1406407802,0.0045082072,-0.0485351625,0.0582465355,0.2876947755,0.3220843605,0.2173090935,0.0756459527,0.0129395587,-0.0830557005,0.0794993555,0.3307624355,0.2305674205,0.0785629495,0.2795831095,0.4153852605,0.2419929155,0.1059629025,0.0562672395,0.0282651625,2176,"DG_s11",20.593,21.203,22.312,22.312,10,10,4,4,1.109,"Left",4,4,0,0,0,0,0,0,"10-10",6,6,10,4,10,4
"66",8,"RIN1-RIN2",0.0679139597,0.1298813103,0.1838088523,0.3098308755,0.3052952835,0.0361979425,-0.0960498475,-0.0134710616,0.0647703021,0.0668609992,0.2540350355,0.3046162175,0.0963532155,0.1033398795,0.1086999985,0.0257011015,-0.02591565582,0.03849999118,0.0358345815,0.3408958435,0.3778467235,0.0441115095,0.1444910365,0.2791326105,2176,"DG_s11",20.593,21.203,22.312,22.312,10,10,4,4,1.109,"Left",4,4,0,0,0,0,0,0,"10-10",6,6,10,4,10,4
"67",8,"LIN3-LIN4",-0.196344396,-0.298866752,-0.234509827,-0.183568672,-0.243752735,-0.283296476,-0.445524953,-0.427211284,-0.020913194,0.048134729,-0.286740621,-0.248403193,-0.15229632,-0.1755503951,-0.0368992281,-0.116695556,-0.2781836,-0.250758656,-0.361950572,-0.438295046,-0.196674858,-0.1013023328,-0.1310257588,-0.182420999,2176,"DG_s11",20.593,21.203,22.312,22.312,10,10,4,4,1.109,"Left",4,4,0,0,0,0,0,0,"10-10",6,6,10,4,10,4
"68",8,"RIN2-RIN3",0.034637482205,0.040521727205,0.211543580705,0.163347912705,-0.076170446795,0.005427593205,0.124973381205,0.097495247205,0.119070186905,0.142911717905,0.082686791505,0.012482943505,-0.046554849795,0.017083077205,0.001530491205,-0.019722168795,-0.016041347795,0.049169762205,0.133172088205,0.202721828205,0.167974334205,-0.052901598395,0.032551748605,0.294375681205,2176,"DG_s11",20.593,21.203,22.312,22.312,10,10,4,4,1.109,"Left",4,4,0,0,0,0,0,0,"10-10",6,6,10,4,10,4
"69",8,"RIN3-RIN4",-0.0568743995,-0.1138112995,-0.2108568595,-0.0588136485,-0.0529058925,-0.0832859935,0.0825410025,0.2265139525,0.1407460745,0.0083851905,0.0521200825,0.0688551985,0.0652803125,0.2083804395,0.1810195029,0.0277245899,0.0790652465,0.2170877285,0.2679457785,0.2763834855,0.2785278575,0.0874237955,0.0324333035,0.2976577845,2176,"DG_s11",20.593,21.203,22.312,22.312,10,10,4,4,1.109,"Left",4,4,0,0,0,0,0,0,"10-10",6,6,10,4,10,4
"70",8,"LIN9-LIN10",0.0829003855,-0.0681638065,-0.1655877435,0.2053159545,0.4189195215,0.2313457135,0.2925724635,0.2559655605,0.1401762375,0.1782781445,0.0813156035,0.0867557875,0.0913504625,0.1635656455,0.2789279445,0.0739550545,-0.0735662911,-0.0190307201,-0.0817872865,-0.1721373975,-0.1462046415,-0.2212995005,-0.1781022145,0.0106133359,2176,"DG_s11",20.593,21.203,22.312,22.312,10,10,4,4,1.109,"Left",4,4,0,0,0,0,0,0,"10-10",6,6,10,4,10,4
"71",8,"LIN1-LIN2",0.212548257,0.258640957,0.137352058,0.129851128,0.156745976,0.005304946,-0.062770899,-0.08582206,-0.128627206973,-0.158060145973,-0.137031712,-0.072052902,-0.131099462,-0.207404722,-0.047956754,0.181645039,0.059581381,-0.1040045144,0.1303374938,0.0897645962,-0.115538762,0.080434317,0.294927117,0.405778312,2176,"DG_s11",20.593,21.203,22.312,22.312,10,10,4,4,1.109,"Left",4,4,0,0,0,0,0,0,"10-10",6,6,10,4,10,4
"72",8,"LIN2-LIN3",0.1977213854,0.151045426,0.1535487018,0.2412120508,0.30421485,0.274323188,0.170486578,0.0306827694,0.2516517054,0.322876463,0.1323797709,0.2975169499,0.241885745,0.358374649,0.4904586888,0.2464035982,0.1479685204,0.167340111,0.141233861,0.0311134879,0.2325917589,0.4830065533,0.6210436057,0.6409159044,2176,"DG_s11",20.593,21.203,22.312,22.312,10,10,4,4,1.109,"Left",4,4,0,0,0,0,0,0,"10-10",6,6,10,4,10,4
"73",9,"RIN1-RIN2",-0.169945177,-0.015280107,0.1103136025,0.0726391505,0.0684795603,0.1397136323,0.1563043327,-0.0611753863,-0.153314337,-0.148447799,-0.183673018,-0.309270817,-0.385292347,-0.210712348,-0.060604437,-0.100684636,-0.058469786,0.0704267306,0.1377566346,0.082946092,0.217604987,0.40235725,0.30347392,0.19419409,2177,"DG_s11",23.328,23.937,25.031,25.047,10,10,13,7,1.094,"Right",13,7,6,0,6,0,-6,6,"10-10",-3,3,13,10,7,10
"74",9,"LIN9-LIN10",0.00589238610000001,0.0796840211,0.0708043501,0.0789719111,0.000493665099999999,-0.0308277938,-0.0476887268,0.0231751561,0.0180332241,-0.2260631859,-0.1648635269,0.3061126431,0.2773033481,0.0830382761,0.3021664941,0.3507979661,0.1189686661,-0.0767225839,0.0780848661,0.3148052361,0.1318889269,-0.0720299321,-0.10695221393,0.19304912507,2177,"DG_s11",23.328,23.937,25.031,25.047,10,10,13,7,1.094,"Right",13,7,6,0,6,0,-6,6,"10-10",-3,3,13,10,7,10
"75",9,"LIN2-LIN3",0.0515332705,0.0355445595,-0.1404822285,-0.3273900045,-0.1746277015,-0.2140962925,-0.1873193425,-0.1280062693,-0.1903801783,-0.1224638385,-0.0250218605,-0.0340821525,-0.0999558235,-0.1694935335,-0.0648577705,0.1814146605,0.0145750765,-0.1144028065,0.1290493335,0.1559744385,-0.0538038215,-0.0808621355,0.0996205345,0.2784825255,2177,"DG_s11",23.328,23.937,25.031,25.047,10,10,13,7,1.094,"Right",13,7,6,0,6,0,-6,6,"10-10",-3,3,13,10,7,10
"76",9,"RIN2-RIN3",0.0796237598,0.04875929,0.042547897,0.1569723101,0.3125178891,0.3015298221,0.2157540551,0.094029735,-0.00581383899999999,0.116753218,0.04258544,-0.018566635,0.12686695,0.130246582,0.057174685,0.299105321,0.292528241,0.135658357,0.446718349,0.449292845,0.332027345,0.3839387131,0.1941634519,0.0766322278,2177,"DG_s11",23.328,23.937,25.031,25.047,10,10,13,7,1.094,"Right",13,7,6,0,6,0,-6,6,"10-10",-3,3,13,10,7,10
"77",9,"RIN3-RIN4",-0.1008920265,-0.0071089095,-0.1291436425,-0.2178186675,0.0466932825,0.2355985725,0.1614694525,0.1192834325,-0.0427775722,-0.1728181622,-0.0901552455,-0.0587715525,0.0303922378,0.0433570438,-0.0667539595,0.2098735815,0.2617027825,0.0944440705,0.1886478885,0.3084630425,0.0842955245,-0.0876109585,0.0879582755,0.0529339885,2177,"DG_s11",23.328,23.937,25.031,25.047,10,10,13,7,1.094,"Right",13,7,6,0,6,0,-6,6,"10-10",-3,3,13,10,7,10
"78",9,"LIN4-LIN5",0.044350102,0.115403316,0.352441695,0.433254075,0.416023543,0.261088315,0.044175468,0.081549623,0.161988692,0.138247255,0.306492547,0.269316111,-0.065407541,-0.102065084,-0.101256514,-0.169848792,0.018924896,0.132639548,0.1372296566,0.0666128866,-0.07903071,-0.131538825,0.137954255,0.339381025,2177,"DG_s11",23.328,23.937,25.031,25.047,10,10,13,7,1.094,"Right",13,7,6,0,6,0,-6,6,"10-10",-3,3,13,10,7,10
"79",9,"RIN9-RIN10",-0.3114892037,-0.2989295387,-0.1051474897,-0.0208229277,-0.0372952367,-0.0242566057,-0.0276316597,0.1893689523,0.1875691093,-0.0388228907,-0.0148141977,0.1205071823,-0.0460582037,-0.1473920607,-0.0566520298,-0.0673454688,0.0209383003,0.3384260163,0.3261544843,0.1865213719,0.4006223739,0.4003569793,0.2152424293,0.1197362873,2177,"DG_s11",23.328,23.937,25.031,25.047,10,10,13,7,1.094,"Right",13,7,6,0,6,0,-6,6,"10-10",-3,3,13,10,7,10
"80",9,"LIN3-LIN4",-0.213761822,-0.142161992,-0.1052099616,-0.1849379616,-0.086545169,-0.030776899,-0.160964304,-0.149061986,-0.162410376,-0.039448311,0.124582224,0.155677701,0.071299003,0.054969819,0.050420985,0.061540089,-0.039732629,-0.298242759,-0.017614749,0.194324521,0.0208998837,-0.0680487759,-0.1862323386,-0.2228251012,2177,"DG_s11",23.328,23.937,25.031,25.047,10,10,13,7,1.094,"Right",13,7,6,0,6,0,-6,6,"10-10",-3,3,13,10,7,10
"81",9,"LIN1-LIN2",0.05141249565,0.05988916065,0.04919453275,-0.15688351825,0.08030847165,0.10901135365,0.09284043165,0.08846250865,-0.02638310635,-0.09222709735,-0.16062029435,-0.09480136035,-0.00254792035,-0.1159399761,-0.0666851191,0.29313168665,0.12586697865,-0.04145017735,0.05655446165,0.06565844865,-0.04698998735,-0.09249177135,0.06007018165,0.14645381465,2177,"DG_s11",23.328,23.937,25.031,25.047,10,10,13,7,1.094,"Right",13,7,6,0,6,0,-6,6,"10-10",-3,3,13,10,7,10
"82",10,"LIN2-LIN3",0.031853052,-0.183675747,-0.313679997,-0.10243463,0.09249658,-0.031465389,0.039924221,0.156164166,-0.046375574,-0.192701867,-0.186000874,-0.241130209,-0.088906743,0.1756233748,0.1180254268,0.085088744,0.090363514,0.1775856546,0.1985269436,0.165775854,0.235341804,0.354599093,0.171380935,0.084976885,2178,"DG_s11",26.047,26.656,27.703,27.718,10,10,10,26,1.047,"Left",10,26,16,0,16,16,0,-16,"10-10",0,-16,10,10,10,26
"83",10,"RIN9-RIN10",0.078436319985,0.204518442985,0.254023122985,0.239363211985,0.156388321985,0.067125827985,0.043985243985,0.064936935985,-0.004313930015,0.173436737985,0.305142698285,0.176414157285,-0.061000213015,-0.043188844715,0.037193500285,0.041039371985,0.005750846985,0.004777947985,0.029883930985,-0.081210450615,0.030854726385,0.280079447985,0.329693908985,0.093226720985,2178,"DG_s11",26.047,26.656,27.703,27.718,10,10,10,26,1.047,"Left",10,26,16,0,16,16,0,-16,"10-10",0,-16,10,10,10,26
"84",10,"RIN2-RIN3",0.0431401988,0.0320243188,-0.0278479502,0.0204701132,0.0293618222,-0.0834949822,-0.0102418152,0.1079274848,0.1778929546,0.2039220226,0.1387595238,0.2695191668,0.3136191448,0.3583460848,0.3887934298,0.3135336948,0.2698683748,0.2245923618,0.0964616718,0.0198472618,0.1183021218,0.2841420798,0.3196776798,0.0949121368,2178,"DG_s11",26.047,26.656,27.703,27.718,10,10,10,26,1.047,"Left",10,26,16,0,16,16,0,-16,"10-10",0,-16,10,10,10,26
"85",10,"LIN4-LIN5",-0.09044110941,-0.07073858741,-0.08488574041,-0.08844660141,-0.07172703841,-0.24986127821,-0.33136580621,-0.19331369441,-0.10469677211,-0.20977948311,-0.43894263741,-0.39371423041,-0.28464569141,-0.25148401841,-0.35649610741,-0.40723600941,-0.19126321941,-0.18906639641,-0.35920300641,-0.34536844241,-0.30266241941,-0.27362821641,-0.25279141241,-0.05017482241,2178,"DG_s11",26.047,26.656,27.703,27.718,10,10,10,26,1.047,"Left",10,26,16,0,16,16,0,-16,"10-10",0,-16,10,10,10,26
"86",10,"RIN1-RIN2",-0.0115150425,-0.0664523375,-0.0774444745,0.1121669935,0.0668963275,-0.0683616454,0.0508922896,-0.0441663105,-0.0756077985,0.0707582265,0.1457510448,0.2090029898,0.3333490995,0.3626294195,0.2322621595,0.2518406305,0.0980340435,0.0851117215,0.2459162135,0.0363368445,0.00114846550000001,0.1737998726,0.2628065496,0.0172759015,2178,"DG_s11",26.047,26.656,27.703,27.718,10,10,10,26,1.047,"Left",10,26,16,0,16,16,0,-16,"10-10",0,-16,10,10,10,26
"87",10,"LIN9-LIN10",-0.1044494415,0.0441771005,-0.0538366365,-0.0925722285,-0.0659674595,0.00188944050000001,0.3846005775,0.2986499468,-0.0207002845,0.1553304282,0.3157163495,0.0512471974,-0.1483256036,0.0744313865,0.0188035865,-0.2710294635,-0.2315720875,-0.1554177905,-0.1301317165,-0.16254771231,-0.01704874931,0.3404563995,0.2868261675,0.0190735075,2178,"DG_s11",26.047,26.656,27.703,27.718,10,10,10,26,1.047,"Left",10,26,16,0,16,16,0,-16,"10-10",0,-16,10,10,10,26
"88",10,"LIN3-LIN4",0.1100421965,0.0395533372,0.05751901446,0.09268268856,0.2522539843,0.0343038695,-0.2139271585,-0.1746229251,-0.2077784281,-0.2238577965,-0.0938102325,0.1257013525,0.1661677395,-0.0137528125,-0.0654557125,0.0907270565,0.3117197992,0.1703401292,-0.0280876235,0.1899811065,0.1909755965,0.1564236065,0.1801910425,0.1790622025,2178,"DG_s11",26.047,26.656,27.703,27.718,10,10,10,26,1.047,"Left",10,26,16,0,16,16,0,-16,"10-10",0,-16,10,10,10,26
"89",10,"RIN3-RIN4",0.041004993,0.098276265,0.1033154374,0.0337970634,0.037494542,0.074355507,0.017039176,-0.027700472,-0.000692653000000003,-0.099829938,-0.167356839,0.065195522,0.340901593,0.405810329,0.204948541,-0.07542154881,-0.03428654781,-0.0549394961,-0.1053820361,-0.023857066,0.006729854,0.177226498,0.204246382,-0.014573661,2178,"DG_s11",26.047,26.656,27.703,27.718,10,10,10,26,1.047,"Left",10,26,16,0,16,16,0,-16,"10-10",0,-16,10,10,10,26
"90",10,"LIN1-LIN2",0.0474112207,-0.0103166963,-0.0498959858,0.0243820512,-0.0897624818,-0.0609171978,-0.0037594308,0.1149866582,0.1145719472,-0.0211095248,0.1563704602,0.1013723952,0.0129683112,0.1321775222,0.15102379751,0.24244629851,0.207461681,0.1687289873,0.2867158275,0.1806626776,-0.0152990854,0.1552232852,0.1701856622,0.0393380482,2178,"DG_s11",26.047,26.656,27.703,27.718,10,10,10,26,1.047,"Left",10,26,16,0,16,16,0,-16,"10-10",0,-16,10,10,10,26
"91",11,"LIN1-LIN2",0.1561733017,-0.0910853023,-0.0876550694,0.0610379046,0.1533821317,0.1798331001,-0.0616871999,-0.1817333683,0.0425255977,0.1293749357,0.1329264227,0.1579182681,0.0541193561,0.1781411827,0.238030066,0.2090445431,0.3774404188,0.3629516337,0.1702188937,0.2574646717,0.3901639777,0.2262656767,0.0522875467,-0.0565111223,2179,"DG_s11",28.718,29.328,30.156,30.172,10,10,13,22,0.828,"Left",13,22,9,0,9,9,0,-9,"10-10",-3,-12,10,13,10,22
"92",11,"LIN9-LIN10",0.16486718055,-0.02724996545,-0.22793220745,0.01794022435,0.30199100435,0.17518828195,0.28170117195,0.33400441255,0.16496909255,0.21488882255,0.06315224055,0.12629074055,0.21234983255,0.000579476549999999,0.01999468655,0.19569274255,0.28585262345,0.21551216945,0.05681173775,0.18634487375,0.16907399255,0.03898582055,0.05955479855,0.20523141855,2179,"DG_s11",28.718,29.328,30.156,30.172,10,10,13,22,0.828,"Left",13,22,9,0,9,9,0,-9,"10-10",-3,-12,10,13,10,22
"93",11,"RIN3-RIN4",0.0943731792,0.1574322292,0.2433149702,0.2016220852,0.0599204892,0.0493359342,0.1175282002,0.2365078042,0.1317071712,-0.0850135428,0.0075910912,0.1279533882,0.0970409652,0.2502812258,0.5785778178,0.5583425162,0.3023032712,0.3178181552,0.1758390414,0.0445986984,0.1060645072,0.1141326992,0.1811860692,0.2740367002,2179,"DG_s11",28.718,29.328,30.156,30.172,10,10,13,22,0.828,"Left",13,22,9,0,9,9,0,-9,"10-10",-3,-12,10,13,10,22
"94",11,"RIN2-RIN3",0.130415087,-0.055623333,0.143957813,0.062550367,-0.115755539,-0.044265776,-0.0829311665,0.0365534645,0.057141874,-0.118326708,-0.100019317,0.074077983,0.12996137,0.081799001,0.170829634,0.410981192,0.272740634,-0.011878773,-0.0246721218,0.0471852212,0.0717810802,-0.0720577588,-0.180484244,-0.075120101,2179,"DG_s11",28.718,29.328,30.156,30.172,10,10,13,22,0.828,"Left",13,22,9,0,9,9,0,-9,"10-10",-3,-12,10,13,10,22
"95",11,"RIN1-RIN2",-0.2457529649,-0.4555912355,-0.3859187305,-0.4829182315,-0.4279832685,-0.3831337155,-0.2922603845,-0.0305133995,-0.0883391895,-0.2433038045,-0.1449603845,-0.1174220425,-0.3309663213,-0.3246643613,-0.0527757984,-0.00918272339999998,-0.2345960785,-0.3339470805,-0.3504753495,-0.2513250575,-0.2832920395,-0.3898262525,-0.2561520535,-0.3337591805,2179,"DG_s11",28.718,29.328,30.156,30.172,10,10,13,22,0.828,"Left",13,22,9,0,9,9,0,-9,"10-10",-3,-12,10,13,10,22
"96",11,"LIN3-LIN4",0.10243281825,-0.07542777375,-0.03880276375,0.14912312625,0.27074491725,0.47211112725,0.50639881725,0.23879285925,0.20353362225,0.31687129625,0.16580442725,0.17766173625,0.10626540225,0.05264072225,0.11654196425,0.16043848925,0.29814131525,0.26441946025,0.21307428635,0.32417191135,0.27681849525,0.02466289725,0.20182955925,0.41627551725,2179,"DG_s11",28.718,29.328,30.156,30.172,10,10,13,22,0.828,"Left",13,22,9,0,9,9,0,-9,"10-10",-3,-12,10,13,10,22
"97",11,"LIN4-LIN5",0.0869057953,0.1392227993,0.011595376,-0.106788101,-0.302562016,-0.248109452,-0.1156886,-0.13622923,-0.093633903,-0.069003482,-0.026721085,0.081720162,-0.00860581999999999,-0.25486776,-0.314408591,-0.307774291,-0.242774063,-0.061855733,-0.101417729,-0.228626829,-0.123390115,-0.0295917388,-0.0873431718,0.019657992,2179,"DG_s11",28.718,29.328,30.156,30.172,10,10,13,22,0.828,"Left",13,22,9,0,9,9,0,-9,"10-10",-3,-12,10,13,10,22
"98",11,"RIN9-RIN10",0.1148207325,0.1587469845,0.1011330205,0.0619124608,0.1915415448,0.2340321445,0.2348579375,0.1782391065,0.3514018795,0.4697872905,0.1633629745,0.0616655319,0.1377595779,0.1953738805,0.2876776095,0.0940259195,0.0760358925,0.2930963925,0.2542091715,0.1834876215,0.1380460265,-0.0847387335,-0.1485878995,0.0277385605,2179,"DG_s11",28.718,29.328,30.156,30.172,10,10,13,22,0.828,"Left",13,22,9,0,9,9,0,-9,"10-10",-3,-12,10,13,10,22
"99",11,"LIN2-LIN3",0.044101266,0.057897797,-0.049839107,-0.086921878,-0.086289838,-0.001988174,0.06717209,0.011691916,-0.060811304,-0.254806484,-0.087292251,0.102905176,-0.021267157,0.120765276,0.13254637,0.18370061,0.42142514,0.46748398,0.151419086,-0.113706273,-0.069561623,-0.209245495,-0.1791794,0.205946378,2179,"DG_s11",28.718,29.328,30.156,30.172,10,10,13,22,0.828,"Left",13,22,9,0,9,9,0,-9,"10-10",-3,-12,10,13,10,22
"100",12,"RIN1-RIN2",-0.2825592446,-0.3659860946,-0.3644977458,-0.2771366048,-0.3917922936,-0.3829214836,-0.2001872356,-0.1789806636,-0.1709613016,-0.0957058046,-0.1776337946,-0.1859304126,-0.0712726726,-0.2557470216,-0.363905673,-0.113989996,-0.0874939846,-0.1340748946,0.00574963540000001,-0.0131510386,-0.0777498986,-0.0842097196,0.0694839954,0.3510524704,2180,"DG_s11",31.172,31.781,33.125,33.14,10,10,16,4,1.344,"Right",16,4,12,0,12,0,-12,12,"10-10",-6,6,16,10,4,10
"101",12,"RIN9-RIN10",-0.111331138,-0.085287185,-0.00823449899999999,0.020650368,-0.03108606,-0.147832012,-0.057125027,0.028333758,-0.079423323,-0.088870367,-0.107212381,-0.04861114,-0.079294021,-0.201809715,-0.105480769,-0.031949283,-0.02976538,-0.0237533639,0.0998277621,0.1422918231,0.1131595061,0.032014524,0.011455021,0.0203331436,2180,"DG_s11",31.172,31.781,33.125,33.14,10,10,16,4,1.344,"Right",16,4,12,0,12,0,-12,12,"10-10",-6,6,16,10,4,10
"102",12,"LIN2-LIN3",-0.0287799525,-0.1447142295,-0.249581743,-0.066547866,-0.117558968,-0.109708863,-0.0861319615,-0.2455516265,-0.1565953695,-0.0910505095,-0.0860137865,-0.0454563965,0.0570603745,-0.0733215365,-0.1435451955,-0.1034403355,-0.1825793975,-0.2302307165,-0.0622773115,-0.0849500615,-0.2627066195,-0.0527339495,0.4074753635,0.6244145905,2180,"DG_s11",31.172,31.781,33.125,33.14,10,10,16,4,1.344,"Right",16,4,12,0,12,0,-12,12,"10-10",-6,6,16,10,4,10
"103",12,"RIN2-RIN3",-0.2379880805,-0.2075356091,-0.1292537691,-0.1300471725,-0.0302645655,-0.0160100965,0.0460890345,0.1069097875,-0.0129762145,-0.1098001085,-0.1585800095,-0.0237795775,-0.0968141265,-0.1765871325,-0.1176751355,0.0137036185,0.1251705715,-0.1120335685,-0.2423852735,-0.2135517475,-0.1511991597,-0.1127337937,-0.0161481565,0.5116709115,2180,"DG_s11",31.172,31.781,33.125,33.14,10,10,16,4,1.344,"Right",16,4,12,0,12,0,-12,12,"10-10",-6,6,16,10,4,10
"104",12,"LIN1-LIN2",-0.2789731333,-0.3065021665,0.0203134645,0.1109209425,-0.1060004885,-0.1426687665,-0.1997298855,-0.0964770775,0.2244374425,0.1638836295,0.1376324295,0.2360225595,0.2439427595,-0.0146704545,-0.2513653515,-0.1570348935,-0.1805606365,-0.1474023635,0.0072684665,0.0739629685,0.0253858525,0.1108288035,0.3356688695,0.4069199325,2180,"DG_s11",31.172,31.781,33.125,33.14,10,10,16,4,1.344,"Right",16,4,12,0,12,0,-12,12,"10-10",-6,6,16,10,4,10
"105",12,"LIN3-LIN4",0.0543044419,0.072537085,-0.209025708,-0.034333172,0.084610021,-0.016702086,-0.085855812,-0.082621281,-0.124556082,-0.265216822,-0.103988575,0.053028768,0.005346925,-0.109939022,-0.19454218,-0.137242743,-0.017249682,-0.031343114,-0.078193724,0.024194765,-0.045687754,0.120261086,0.294992295,0.335932185,2180,"DG_s11",31.172,31.781,33.125,33.14,10,10,16,4,1.344,"Right",16,4,12,0,12,0,-12,12,"10-10",-6,6,16,10,4,10
"106",12,"LIN9-LIN10",0.16256452825,0.13751766925,0.12676475925,-0.08989191675,-0.09804809475,0.17813207925,0.31813729725,0.07809954625,-0.06833062295,0.15100656905,0.40260543825,0.47089448325,0.25188763325,-0.04078044675,-0.08777236975,0.14405372225,0.29791581525,0.21168518325,0.10038355125,0.27017176125,0.33707947325,0.17225736325,-0.07832812955,0.09555663045,2180,"DG_s11",31.172,31.781,33.125,33.14,10,10,16,4,1.344,"Right",16,4,12,0,12,0,-12,12,"10-10",-6,6,16,10,4,10
"107",12,"RIN3-RIN4",-0.07795451957,0.23655441665,0.17776556315,-0.03710045785,0.07564998615,0.03130924915,0.10009059915,0.22778523915,-0.01915703785,-0.18446625285,-0.14710326285,-0.04583594385,-0.04220684385,0.27409872215,0.38318396215,0.21721149215,0.23883635215,0.10493811215,0.03992216315,0.02470309315,0.16859359215,0.09478182255,0.02478829355,0.14220447315,2180,"DG_s11",31.172,31.781,33.125,33.14,10,10,16,4,1.344,"Right",16,4,12,0,12,0,-12,12,"10-10",-6,6,16,10,4,10
"108",12,"LIN4-LIN5",0.0720065595,0.1557144505,0.1773210955,0.0112659885,0.0239494131,0.0746865691,0.0673142595,-0.0060364845,-0.0586383915,0.1198689245,0.1835514335,0.2004804055,0.1940151935,0.1907599815,0.12351442,-0.049277748,-0.1325590965,-0.0705947365,-0.0637173465,-0.0139813665,0.15626491231,0.17635388941,0.0387442376,0.0102234205,2180,"DG_s11",31.172,31.781,33.125,33.14,10,10,16,4,1.344,"Right",16,4,12,0,12,0,-12,12,"10-10",-6,6,16,10,4,10
"109",13,"LIN3-LIN4",-0.00269929585000001,0.06533585595,0.00428664195,0.21696345395,0.25754768795,-0.02416218305,-0.20089032895,-0.20735627955,-0.19052105965,-0.23348656565,-0.27777186365,-0.37656626605,-0.34219526205,-0.14846583005,-0.03348494605,-0.04796435805,-0.10238403205,-0.08060526005,-0.02716571405,-0.24519027605,-0.23036951205,0.08233061795,-0.16110240505,-0.27126945705,2181,"DG_s11",34.14,34.75,35.468,35.484,10,10,8,11,0.718,"Left",8,11,3,0,3,3,0,-3,"10-10",2,-1,10,8,10,11
"110",13,"RIN3-RIN4",-0.012926641115,-0.094620536115,-0.097830621115,-0.062289641115,-0.042262441115,0.124988030885,0.276443620885,0.152552737885,-0.082305242115,-0.043576834515,-0.00244990201500001,-0.001789223615,0.038082797885,0.020015817885,-0.00977556711500001,0.126666031885,0.238134147885,-0.011889902115,-0.021021517115,0.110837752885,-0.022482337115,-0.105041037115,-0.093942017115,-0.128072215115,2181,"DG_s11",34.14,34.75,35.468,35.484,10,10,8,11,0.718,"Left",8,11,3,0,3,3,0,-3,"10-10",2,-1,10,8,10,11
"111",13,"LIN1-LIN2",-0.2458306447,-0.2822588859,-0.2858119989,-0.18897912705,-0.13382520105,-0.2319533169,-0.2177638589,-0.2412964469,-0.2813636179,-0.1879310249,0.1225274841,0.2911301261,-0.0409214989,-0.2038568089,-0.1104696692,-0.0664544392,0.0404639141,0.0360460131,0.00839459710000001,-0.0068665846,-0.1038818716,-0.0848959393,-0.0985520263,-0.2072116349,2181,"DG_s11",34.14,34.75,35.468,35.484,10,10,8,11,0.718,"Left",8,11,3,0,3,3,0,-3,"10-10",2,-1,10,8,10,11
"112",13,"LIN9-LIN10",0.2824572412,0.1257665332,0.195137422,0.155374493,0.039863523,0.113519133,0.220963263,0.1137715,0.01953137,0.212241958,0.138401256,0.202021101,0.296234563,0.139291633,0.049099761,-0.005372616,0.061307916,0.10220865,0.11770328,0.043030423,-0.1469490619,-0.0138870649,0.26302764,0.277401774,2181,"DG_s11",34.14,34.75,35.468,35.484,10,10,8,11,0.718,"Left",8,11,3,0,3,3,0,-3,"10-10",2,-1,10,8,10,11
"113",13,"RIN9-RIN10",0.10660126805,0.04985939005,-0.12368021895,-0.00496528095,0.05018495699,0.02761222299,0.22798647205,0.24328063305,0.14906824405,0.27555728305,0.02164398205,-0.31126245795,-0.18998308945,0.00815692054999999,0.22221225305,0.37264375305,0.60026375205,0.37929068005,-0.04207610995,0.10913419205,0.05300229205,-0.12183823795,0.03621296005,0.18473786605,2181,"DG_s11",34.14,34.75,35.468,35.484,10,10,8,11,0.718,"Left",8,11,3,0,3,3,0,-3,"10-10",2,-1,10,8,10,11
"114",13,"LIN4-LIN5",0.0528093895,0.2491772595,0.1519754095,-0.0340659091,0.0322405009,0.0347994378,0.1475996678,0.1798570865,0.0296678415,0.0103999485,-0.0323811505,-0.020367337,0.052443936,0.0659990065,0.1290508625,0.3363826405,0.3598811745,0.1358929605,0.0736245565,0.2108082575,0.3831480025,0.1937794655,0.0062505855,0.1630359825,2181,"DG_s11",34.14,34.75,35.468,35.484,10,10,8,11,0.718,"Left",8,11,3,0,3,3,0,-3,"10-10",2,-1,10,8,10,11
"115",13,"RIN1-RIN2",0.023887455,0.085243426,0.2128120499,0.1730004039,0.25263587,0.270329593,0.355225646,0.345159328,0.034049278,0.055489298,0.187225263,0.262756341,0.413806595,0.237898777,0.206342104,0.518003104,0.5366989569,0.4028629359,0.303609298,0.252330669,0.092915441,0.057199892,0.1956392589,0.1423299589,2181,"DG_s11",34.14,34.75,35.468,35.484,10,10,8,11,0.718,"Left",8,11,3,0,3,3,0,-3,"10-10",2,-1,10,8,10,11
"116",13,"RIN2-RIN3",0.03992212486,-0.11618156234,-0.03665548534,0.06588434466,0.04163028766,0.01342722466,-0.01582290704,0.03891521596,0.10985986366,0.01664312566,-0.00414443334,-0.03253763534,0.02594474966,0.19509849666,0.28248100466,0.44343591766,0.22874078966,0.02933608766,0.36647500766,0.37384923466,0.06016521266,-0.051350567,-0.0169638,0.04618980966,2181,"DG_s11",34.14,34.75,35.468,35.484,10,10,8,11,0.718,"Left",8,11,3,0,3,3,0,-3,"10-10",2,-1,10,8,10,11
"117",13,"LIN2-LIN3",-0.16834707425,-0.14880248125,-0.18122546825,-0.06224517525,-0.19299091125,-0.39819352125,-0.26633734525,-0.21619019525,-0.25414672125,-0.09401580045,0.06731859355,0.03211245475,-0.11834193825,-0.16884243425,-0.06771116325,-0.09250835925,-0.02107250125,0.13176350675,0.00810540874999999,-0.10734068825,-0.02803911125,0.04507976775,0.09887042145,0.11674810345,2181,"DG_s11",34.14,34.75,35.468,35.484,10,10,8,11,0.718,"Left",8,11,3,0,3,3,0,-3,"10-10",2,-1,10,8,10,11
"118",14,"LIN9-LIN10",-0.1058252001,-0.0500361981,-0.170944509,-0.240372165,-0.233099462,-0.016038784,0.072131172,-0.019541544,0.104758843,-0.010617301,-0.200820982,-0.1332186792,-0.0782633712,-0.059347793,-0.110983937,0.069037616,0.273892946,0.350104971,0.228181511,-0.180072118,-0.192585314,-0.065077534,-0.256198257,-0.236411007,2182,"DG_s11",36.484,37.093,37.922,37.922,18,18,10,10,0.829,"Left",18,18,0,0,0,0,0,0,"Equal",8,8,18,10,18,10
"119",14,"RIN1-RIN2",0.1785823083,0.1244061075,0.2861942107,0.3085837757,0.0123860325,0.1210142305,0.2521317425,0.1357503515,0.0331590815,0.0966368277,-0.0017497023,0.0488660185,0.1010143375,-0.0747356925,-0.0854077485,-0.0220046122,0.2516391478,0.4167098415,0.1594732625,0.0330066135,0.0527691745,-0.0136716785,0.1522618315,0.1065447235,2182,"DG_s11",36.484,37.093,37.922,37.922,18,18,10,10,0.829,"Left",18,18,0,0,0,0,0,0,"Equal",8,8,18,10,18,10
"120",14,"RIN9-RIN10",-0.0027006945,-0.0659853065,0.0958271745,0.0210147984,-0.1226832846,-0.0740069034,-0.2421480534,-0.0980947285,0.114902975,0.08924266,0.1338604665,0.3177739315,0.2246444665,-0.0717174045,-0.1499492875,-0.0147950035,-0.0199572325,-0.06421800823,0.03112625477,0.0331932615,-0.1338983345,-0.1266553085,0.1239208095,0.1914955395,2182,"DG_s11",36.484,37.093,37.922,37.922,18,18,10,10,0.829,"Left",18,18,0,0,0,0,0,0,"Equal",8,8,18,10,18,10
"121",14,"LIN3-LIN4",0.1905186365,0.1371756375,0.1498900295,0.1014427025,-0.0612808085,-0.123712096,-0.193304016,-0.2454163455,-0.1247080365,-0.0124831585,-0.0207725675,-0.121978278,-0.065536533,0.0442338365,0.2088098125,0.2348504875,-0.1412724335,-0.2085470035,0.0858897515,0.1664167455,0.1664722695,-0.0841527065,-0.2928305166,-0.2427743166,2182,"DG_s11",36.484,37.093,37.922,37.922,18,18,10,10,0.829,"Left",18,18,0,0,0,0,0,0,"Equal",8,8,18,10,18,10
"122",14,"RIN3-RIN4",0.10111607,0.05842114,0.175881756,-0.184925614,-0.013056719,0.372152201,0.100900019,-0.071387861,-0.000715805999999999,0.158926732,0.313752713,0.317867063,0.156062033,0.111896182,0.186952963,0.157452026,0.083482147,0.137983417,0.238489966,0.255014876,0.219509845,0.013576218,-0.063122082,-0.014855755,2182,"DG_s11",36.484,37.093,37.922,37.922,18,18,10,10,0.829,"Left",18,18,0,0,0,0,0,0,"Equal",8,8,18,10,18,10
"123",14,"LIN2-LIN3",-0.126855766,-0.135781278,-0.001368174,0.060192325,-0.051574406,-0.142643144,0.002950167,0.140971115,0.030991108,-0.105625829,-0.095367601,0.02448952,0.094663465,0.2254609303,0.3068401203,0.205816809,0.029667842,-0.0413286829,0.0523706871,-0.037762196,0.084784451,0.209433092,0.103146729,0.264969009,2182,"DG_s11",36.484,37.093,37.922,37.922,18,18,10,10,0.829,"Left",18,18,0,0,0,0,0,0,"Equal",8,8,18,10,18,10
"124",14,"LIN4-LIN5",0.1598408334,0.2299642244,0.2649140104,0.0258185364,-0.0539029026,0.0430969044,-0.0118251426,-0.1025273356,-0.000789026599999992,0.1632005284,0.1030005144,-0.0301376733,-0.0308300413,-0.0761985096,-0.0751746617,0.1999741493,0.1913632484,0.2160854184,0.3138400104,0.1943082314,0.2952482374,0.2750723844,0.00424275240000001,-0.0787883876,2182,"DG_s11",36.484,37.093,37.922,37.922,18,18,10,10,0.829,"Left",18,18,0,0,0,0,0,0,"Equal",8,8,18,10,18,10
"125",14,"RIN2-RIN3",0.1156732745,0.0457904575,0.0945288265,0.0763155145,0.0829832485,0.2772112115,0.2514890695,0.1698600935,0.3191152325,0.6405756985,0.4709293185,0.3430581575,0.4916130695,0.38857074568,0.26043580728,0.17150530617,0.14086851257,0.2071313785,0.2744864705,0.2994809905,0.1521805215,0.0038861415,-0.0421486605,-0.1004652762,2182,"DG_s11",36.484,37.093,37.922,37.922,18,18,10,10,0.829,"Left",18,18,0,0,0,0,0,0,"Equal",8,8,18,10,18,10
"126",14,"LIN1-LIN2",0.08007341,0.180846612,0.124459115,0.0562947324,0.0075501554,0.010542718,0.247686908,0.104288156,-0.120819344,-0.115320267,-0.003890247,0.065221216,0.048983942,0.369985382,0.585519926,0.376643616,0.166975588,0.144789848,0.220003073,0.145673083,0.213195026,0.364165166,0.246734847,0.254093217,2182,"DG_s11",36.484,37.093,37.922,37.922,18,18,10,10,0.829,"Left",18,18,0,0,0,0,0,0,"Equal",8,8,18,10,18,10
"127",15,"RIN9-RIN10",0.00516909049999999,0.0697481665,-0.0256491155,-0.0500438405,-0.2486877205,-0.2549721105,-0.1805410588,-0.1747868228,-0.0916714657,0.0626167043,0.0203747625,0.0506217895,0.0174430625,-0.2367097755,-0.1528377135,-0.0883994753,-0.1132240173,-0.1591571305,0.0756391095,0.0446367795,0.0059450495,0.1108800295,-0.0328004685,0.1210530615,2183,"DG_s11",38.922,39.531,40.687,40.687,10,10,8,16,1.156,"Right",8,16,8,0,8,8,0,-8,"10-10",2,-6,8,10,16,10
"128",15,"RIN1-RIN2",0.0254623555,-0.0852167945,0.1613076205,0.2875925885,0.0983839265,0.0306160395,-0.0909726585,-0.1023991495,-0.1664185395,-0.1731243435,-0.1006210045,0.0798978795,0.0576481555,-0.0996652479,0.0206059571,0.1487636805,-0.0568358695,-0.2427695635,-0.0685485085,-0.0407409204,-0.0290520094,-0.0023099035,0.1067174815,-0.0074197605,2183,"DG_s11",38.922,39.531,40.687,40.687,10,10,8,16,1.156,"Right",8,16,8,0,8,8,0,-8,"10-10",2,-6,8,10,16,10
"129",15,"LIN1-LIN2",0.051327506,-0.039549714,0.234586774,0.298736576,0.128628688,0.104403168,0.1382728436,0.1608258036,0.162466948,0.181292476,0.067162486,-0.0316933171,0.0177361059,0.0465528188,0.0559129473,-0.047533216,-0.0123903309,0.1303920026,0.151019693,0.011405343,0.097320966,0.193627786,0.043525994,-0.015938518,2183,"DG_s11",38.922,39.531,40.687,40.687,10,10,8,16,1.156,"Right",8,16,8,0,8,8,0,-8,"10-10",2,-6,8,10,16,10
"130",15,"LIN4-LIN5",-0.05244142055,-0.14687346255,-0.13964765555,0.02946234645,0.04281861745,-0.12728728455,-0.26534558655,-0.21532939255,-0.23071231855,-0.22006230255,-0.17208265455,-0.28451339075,-0.24575778475,-0.17370158355,-0.31184647755,-0.37060845855,-0.29569885055,-0.08930031255,0.05547449945,0.01473680945,-0.15080149455,-0.18686084955,-0.02680214655,0.07301354525,2183,"DG_s11",38.922,39.531,40.687,40.687,10,10,8,16,1.156,"Right",8,16,8,0,8,8,0,-8,"10-10",2,-6,8,10,16,10
"131",15,"LIN3-LIN4",0.2915264292,0.1505188301,0.0735932621,0.2037568852,0.3454712342,0.4424539262,0.2279993962,0.1344568465,0.3065420515,0.2263473502,0.0459690422,-0.0256291658,0.1332357772,0.3697501682,0.3243486241,0.2440659691,0.1719674702,0.1161410242,0.1710988102,0.18032473194,0.05363607094,-0.0719627523,0.1187549947,0.2781949752,2183,"DG_s11",38.922,39.531,40.687,40.687,10,10,8,16,1.156,"Right",8,16,8,0,8,8,0,-8,"10-10",2,-6,8,10,16,10
"132",15,"RIN2-RIN3",-0.06312877485,-0.00934802335000001,0.06747854765,0.14482863765,0.11966577965,-0.06873944835,-0.04261011035,0.06437372065,0.05409772565,-0.09426597635,-0.14412163135,0.20763946765,0.37873036765,0.12035261765,-0.03016128735,0.000236312649999994,0.04439410765,0.09149530865,-0.000170946580000005,0.09551248242,0.08227869265,0.00280167465,0.04797101865,0.03923541065,2183,"DG_s11",38.922,39.531,40.687,40.687,10,10,8,16,1.156,"Right",8,16,8,0,8,8,0,-8,"10-10",2,-6,8,10,16,10
"133",15,"RIN3-RIN4",-0.0227447778,-0.009292474,0.011479092,0.0314057188,-0.0229953298,-0.0490113166,0.146968176,0.189718178,0.108895332,0.00318611,-0.1039301017,0.0292540183,0.140557023,0.013714153,-0.060493997,-0.083483451,-0.056065205,-0.126404666,-0.062343916,0.245762788,0.259265798,0.27328768,0.170330804,0.012082852,2183,"DG_s11",38.922,39.531,40.687,40.687,10,10,8,16,1.156,"Right",8,16,8,0,8,8,0,-8,"10-10",2,-6,8,10,16,10
"134",15,"LIN9-LIN10",-0.0474684006,0.0318364114,-0.000434424599999997,0.0626910754,0.2986065134,0.2205922034,0.0728866304,0.0722846704,0.1476506634,0.0569606854,-0.0807993796,-0.1345566156,-0.0350653006,0.1338489614,0.1972632764,0.2532546924,0.1224930144,0.0500008104,0.0326633704,0.0571599204,0.1865743334,0.0915593794,-0.0743886556,-0.0277630726,2183,"DG_s11",38.922,39.531,40.687,40.687,10,10,8,16,1.156,"Right",8,16,8,0,8,8,0,-8,"10-10",2,-6,8,10,16,10
"135",15,"LIN2-LIN3",-0.0028374795,-0.2480158275,-0.1756691865,-0.1108368715,-0.1452620315,-0.1911372165,-0.1713981575,-0.1400831475,0.000863349499999999,0.1331632395,-0.0450347665,-0.1569516335,-0.0753429475,-0.0106602905,-0.1094477105,-0.0196174305,0.0273954805,-0.1410046755,-0.0955939565,-0.1097910185,-0.0769661915,-0.0389479745,-0.1128035915,-0.0223661025,2183,"DG_s11",38.922,39.531,40.687,40.687,10,10,8,16,1.156,"Right",8,16,8,0,8,8,0,-8,"10-10",2,-6,8,10,16,10
"136",16,"LIN4-LIN5",-0.035545465,-0.153803449,-0.018104609,-0.0762822866,-0.1571859916,-0.25843608,-0.271851531,-0.151888237,-0.208508796,-0.30121198,-0.372311615,-0.168760505,0.020336005,-0.146618985,-0.209037055,-0.080281338,-0.051345841,-0.2109799605,-0.3370557535,-0.240118012,-0.275369146,-0.218300357,-0.146750154,-0.154915216,2184,"DG_s11",41.687,42.297,43,43,10,10,3,17,0.703,"Left",3,17,14,0,14,14,0,-14,"10-10",7,-7,10,3,10,17
"137",16,"RIN9-RIN10",0.1012554558,0.1747178195,0.0848116815,0.2111789288,0.1733300438,-0.0867096022,-0.1152773752,0.0481290438,0.1353488368,0.2044633878,0.1967880908,0.0285752328,0.0587190938,0.2971723418,0.5434058478,0.4197760528,0.1117942348,0.0625599508,0.1207205688,0.0771960068,0.0980700708,0.3057688608,0.2846982628,0.2712131748,2184,"DG_s11",41.687,42.297,43,43,10,10,3,17,0.703,"Left",3,17,14,0,14,14,0,-14,"10-10",7,-7,10,3,10,17
"138",16,"LIN3-LIN4",-0.0178724145,0.2210147295,0.3478490895,0.0415699855,-0.1063508205,-0.0303124025,-0.0423427635,-0.0580576285,-0.0174616605,0.0286842875,0.1270163255,0.0854440168,-0.01637549649,-0.02083960479,-0.0545763193,-0.0560367213,-0.0830562795,0.1051101245,0.2130342025,0.1649145735,0.1300047315,-0.1297663815,-0.2449773635,0.0244123365,2184,"DG_s11",41.687,42.297,43,43,10,10,3,17,0.703,"Left",3,17,14,0,14,14,0,-14,"10-10",7,-7,10,3,10,17
"139",16,"RIN2-RIN3",-0.1036738445,-0.2137006625,-0.0780686825,0.0587884515,-0.1423816785,-0.3153433725,-0.2628302265,-0.2229506755,-0.1160278515,-0.108474883,-0.3955319708,-0.2719560363,-0.0838078045,-0.2562764045,-0.2377969915,-0.1093488265,-0.0597505765,-0.1646579385,-0.3087086938,-0.3148921168,-0.2352913485,-0.0947638435,-0.1532402335,-0.1467815135,2184,"DG_s11",41.687,42.297,43,43,10,10,3,17,0.703,"Left",3,17,14,0,14,14,0,-14,"10-10",7,-7,10,3,10,17
"140",16,"LIN2-LIN3",-0.096070981,0.163226439,0.259105406,0.07378385581,-0.00361666219,-0.040081901,-0.092172451,0.130907058,0.121799779,-0.002193162,0.039675338,0.041875536,0.0974750108,0.0175831488,-0.112740515,-0.100969095,0.117838953,0.258129933,0.274885983,0.217672808,0.008498094,0.0478996687,0.0531270887,-0.008764998,2184,"DG_s11",41.687,42.297,43,43,10,10,3,17,0.703,"Left",3,17,14,0,14,14,0,-14,"10-10",7,-7,10,3,10,17
"141",16,"RIN1-RIN2",0.0775633601,0.1137631941,-0.1565002959,-0.1998198609,-0.1517411309,-0.1636769641,0.0336252259,-0.0869238769,-0.0847465762,-0.0660192632,-0.1145954489,0.1444208831,0.1407848751,-0.0991583449,-0.0104460539,0.1554709431,0.1595440641,0.1603557741,0.054774199,0.00315366,0.0494332661,0.0217259281,0.1357351231,0.0217145541,2184,"DG_s11",41.687,42.297,43,43,10,10,3,17,0.703,"Left",3,17,14,0,14,14,0,-14,"10-10",7,-7,10,3,10,17
"142",16,"LIN9-LIN10",0.0831570885,-0.0229090585,0.1130926484,0.2633888824,0.2180755875,0.1702091665,0.3142917615,0.6388250755,0.6222384855,0.2145623855,-0.0900141515,0.0268005565,0.4531154235,0.4845488835,0.1279127315,0.1287204735,0.1098791365,0.0784046265,0.4926220055,0.5785338395,0.2169417575,0.0141517985,0.1824325805,0.3028697055,2184,"DG_s11",41.687,42.297,43,43,10,10,3,17,0.703,"Left",3,17,14,0,14,14,0,-14,"10-10",7,-7,10,3,10,17
"143",16,"LIN1-LIN2",-0.13633619955,0.00549740244999999,0.12080690874,0.08761211874,-0.04024952655,-0.09927295255,-0.19313271955,-0.15004064355,-0.19802681855,0.09539908145,0.32260875245,0.02399530245,-0.16694037655,-0.23988943355,-0.15674233655,0.02111357045,0.04460607145,-0.16601801155,-0.26812258055,-0.15661228555,-0.02868890305,0.02925438495,0.06584773045,-0.03234625155,2184,"DG_s11",41.687,42.297,43,43,10,10,3,17,0.703,"Left",3,17,14,0,14,14,0,-14,"10-10",7,-7,10,3,10,17
"144",16,"RIN3-RIN4",0.202313641815,0.159113840815,0.022726855815,0.175771706815,0.180246245815,0.076501515815,0.163618511815,0.159039635815,0.154456372815,0.257513098815,0.203877982815,0.077530568815,-0.031376186185,-0.011666762185,0.155906664815,0.053546827815,-0.052633155185,0.046799059815,0.167836380815,0.117624688815,0.071963548815,0.106252768815,-0.004945865185,0.168578252815,2184,"DG_s11",41.687,42.297,43,43,10,10,3,17,0.703,"Left",3,17,14,0,14,14,0,-14,"10-10",7,-7,10,3,10,17
"145",17,"LIN2-LIN3",-0.08282485355,-0.10726078445,-0.00586313675,-0.02078431585,0.01843599645,-0.01557116455,-0.17854246555,-0.10108994155,-0.01816928155,-0.01980529755,0.08746519345,0.13590789275,-0.05794584625,-0.10758055555,0.01147382245,-0.03460967155,-0.07663803915,-0.02957057425,0.21559586435,0.25908559545,0.09647421345,-0.02323658835,-0.16619770335,-0.21834734155,2185,"DG_s11",44,44.609,45.422,45.422,10,10,6,6,0.813,"Left",6,6,0,0,0,0,0,0,"10-10",4,4,10,6,10,6
"146",17,"RIN3-RIN4",-0.0149598155,0.2080578155,0.0312110655,-0.0968692475,0.0670180395,0.1054019885,0.0171701375,-0.0093183544,-0.020322144,0.0819706589,0.0218966625,-0.1343612575,-0.0818810245,0.1881757955,0.4788728515,0.4495447055,0.2126122453,0.0804580373,0.1212915685,0.100323406,0.064748296,-0.0136851685,-0.0711875725,0.1024660285,2185,"DG_s11",44,44.609,45.422,45.422,10,10,6,6,0.813,"Left",6,6,0,0,0,0,0,0,"10-10",4,4,10,6,10,6
"147",17,"RIN1-RIN2",0.287828484,0.216170912,0.2539164056,0.2256954846,0.0555856579,0.1539077157,0.5040845477,0.3921863181,0.0580076781,0.000371287899999989,0.1356530439,0.0188693189,-0.2009882971,-0.0761798081,-0.0306228281,0.0714235589,0.3616032789,0.4903125929,0.2807781599,-0.0211547621,0.0481237309,0.0971207889,0.0865831299,0.00417578889999999,2185,"DG_s11",44,44.609,45.422,45.422,10,10,6,6,0.813,"Left",6,6,0,0,0,0,0,0,"10-10",4,4,10,6,10,6
"148",17,"LIN9-LIN10",-0.2100569185,-0.1145578129,-0.0539988889,0.00765695350000001,-0.0492406995,-0.1143056025,0.0375027175,-0.0532398465,-0.1879006965,-0.0453002925,-0.1418838045,-0.3661868412,-0.2401199402,-0.0878030835,-0.2356237785,-0.1897922025,-0.0869190045,-0.0741719935,0.0226248845,0.2448595976,0.3658416776,0.0575695275,-0.2579164165,-0.2345110805,2185,"DG_s11",44,44.609,45.422,45.422,10,10,6,6,0.813,"Left",6,6,0,0,0,0,0,0,"10-10",4,4,10,6,10,6
"149",17,"RIN9-RIN10",0.0344485615,0.0716133543,0.0621009933,-0.0627144275,0.0280495545,0.0689554721,-0.0677890419,-0.1822216004,-0.0995358108,0.0782408421,-0.0717993475,-0.2398157725,-0.1905767085,-0.1382093935,-0.2051819945,-0.1778720935,-0.1550463184,-0.1280059607,0.0216353772,0.0847840245,0.0509758366,0.000786456599999999,0.0157471925,0.0789513425,2185,"DG_s11",44,44.609,45.422,45.422,10,10,6,6,0.813,"Left",6,6,0,0,0,0,0,0,"10-10",4,4,10,6,10,6
"150",17,"LIN1-LIN2",-0.1008656745,-0.2523828635,-0.1589917545,-0.2000589335,-0.1880787305,-0.1349592125,-0.1347191245,-0.0206557745,0.0327066135,-0.0920515095,-0.1532687758,-0.0363421588,0.0982840585,-0.0092793655,-0.0639557945,-0.0260865205,-0.0743890315,0.0626741635,0.1752540885,0.1494418615,0.0244161335,-0.0490035485,0.0717097215,0.0402893215,2185,"DG_s11",44,44.609,45.422,45.422,10,10,6,6,0.813,"Left",6,6,0,0,0,0,0,0,"10-10",4,4,10,6,10,6
"151",17,"LIN3-LIN4",-0.0513202765,0.0568020928,0.1467029858,0.1390731928,0.0242014018,-0.0675281632,-0.1226776162,0.000507112800000001,0.1059163468,0.04272313683,0.01418787283,-0.1149413482,-0.1513055152,-0.0066302362,-0.0465138282,0.0245207928,0.000272034800000001,-0.1507120942,-0.0883711282,-0.0056974452,-0.0715821832,-0.1458545552,-0.0719408174,-0.0760383904,2185,"DG_s11",44,44.609,45.422,45.422,10,10,6,6,0.813,"Left",6,6,0,0,0,0,0,0,"10-10",4,4,10,6,10,6
"152",17,"RIN2-RIN3",0.2143262175,0.3290879685,0.3092703535,0.4262068565,0.2977896855,0.2486150315,0.5850209765,0.4891893945,0.2656885395,0.2716313415,0.2735649223,0.1889278013,0.0195939755,0.1189968935,0.3470271935,0.3910051435,0.5034169435,0.4840536765,0.3947710065,0.2202569765,0.1846606595,0.0760635395,-0.1727882035,-0.1101738065,2185,"DG_s11",44,44.609,45.422,45.422,10,10,6,6,0.813,"Left",6,6,0,0,0,0,0,0,"10-10",4,4,10,6,10,6
"153",17,"LIN4-LIN5",-0.0402650005,0.0173619795,0.0722062975,0.0660667365,-0.1272230755,-0.0962528715,0.0422467365,-0.0404258265,0.2099890035,0.4428655635,0.1025483215,-0.1177828345,0.1812667075,0.1877266335,0.0750157265,0.2175911756,0.2798917906,0.2047082685,0.0936591235,-0.0179613065,-0.1189256375,-0.1105078117,-0.2348104637,-0.1956567295,2185,"DG_s11",44,44.609,45.422,45.422,10,10,6,6,0.813,"Left",6,6,0,0,0,0,0,0,"10-10",4,4,10,6,10,6
"154",18,"LIN9-LIN10",0.1277922715,0.1075736285,-0.0792991555,-0.1613489775,-0.11661332,-0.186608271,0.0541447885,0.1692636335,0.1385644435,0.0972727315,-0.1438320385,-0.2018654915,-0.2668447915,-0.2483768435,-0.1093881735,-0.1002829096,-0.2170458092,-0.4154740981,-0.4514527075,-0.1711580265,-0.0512414775,0.0672724415,0.1348119965,0.0662906075,2186,"DG_s11",46.422,47.031,47.843,47.843,10,10,14,26,0.812,"Left",14,26,12,0,12,12,0,-12,"10-10",-4,-16,10,14,10,26
"155",18,"RIN9-RIN10",-0.208994549,-0.141590679,-0.183343685,-0.076510158,-0.088640197,0.044618432,0.047092975,-0.09186049,-0.06875591,-0.113477709,-0.045568922,-0.019415457,-0.082182897,-0.086188355,-0.160290143,-0.234001493,-0.160685786,-0.066115159,-0.07493647,-0.059808946,0.0504745096,-0.0318854804,-0.133753344,0.12592551,2186,"DG_s11",46.422,47.031,47.843,47.843,10,10,14,26,0.812,"Left",14,26,12,0,12,12,0,-12,"10-10",-4,-16,10,14,10,26
"156",18,"RIN3-RIN4",-0.23007838085,-0.19632582385,-0.06153318515,-0.15751040915,-0.04581577185,0.24649713515,-0.01874934985,-0.25660389485,-0.05604940485,0.26959415015,0.19567088315,-0.06959788385,-0.04848390885,0.09130206115,0.21023406215,0.02523049515,-0.11721161785,0.14577287615,0.18194982015,0.00351869115,-0.04586441785,-0.04759721685,-0.10290166385,-0.26442619585,2186,"DG_s11",46.422,47.031,47.843,47.843,10,10,14,26,0.812,"Left",14,26,12,0,12,12,0,-12,"10-10",-4,-16,10,14,10,26
"157",18,"LIN1-LIN2",0.06992577845,0.17633434445,-0.01893148255,-0.19760741255,-0.20527421555,-0.27534800655,-0.36337752955,-0.41758981455,-0.34906123355,0.00419505645000001,0.19325141845,0.03712864845,-0.13126429655,-0.13598266455,0.16126972045,0.22769277845,0.07846098375,-0.08294611125,-0.30888202655,-0.39281820155,-0.24570947555,-0.13613208355,-0.21301446655,-0.20346333855,2186,"DG_s11",46.422,47.031,47.843,47.843,10,10,14,26,0.812,"Left",14,26,12,0,12,12,0,-12,"10-10",-4,-16,10,14,10,26
"158",18,"LIN4-LIN5",0.0880221545,0.0024766245,-0.00396007250000001,-0.1273530565,0.0204799475,0.0634283155,0.1802647555,0.2783038425,0.3779301025,0.3012207235,0.0413236295,0.3923246575,0.4406679515,0.1774068777,0.1169182577,0.1831569315,0.1632609515,0.3487792515,0.2375472615,-0.0439883835,0.0130559165,-0.0795798955,-0.0885238008,-0.0885592808,2186,"DG_s11",46.422,47.031,47.843,47.843,10,10,14,26,0.812,"Left",14,26,12,0,12,12,0,-12,"10-10",-4,-16,10,14,10,26
"159",18,"RIN1-RIN2",0.06580556615,-0.08341651385,0.037739857,0.231976818,0.229454629,0.078231755,0.03818511,0.032505135,0.10177192,0.304901408,0.394952236,0.163830135,0.051882899,0.184859989,0.14763699365,0.18336797555,0.1451165669,0.388486426,0.4585097357,0.1669791467,0.118341406,0.1304625871,0.1391148881,-0.012765634,2186,"DG_s11",46.422,47.031,47.843,47.843,10,10,14,26,0.812,"Left",14,26,12,0,12,12,0,-12,"10-10",-4,-16,10,14,10,26
"160",18,"LIN3-LIN4",-0.20702388255,-0.11295706255,-0.09620326015,-0.24437753815,-0.19411950355,0.07815743245,0.06498945345,-0.14020788955,-0.28921042255,-0.24962074455,-0.10701797355,-0.08840821855,-0.13050189055,-0.13232839455,0.01230099535,-0.07155129065,-0.13894687055,-0.14570465655,-0.10355720955,0.01516527495,-0.14199728805,-0.05254393555,-0.06331130655,-0.29113335495,2186,"DG_s11",46.422,47.031,47.843,47.843,10,10,14,26,0.812,"Left",14,26,12,0,12,12,0,-12,"10-10",-4,-16,10,14,10,26
"161",18,"RIN2-RIN3",0.06599833435,-0.19947958465,-0.08890492265,0.16267822735,0.10893891335,-0.01113458665,0.05498803125,0.00164185175000001,-0.01453136615,0.08184207635,-0.01471938265,-0.17216285465,-0.10352802565,-0.08073871665,-0.03217428865,-0.03819006365,-0.07246638465,0.16544295035,0.10549605135,-0.06533883085,0.01335557715,0.13918532935,0.03090693235,-0.12308829165,2186,"DG_s11",46.422,47.031,47.843,47.843,10,10,14,26,0.812,"Left",14,26,12,0,12,12,0,-12,"10-10",-4,-16,10,14,10,26
"162",18,"LIN2-LIN3",-0.1223130885,-0.1973713675,-0.5414744905,-0.4900251025,-0.3585680945,-0.2801326015,-0.3850884065,-0.6043405755,-0.4323186805,-0.1441836585,-0.1581699535,-0.3632778633,-0.3257092033,-0.3301004585,-0.2110040595,-0.1344620595,-0.3977360126,-0.5080461626,-0.4181703365,-0.2742444755,-0.3398205755,-0.3587043015,-0.38000298629,-0.59331122129,2186,"DG_s11",46.422,47.031,47.843,47.843,10,10,14,26,0.812,"Left",14,26,12,0,12,12,0,-12,"10-10",-4,-16,10,14,10,26
"163",19,"LIN1-LIN2",-0.1840924359,-0.184238653,-0.2609744128,-0.3461114258,-0.355520166,-0.136579175,-0.01321479,-0.062638775,0.090829813,0.030551668,-0.1588582701,-0.0221896881,0.073999937,0.00950334899999999,-0.065788714,-0.135132482,-0.125707167,-0.0891817808,-0.1516230838,0.093101756,0.366752147,0.228638759,0.04809505,-0.009466188,2187,"DG_s11",48.843,49.453,50.562,50.562,10,10,11,7,1.109,"Right",11,7,4,0,4,0,-4,4,"10-10",-1,3,11,10,7,10
"164",19,"RIN3-RIN4",-0.004959421,-0.055929862,-0.084214334,0.089165385,0.275218195,0.119868869,-0.035018843,0.018971984,0.029514858,-0.069762331,0.021985378,0.1221300442,0.1401038332,0.094052747,-0.036951202,-0.173759602,-0.155461517,0.190088983,0.205558741,0.0168143697,0.0498766967,0.254349928,0.176748773,0.066382462,2187,"DG_s11",48.843,49.453,50.562,50.562,10,10,11,7,1.109,"Right",11,7,4,0,4,0,-4,4,"10-10",-1,3,11,10,7,10
"165",19,"LIN9-LIN10",-0.15551016255,-0.04990135955,0.09068379675,0.10746977375,-0.03730312055,0.01545849345,0.11882008935,0.22279801835,0.14268672945,-0.01252057055,-0.08586834255,-0.05845563255,0.05414414245,-0.01124612355,-0.16432099355,-0.20681725755,-0.20696793055,0.19378162945,0.64332321275,0.34164686275,-0.04651946755,-0.03147584655,-0.01220556055,-0.17059245055,2187,"DG_s11",48.843,49.453,50.562,50.562,10,10,11,7,1.109,"Right",11,7,4,0,4,0,-4,4,"10-10",-1,3,11,10,7,10
"166",19,"RIN2-RIN3",-0.0954072771,-0.0228576121,0.1886568159,0.121763876,-0.224680294,-0.3078140691,-0.0945879191,-0.0150847831,-0.0773978711,-0.3057430321,-0.3532820031,-0.1309466041,-0.0140267551,-0.0678547071,-0.1349452991,-0.1211210961,-0.0556819681,0.0369464039,0.2114737349,0.1873613909,0.1129738299,0.1176729219,-0.0764843541,-0.2011073741,2187,"DG_s11",48.843,49.453,50.562,50.562,10,10,11,7,1.109,"Right",11,7,4,0,4,0,-4,4,"10-10",-1,3,11,10,7,10
"167",19,"RIN9-RIN10",-0.0974504891,0.0324983019,-0.0561477881,-0.1457266571,-0.0421041136,-0.022537291,-0.0077842675,-0.2411590651,-0.3212369021,-0.2189848851,-0.1683306451,-0.0386034601,-0.05802053388,-0.02023757588,0.0321068831,0.0301296111,-0.1055796341,-0.2381418311,-0.0503950211,0.02625772612,-0.12599542398,-0.1925803422,-0.2564855021,-0.2914270481,2187,"DG_s11",48.843,49.453,50.562,50.562,10,10,11,7,1.109,"Right",11,7,4,0,4,0,-4,4,"10-10",-1,3,11,10,7,10
"168",19,"LIN3-LIN4",0.242391465,0.120947974,0.034245901,0.1607934,0.104739965,0.162275725,0.14561453,0.0513627091,0.1500308201,-0.042830109,-0.170520767,-0.031911812,0.033709498,0.106761022,0.110078772,-0.074004809,-0.055248669,0.129395206,0.317613446,0.4679872876,0.2377831206,0.012742522,0.045672619,0.026772233,2187,"DG_s11",48.843,49.453,50.562,50.562,10,10,11,7,1.109,"Right",11,7,4,0,4,0,-4,4,"10-10",-1,3,11,10,7,10
"169",19,"RIN1-RIN2",0.41740683,0.102996501,0.201937311,0.136796965,0.207767366,0.130313875,-0.060297452,-0.0910863476,-0.0503931056,0.040878685,0.00669847,0.010527638,0.103975167,0.055784166,0.0160948566,0.0290653906,-0.112940591,-0.089499769,0.1115183832,0.3520011072,0.305526877,-0.010897458,0.014129682,0.2001061225,2187,"DG_s11",48.843,49.453,50.562,50.562,10,10,11,7,1.109,"Right",11,7,4,0,4,0,-4,4,"10-10",-1,3,11,10,7,10
"170",19,"LIN2-LIN3",0.2014976337,0.0524827057,-0.0777848273,-0.0767805333,-0.1421688553,-0.1185279507,-0.0862113217,-0.0204778413,-0.0150820503,-0.1328046453,-0.1833361313,-0.1045039373,-0.1049165923,-0.1138982754,-0.1221754754,-0.1002309063,-0.1153337233,-0.0231912733,0.2286512037,0.1979525287,0.1491359007,0.1498654857,0.0719895867,0.1282439067,2187,"DG_s11",48.843,49.453,50.562,50.562,10,10,11,7,1.109,"Right",11,7,4,0,4,0,-4,4,"10-10",-1,3,11,10,7,10
"171",19,"LIN4-LIN5",-0.0647764179,-0.0674005917,0.2072141014,0.2713068075,0.1323482435,-0.0100153645,-0.1132028455,0.0447225265,0.0301930435,-0.0940043355,-0.0354854875,-0.0661431865,-0.1588367925,-0.2333854465,-0.3177644455,-0.1548204055,0.0564895985,0.0313523136,-0.1096271644,-0.2107140495,-0.3569688605,-0.2363367005,-0.1782092505,-0.1766776695,2187,"DG_s11",48.843,49.453,50.562,50.562,10,10,11,7,1.109,"Right",11,7,4,0,4,0,-4,4,"10-10",-1,3,11,10,7,10
"172",20,"LIN1-LIN2",0.33641001855,0.38272876155,0.243975664604,-0.017461635396,-0.12513209945,-0.16762559945,0.08549849055,0.22158146055,-0.02914761245,-0.03421061345,0.17189227955,0.07028471055,-0.05063422645,-0.01697207345,-0.08155072645,0.16602195355,0.32300783355,0.22138353055,0.25317816055,0.31868573555,0.29734834155,0.32808092655,0.30158747145,0.17466949845,2188,"DG_s11",51.562,52.172,53.25,53.25,10,10,16,4,1.078,"Right",16,4,12,0,12,0,-12,12,"10-10",-6,6,16,10,4,10
"173",20,"LIN9-LIN10",-0.08843439965,0.03728634035,0.10122066035,0.13157676035,0.11458861035,0.07754469935,0.02838368315,0.21993165615,0.19767390335,0.19338333335,0.22414221235,-0.03169575065,0.09941321435,0.15223654035,-0.01032181465,0.00101206135,0.10959250135,0.12885864735,-0.17534037865,-0.01145998165,0.19892016935,0.12251565835,0.33025152335,0.16654305335,2188,"DG_s11",51.562,52.172,53.25,53.25,10,10,16,4,1.078,"Right",16,4,12,0,12,0,-12,12,"10-10",-6,6,16,10,4,10
"174",20,"RIN3-RIN4",-0.0193472901,0.064675544,0.092077158,0.075999948,-0.05735016,0.01997878,0.265175483,0.1058466,-0.025517932,0.0186724181,-0.1035919459,0.043909964,0.310207429,0.068267572,0.081504803,0.338054703,0.111146362,-0.038796068,0.083944023,0.266504983,0.133727918,-0.131834332,0.0255887064,0.0544155954,2188,"DG_s11",51.562,52.172,53.25,53.25,10,10,16,4,1.078,"Right",16,4,12,0,12,0,-12,12,"10-10",-6,6,16,10,4,10
"175",20,"LIN3-LIN4",-0.144332844,-0.024899596,0.142874617,0.197109683,0.141556893,0.025310554,-0.129782606,0.101660803,0.25361895,0.171665716,0.3182888139,0.1852527539,-0.035639481,0.100253579,0.142996377,0.165756956,0.225947217,0.106872416,0.207872041,0.335632693,0.450236039,0.322040341,0.134276199,0.102471707,2188,"DG_s11",51.562,52.172,53.25,53.25,10,10,16,4,1.078,"Right",16,4,12,0,12,0,-12,12,"10-10",-6,6,16,10,4,10
"176",20,"RIN1-RIN2",0.23843680775,-0.00860367625,0.02244764255,0.14467894655,0.23545509015,0.08333846015,0.01253525015,0.17591788015,0.19950175803,0.08290171803,-0.01931069085,0.15460880315,0.26652004725,0.16839985725,0.04667664315,-0.03405737085,0.02854768115,0.16937628215,0.40117772115,0.15176094015,0.10022790215,0.41850531505,0.29332434305,-0.06909146745,2188,"DG_s11",51.562,52.172,53.25,53.25,10,10,16,4,1.078,"Right",16,4,12,0,12,0,-12,12,"10-10",-6,6,16,10,4,10
"177",20,"RIN2-RIN3",0.017120359,-0.037860721,0.035144635,0.070511835,-0.097440301,-0.201708992,-0.234901828,-0.309872464,-0.1648391816,-0.0811801416,-0.152234442,0.12344848,0.276967356,0.055972781,-0.115768967,-0.025689214,0.014502926,-0.074052012,0.002726248,-0.002463824,0.059984499,0.038447519,-0.081829076,-0.114919946,2188,"DG_s11",51.562,52.172,53.25,53.25,10,10,16,4,1.078,"Right",16,4,12,0,12,0,-12,12,"10-10",-6,6,16,10,4,10
"178",20,"LIN2-LIN3",-0.0044826835,-0.1087341325,-0.2410358525,-0.2635339825,-0.2570443615,-0.1678493765,-0.0799210925,0.0524348215,0.1719359965,0.1701393775,0.2385005375,0.1532413155,-0.0226073255,-0.0343497025,-0.1339518475,-0.2957405085,-0.1427278505,0.1403343595,0.1147816515,0.0413112831,0.2409740331,0.3569231415,0.1038098115,-0.0524372455,2188,"DG_s11",51.562,52.172,53.25,53.25,10,10,16,4,1.078,"Right",16,4,12,0,12,0,-12,12,"10-10",-6,6,16,10,4,10
"179",20,"RIN9-RIN10",0.13522674315,0.32661882315,0.18006119715,-0.14022792985,-0.08296751785,-0.07566753885,-0.06033875485,-0.10819520685,-0.28033491785,-0.12498283785,0.12499460315,0.08822781215,-0.06331100385,0.09713359715,0.01849284545,-0.20514328055,-0.23931204285,0.00278451415,0.03664972515,0.00360587814999999,0.08858589535,0.18691502135,0.24143872015,0.03213560015,2188,"DG_s11",51.562,52.172,53.25,53.25,10,10,16,4,1.078,"Right",16,4,12,0,12,0,-12,12,"10-10",-6,6,16,10,4,10
"180",20,"LIN4-LIN5",0.051381332525,0.017914941525,0.092924906525,0.235040618525,0.244604180525,0.193614253525,-0.050391396475,6.30755249999976e-05,0.241518932525,0.336609974525,0.187202070525,0.117009156525,0.137602203525,0.035412512525,0.059240840525,0.120767478525,0.370905230525,0.502348565525,0.264132602525,0.200109772525,0.245404681525,0.102037045025,0.235038746025,0.148453392525,2188,"DG_s11",51.562,52.172,53.25,53.25,10,10,16,4,1.078,"Right",16,4,12,0,12,0,-12,12,"10-10",-6,6,16,10,4,10
"181",21,"LIN1-LIN2",0.0471722804,0.046407898,0.0278375887,0.0688763069,0.0609388432,0.108955316,0.044036764,0.058652878,0.211796323,0.1650755105,0.0353544795,-0.0880553327,0.0396663443,0.2336722894,0.1534103744,0.306329312,0.284379447,0.079727131,0.085016391,0.139609655,0.1016321641,0.1624770341,0.196132394,0.056433128,2189,"DG_s11",54.25,54.859,55.578,55.578,10,10,13,1,0.719,"Left",13,1,12,0,12,0,-12,12,"10-10",-3,9,10,13,10,1
"182",21,"LIN4-LIN5",0.279428451665,0.341070923665,0.169375999665,0.131052255665,0.137653956665,0.174282984665,0.145787580665,-0.138339275335,-0.030483167335,0.113995641665,0.032306101665,0.168565092665,0.121000773665,-0.157661392335,-0.091187787335,0.001699588665,0.001721370665,0.275184620665,0.292458931665,0.052729941665,0.169492503665,0.256813171665,0.299253097665,0.334369786665,2189,"DG_s11",54.25,54.859,55.578,55.578,10,10,13,1,0.719,"Left",13,1,12,0,12,0,-12,12,"10-10",-3,9,10,13,10,1
"183",21,"RIN1-RIN2",-0.1704744505,-0.3029081305,-0.2713678314,-0.081599984,-0.0274600711,-0.2118888685,-0.1626219035,-0.1440257215,-0.2129827088,-0.1331624308,-0.0865759135,-0.1211419395,-0.0661590935,0.0257293025,-0.04297657076,-0.14547998576,-0.2644240325,-0.2666125215,-0.1993625565,-0.0721799225,0.0716785625,-0.0564012875,-0.2020775635,-0.0731115435,2189,"DG_s11",54.25,54.859,55.578,55.578,10,10,13,1,0.719,"Left",13,1,12,0,12,0,-12,12,"10-10",-3,9,10,13,10,1
"184",21,"RIN2-RIN3",-0.24155471,0.00787634299999999,0.292454353,0.134024086,-0.021082823,0.009856718,0.020453161,-0.132902316,-0.06767808,0.0673620477,0.019973252,0.1497713363,0.222296132,0.1132140281,-0.0753759502,-0.1112575573,-0.193166449,-0.165742822,0.096626402,0.078377985,-0.223372509,-0.328522719,-0.247968826,-0.073002378,2189,"DG_s11",54.25,54.859,55.578,55.578,10,10,13,1,0.719,"Left",13,1,12,0,12,0,-12,12,"10-10",-3,9,10,13,10,1
"185",21,"RIN3-RIN4",-0.1190636915,0.1400469785,0.1993257855,-0.0230456245,-0.0891112285,-0.0338222388,-0.1703808918,-0.2545827547,-0.0485059457,-0.0399830325,-0.1778837685,0.1159377615,0.2208908185,-0.0833882505,-0.0449865005,-0.0490545415,-0.1441879866,-0.0841292986,-0.0677790875,-0.0959229855,-0.2240141905,-0.1843571005,-0.1293302065,-0.0957946865,2189,"DG_s11",54.25,54.859,55.578,55.578,10,10,13,1,0.719,"Left",13,1,12,0,12,0,-12,12,"10-10",-3,9,10,13,10,1
"186",21,"RIN9-RIN10",-0.1727713214,-0.1110739704,-0.0669954304,-0.2261882419,-0.3196030949,-0.2349656574,-0.0865870174,-0.0863166914,-0.1105129884,-0.1041310794,-0.2002402794,-0.3012353184,-0.2330125122,-0.3148112142,-0.3501748634,-0.0805800134,-0.0810265244,-0.1191782564,-0.1050762474,-0.2040999854,-0.1160166894,-0.1327231594,-0.2644413584,-0.2700558884,2189,"DG_s11",54.25,54.859,55.578,55.578,10,10,13,1,0.719,"Left",13,1,12,0,12,0,-12,12,"10-10",-3,9,10,13,10,1
"187",21,"LIN3-LIN4",0.0710103415,0.1644314815,0.0552667365,-0.0972397135,0.0915064615,0.1499751675,0.1289085285,0.1832169755,0.1361574504,-0.0193509396,0.0656525243,-0.0261442087,-0.0596208535,0.0822896285,0.1834213269,0.2908664899,0.1421398025,0.0114158035,0.0852275845,0.2276567785,0.1707691765,0.1322297713,0.0304194603,-0.0920884345,2189,"DG_s11",54.25,54.859,55.578,55.578,10,10,13,1,0.719,"Left",13,1,12,0,12,0,-12,12,"10-10",-3,9,10,13,10,1
"188",21,"LIN9-LIN10",0.265575583,0.319710588,0.322324288,0.322440241,0.073712118,0.149226445,0.104101248,-0.025477699,0.024583065,0.255287132,0.20327646,-0.033430282,-0.098407405,-0.233189495,-0.082172654,0.090471618,0.19145272242,0.36585824242,0.227235398,0.216037048,0.274599302,0.003652168,-0.14948869576,-0.01021191176,2189,"DG_s11",54.25,54.859,55.578,55.578,10,10,13,1,0.719,"Left",13,1,12,0,12,0,-12,12,"10-10",-3,9,10,13,10,1
"189",21,"LIN2-LIN3",-0.068296086,0.193133954,0.119116955,-0.015856039,0.062538052,0.261810182,0.360748694,0.147919917,0.0241681186,0.0114219886,0.149390817,0.132522995,-0.087432979,0.102620897,0.374673105,0.280885758,0.129310331,0.081304346,0.05463901,0.175133885,0.22496273079,0.31902090179,0.318749361,-0.06710525,2189,"DG_s11",54.25,54.859,55.578,55.578,10,10,13,1,0.719,"Left",13,1,12,0,12,0,-12,12,"10-10",-3,9,10,13,10,1
"190",22,"LIN3-LIN4",0.195536932,0.2547243439,0.1711326629,0.2317410786,0.2142937856,0.270886818,0.260817958,0.185003095,0.28820025,0.257486343,0.108855022,0.242876032,0.262848838,0.188735431,0.189157684,0.246813886,0.340257457,0.327084106,0.313370716,0.385178068,0.563008838,0.443742127,0.152064199,0.088385703,2190,"DG_s11",56.578,57.187,58.25,58.25,10,10,11,7,1.063,"Right",11,7,4,0,4,0,-4,4,"10-10",-1,3,11,10,7,10
"191",22,"RIN2-RIN3",-0.18389191814,-0.31481628214,-0.44866470214,-0.34995142814,-0.08701211814,-0.08747075814,-0.00591256555,-0.09339250155,-0.29493160314,-0.11304838114,0.01419810586,0.06491579586,0.06294489386,0.00217260686,0.01652893286,-0.07034971714,-0.10490887914,-0.09695454914,-0.18756855314,-0.05357148814,0.07132259286,0.17250284486,0.01354038786,-0.17594303214,2190,"DG_s11",56.578,57.187,58.25,58.25,10,10,11,7,1.063,"Right",11,7,4,0,4,0,-4,4,"10-10",-1,3,11,10,7,10
"192",22,"LIN2-LIN3",0.1360140625,0.2679952165,0.3207810485,0.3053482205,0.2278132517,0.1017913887,0.1067496055,0.1859150325,0.1411979045,0.1462535395,0.2959297995,0.4540910795,0.3369404775,0.1705670565,0.1830960235,0.1776384015,0.3219087254,0.3911476144,0.1660230052,0.1566992628,0.4023639401,0.6811045115,0.6018363845,0.2527994145,2190,"DG_s11",56.578,57.187,58.25,58.25,10,10,11,7,1.063,"Right",11,7,4,0,4,0,-4,4,"10-10",-1,3,11,10,7,10
"193",22,"LIN9-LIN10",0.0620383872,0.0504886995,0.0359889805,0.0205764125,0.1669649215,0.1418368895,-0.1247025515,0.0349936685,0.0865656905,-0.1231227135,0.0724053155,0.2927509295,0.2594479535,0.1483532135,0.00128806949999999,-0.0725077905,-0.0450071925,0.0824324475,0.1295824365,0.1034124285,0.0711375415,0.061682969,0.060045919,0.0235197095,2190,"DG_s11",56.578,57.187,58.25,58.25,10,10,11,7,1.063,"Right",11,7,4,0,4,0,-4,4,"10-10",-1,3,11,10,7,10
"194",22,"RIN3-RIN4",0.07181938293,-0.00419898207,-0.17711142007,-0.33456893007,-0.02907374107,0.04238624443,-0.01058106957,-0.06286158507,-0.27256432507,0.03633518493,0.28308143493,0.20976875493,0.09408956393,0.02041933093,-0.03156208807,-0.13795100707,-0.29621537707,-0.12755917507,0.00381190293,-0.02585099707,-0.08403044207,-0.23889307207,-0.20634560207,-0.09271380507,2190,"DG_s11",56.578,57.187,58.25,58.25,10,10,11,7,1.063,"Right",11,7,4,0,4,0,-4,4,"10-10",-1,3,11,10,7,10
"195",22,"RIN1-RIN2",-0.134208982,-0.133886475,-0.226210986,-0.258136892,-0.069199745,-0.080642786,-0.161103091,-0.276749864,-0.3232122994,0.0709333006,0.179255036,0.131668536,0.1208359885,-0.0413210815,0.054375484,0.154610441,0.0348074859,0.3101482989,0.420536717,0.1341284303,0.0216044173,-0.009575596,0.039302732,0.035704712,2190,"DG_s11",56.578,57.187,58.25,58.25,10,10,11,7,1.063,"Right",11,7,4,0,4,0,-4,4,"10-10",-1,3,11,10,7,10
"196",22,"LIN1-LIN2",0.093314991,0.292386421,0.250715065,0.219266127,0.203661089,-0.077386179,-0.226889193,0.015570705,-0.016391487,-0.010677917,0.2488063998,0.2411122018,-0.044528084,-0.202494966,-0.102547529,-0.097656369,-0.083272928,0.054812572,0.279894026,0.244298058,0.081584715,0.1392223396,0.2620228796,0.101705893,2190,"DG_s11",56.578,57.187,58.25,58.25,10,10,11,7,1.063,"Right",11,7,4,0,4,0,-4,4,"10-10",-1,3,11,10,7,10
"197",22,"LIN4-LIN5",0.162802072165,0.064475826165,0.000399109917500001,-0.0054111480825,0.005723393465,0.170208790465,0.042984475165,0.080253450165,0.152804576165,-0.112190271835,-0.096094037835,-0.116350972635,-0.291637432635,-0.159670100835,-0.069040089835,-0.039122108835,0.059956380165,0.062443632165,0.112725294165,0.108752154165,-0.059088147835,-0.103608452835,0.088916764165,0.151405376565,2190,"DG_s11",56.578,57.187,58.25,58.25,10,10,11,7,1.063,"Right",11,7,4,0,4,0,-4,4,"10-10",-1,3,11,10,7,10
"198",22,"RIN9-RIN10",0.0110210169,-0.0422265941,-0.0588793701,0.000201195659999997,0.14869826166,0.0148978729,-0.1368168881,-0.0246530417,-0.0644073187,-0.1173726541,0.0201538819,0.0050390379,0.0968088299,0.1147044489,0.0134097589,0.1050045939,0.0138338129,-0.0026709871,0.0659472369,0.0127468349,0.0808725659,0.0848928929,0.0187918969,-0.0246135111,2190,"DG_s11",56.578,57.187,58.25,58.25,10,10,11,7,1.063,"Right",11,7,4,0,4,0,-4,4,"10-10",-1,3,11,10,7,10
"199",23,"LIN9-LIN10",0.0165455625,-0.1285661815,-0.1918187295,0.1103212905,-0.0154422315,-0.121215079,-0.018094487,0.0095061525,0.2497439105,0.1484853695,-0.0242704574,0.1774139476,0.153760039,0.06147323,0.0786745155,0.1458606205,0.1719483625,0.0808283005,-0.0597340155,-0.0635578524,-0.0975617884,0.2393209185,0.4429183669,0.1056701769,2191,"DG_s11",59.25,59.859,61.843,61.843,10,10,6,11,1.984,"Right",6,11,5,0,5,5,0,-5,"10-10",4,-1,6,10,11,10
"200",23,"LIN3-LIN4",0.033726684,0.014979655,-0.00207324,0.015759829,0.108696816,0.135497902,0.087790794,-0.014170141,0.0072305958,0.0949915998,-0.027627724,-0.22580512,-0.055805835,-0.020204055,-0.017874547,0.0465146786,-0.0736528554,-0.028244437,0.172552791,0.246532897,0.016543837,-0.129279519,-0.042392609,0.018209965,2191,"DG_s11",59.25,59.859,61.843,61.843,10,10,6,11,1.984,"Right",6,11,5,0,5,5,0,-5,"10-10",4,-1,6,10,11,10
"201",23,"RIN2-RIN3",0.0901982815,0.0710729385,0.1421551785,0.279129826,0.093544018,0.1644092085,0.1096593216,-0.0135999284,-0.0076981275,-0.0643838275,-0.0213574975,-0.0886273575,-0.00372083849999999,0.2412715405,-0.0389858535,-0.2053807837,-0.0669368157,-0.1673278445,-0.1591906443,-0.0974697493,-0.1663807485,-0.0259761955,-0.1216005755,-0.2361022925,2191,"DG_s11",59.25,59.859,61.843,61.843,10,10,6,11,1.984,"Right",6,11,5,0,5,5,0,-5,"10-10",4,-1,6,10,11,10
"202",23,"RIN3-RIN4",0.3730126685,0.4553280315,0.2342657755,0.3441864085,0.3226249196,0.22895205858,0.29302865248,0.1960389065,0.1729321705,0.1408797525,0.2214749265,0.2147899515,0.2903585205,0.4100427005,0.2012177625,0.0680944115,0.0111397216,-0.0799532174,-0.0923506925,-0.0646844425,0.2208951975,0.3550086925,0.19981727392,0.21649005492,2191,"DG_s11",59.25,59.859,61.843,61.843,10,10,6,11,1.984,"Right",6,11,5,0,5,5,0,-5,"10-10",4,-1,6,10,11,10
"203",23,"RIN9-RIN10",-0.0013501665,0.1951819865,0.0442001075,-0.1418069465,-0.1028696865,-0.0726008603,-0.01855696868,-0.02997145188,0.0117168465,0.1095461175,0.0759756535,0.0229695825,0.0996158775,-0.000197611500000004,-0.1183754925,0.0093931095,-0.0261122805,-0.2082592325,0.0089799995,0.2769062695,0.09841919294,0.11616993294,0.3175446765,0.0845091295,2191,"DG_s11",59.25,59.859,61.843,61.843,10,10,6,11,1.984,"Right",6,11,5,0,5,5,0,-5,"10-10",4,-1,6,10,11,10
"204",23,"LIN2-LIN3",-0.1231320075,0.0068256205,0.1558135155,0.2637656515,0.4186488255,0.1949288525,-0.0374436165,0.1013827685,0.1855700285,0.1172948767,0.0422416367,0.1384502215,0.2780202215,0.1001398085,-0.0931620562,-0.1902911362,-0.1468013438,-0.0184293457,-0.0682953934,-0.0019163935,0.0076821955,-0.000701851499999996,0.0972976885,0.0245135825,2191,"DG_s11",59.25,59.859,61.843,61.843,10,10,6,11,1.984,"Right",6,11,5,0,5,5,0,-5,"10-10",4,-1,6,10,11,10
"205",23,"LIN4-LIN5",-0.22596995895,-0.01818747995,0.06458749705,-0.07933284995,-0.08105263795,-0.01255944795,0.02831944105,-0.05464822695,-0.12645949475,0.32303232325,0.33525144705,-0.04953196995,-0.06121495795,-0.11040304095,-0.07353311595,0.01426958495,-0.00891677305,-0.01942955995,-0.19209177695,-0.29176654295,-0.25523896295,-0.17279086595,0.13826439335,0.05054800235,2191,"DG_s11",59.25,59.859,61.843,61.843,10,10,6,11,1.984,"Right",6,11,5,0,5,5,0,-5,"10-10",4,-1,6,10,11,10
"206",23,"LIN1-LIN2",-0.15286747844,0.14894719056,0.54695536656,0.60514011836,0.48712705436,0.31526886356,0.22973030466,0.22003037466,0.21729116056,0.20631155196,0.13553164406,0.10924456366,0.23459740856,0.25628996136,0.13272180486,0.12242217106,0.14800377756,0.02653107756,-0.09238704544,0.06108131456,0.30066187156,0.27988920556,0.16948980256,-0.06378816244,2191,"DG_s11",59.25,59.859,61.843,61.843,10,10,6,11,1.984,"Right",6,11,5,0,5,5,0,-5,"10-10",4,-1,6,10,11,10
"207",23,"RIN1-RIN2",-0.2312877225,-0.1700800985,-0.15787819194,-0.07499785494,0.0973612893,0.2313865583,0.1027187815,-0.1390709752,-0.2653505552,-0.1972460755,-0.071714468,-0.213016191,-0.3443744585,-0.1395210175,-0.0282225045,-0.1862408525,-0.1430675525,0.0263622445,0.1278960625,0.0677856635,-0.1453735105,-0.2982894015,-0.2466035575,-0.0926384705,2191,"DG_s11",59.25,59.859,61.843,61.843,10,10,6,11,1.984,"Right",6,11,5,0,5,5,0,-5,"10-10",4,-1,6,10,11,10
"208",24,"LIN4-LIN5",-0.01971002665,-0.01404058765,-0.04296047545,0.06455318655,0.08372989255,0.21534020755,0.20082153955,-0.07384447045,0.05293307155,0.27517256155,0.23604354575,0.12018094475,0.25404013055,0.11473568155,0.06552237155,0.36174813755,0.30491163955,0.06214414755,-0.01494416715,0.07225196785,-0.03216090945,-0.17881961345,-0.18530121345,-0.10029430045,2192,"DG_s11",62.843,63.453,64.656,64.656,10,10,15,30,1.203,"Right",15,30,15,0,15,15,0,-15,"10-10",-5,-20,15,10,30,10
"209",24,"RIN3-RIN4",0.0782806575,0.2915628175,0.1517903675,0.0243630195,0.0617104605,0.1106721085,0.1685569775,-0.00390952780000001,-0.1496062898,-0.1640440945,-0.1437316925,0.1182545175,0.0742598085,-0.2112155855,-0.0921108525,-0.00929424750000001,-0.0950424525,-0.1268273465,-0.0053909655,0.0480115575,-0.0252370155,0.0675673645,0.1891703515,0.2148567415,2192,"DG_s11",62.843,63.453,64.656,64.656,10,10,15,30,1.203,"Right",15,30,15,0,15,15,0,-15,"10-10",-5,-20,15,10,30,10
"210",24,"LIN2-LIN3",0.1035014845,0.2297576935,0.0301002555,-0.0160562538,0.0268893612,-0.1549761895,-0.1570702075,0.1442837625,0.3674717785,0.2561578485,0.2119307555,0.1997747635,0.02773570295,0.02397206395,-0.0818922275,-0.1632122555,-0.1398714775,-0.0934945565,0.2093973715,0.1467030235,0.0010254598,0.3071828058,0.4714703785,0.4376491785,2192,"DG_s11",62.843,63.453,64.656,64.656,10,10,15,30,1.203,"Right",15,30,15,0,15,15,0,-15,"10-10",-5,-20,15,10,30,10
"211",24,"RIN2-RIN3",0.308387497,0.301366571,0.193250887,0.144895574,0.138549562,0.2564883415,0.2478038985,0.015135958,-0.016703079,-0.071386699,-0.032010123,0.310529467,0.342620155,0.307595725,0.2847015956,0.0984997756,0.098692963,0.226613511,0.2612761889,0.2527847309,0.131058748,0.140901458,0.253857116,0.242165278,2192,"DG_s11",62.843,63.453,64.656,64.656,10,10,15,30,1.203,"Right",15,30,15,0,15,15,0,-15,"10-10",-5,-20,15,10,30,10
"212",24,"RIN9-RIN10",-0.001631478,-0.052878374,0.001139918,0.0333336325,0.1843465195,0.222180551,0.07601273,0.186186474,0.066271324,0.094290494,0.197944676,-0.094431594,-0.195776862,-0.09786443731,0.07522155169,0.167533632,0.183019795,0.29768726,0.294082525,0.094883277,0.178131497,0.274409736,0.101571131,-0.03087629,2192,"DG_s11",62.843,63.453,64.656,64.656,10,10,15,30,1.203,"Right",15,30,15,0,15,15,0,-15,"10-10",-5,-20,15,10,30,10
"213",24,"RIN1-RIN2",0.004171412,0.0910265277,0.1397157927,0.1594502825,0.1144815825,0.0555371865,-0.1205308585,-0.0588008125,0.0315225656,-0.1400318204,0.1675469215,0.6731169695,0.5187420925,0.2345861125,0.1343533825,-0.0321274965,-0.1183769095,-0.0724715945,-0.1545493345,-0.1145349455,0.0850327945,0.2804018345,0.3456797155,0.0814675685,2192,"DG_s11",62.843,63.453,64.656,64.656,10,10,15,30,1.203,"Right",15,30,15,0,15,15,0,-15,"10-10",-5,-20,15,10,30,10
"214",24,"LIN3-LIN4",0.09992874785,0.19295154685,0.20567648185,0.19905271785,0.09848524095,0.13561954095,0.05624724085,0.02027297485,0.11496350085,0.18122863685,0.15590806585,0.17874286405,0.15889217605,0.13042530885,0.11114734985,-0.00891384315,-0.03146839815,0.00488919785,0.13687435185,0.08951911185,0.05351905485,0.10989935185,0.17081642885,0.31362450485,2192,"DG_s11",62.843,63.453,64.656,64.656,10,10,15,30,1.203,"Right",15,30,15,0,15,15,0,-15,"10-10",-5,-20,15,10,30,10
"215",24,"LIN9-LIN10",0.17562366295,0.10630916885,-0.0202738872,0.0917727248,0.20859588085,0.23976321685,0.05641654285,0.20284878685,0.20773898385,0.28377610185,0.42004835785,-0.00581254215,-0.12505816015,-0.00386315315,0.27164058585,0.26035745785,-0.03440527655,0.01424279085,0.16171016125,0.07777039185,0.09766577585,0.27434828105,0.08773833605,-0.11116767415,2192,"DG_s11",62.843,63.453,64.656,64.656,10,10,15,30,1.203,"Right",15,30,15,0,15,15,0,-15,"10-10",-5,-20,15,10,30,10
"216",24,"LIN1-LIN2",0.278556503,0.383853273,0.14603904423,-0.15737452577,-0.132433817,0.0485925278,0.0057952628,0.005550228,-0.047781906,-0.117165538,-0.026007196,0.0205252279,0.2320078259,0.1720858936,0.0751104576,0.060372308,-0.103340969,-0.228914569,-0.172496114,-0.101564164,-0.145910348,-0.071857255,-0.036685774,0.027431427,2192,"DG_s11",62.843,63.453,64.656,64.656,10,10,15,30,1.203,"Right",15,30,15,0,15,15,0,-15,"10-10",-5,-20,15,10,30,10
"217",25,"LIN4-LIN5",0.217405251,0.071575027,-0.07891275,0.092250455,0.245333616,0.066179624,-0.07407821,-0.031058746,0.081141644,0.06371446,-0.040111691,-0.039381872,0.018186,-0.030291393,0.108956944,0.155281911,0.200128506,0.430899807,0.213182097,0.212244386,0.236055884,0.016153674,-0.016383312,0.047679438,2193,"DG_s11",65.656,66.265,67.39,67.39,10,10,18,10,1.125,"Right",18,10,8,0,8,0,-8,8,"10-10",-8,0,18,10,10,10
"218",25,"RIN9-RIN10",0.1631037315,0.1282278995,0.0021373385,-0.0242121555,-0.1072613155,-0.0645682795,-0.0753866295,-0.1140395344,-0.0543764744,-0.0409708035,-0.0307547865,0.0398589075,0.0623569355,0.0285220605,-0.0320462075,0.0018057499,-0.0148936531,0.0178523035,0.0481265515,0.0221618315,0.00174603650000001,-0.1326224496,-0.1520692356,-0.1225980655,2193,"DG_s11",65.656,66.265,67.39,67.39,10,10,18,10,1.125,"Right",18,10,8,0,8,0,-8,8,"10-10",-8,0,18,10,10,10
