"","trial","electrodes","bin_3","bin_4","bin_5","bin_6","bin_7","bin_8","bin_9","bin_10","bin_11","bin_12","bin_13","X","SID","newround_time","choice_time","buttonpress_time","reveal_time","self_payoff","other_payoff","self_foregone","other_foregone","RT","side_chosen","self_var_payoff","other_var_payoff","ineq_var_abs","ineq_choice_abs","ineq_foregone_abs","ineq_disadvent","ineq_advent","ineq_choice","chose_equality","self_diff","other_diff"
"1",1,"RAM1-RAM2",0.09048802515,0.32851782995,0.3914838603,0.19679386685,0.02840626795,0.01617124045,0.03763180395,0.16240074995,0.03593284295,0.27412827295,0.35909052595,2169,"DG_s11",-0.61,0,2.015,2.031,10,10,10,18,2.015,"Left",10,18,8,0,8,8,0,-8,"10-10",0,-8
"2",1,"LAM3-LAM4",0.2477660083,-0.0370776117,-0.08840269524,0.1429866702,0.0102998385,-0.083076756,-0.0362388265,0.043034504,0.071143952,0.24778300287,0.06171931577,2169,"DG_s11",-0.61,0,2.015,2.031,10,10,10,18,2.015,"Left",10,18,8,0,8,8,0,-8,"10-10",0,-8
"3",1,"LAC1-LAC2",-0.208631968,-0.1453426855,-0.0424891705,-0.0115440115,-0.012563407,0.057506603,-0.0873285595,0.0996143625,0.0665555635,-0.04677891985,-0.13875700435,2169,"DG_s11",-0.61,0,2.015,2.031,10,10,10,18,2.015,"Left",10,18,8,0,8,8,0,-8,"10-10",0,-8
"4",1,"RIN1-RIN2",-0.0217604915,0.3901046925,0.252929032,0.077311894,0.0880832985,0.226905871,0.22705015285,0.17233694235,0.234613314,0.1626080355,0.0858372735,2169,"DG_s11",-0.61,0,2.015,2.031,10,10,10,18,2.015,"Left",10,18,8,0,8,8,0,-8,"10-10",0,-8
"5",1,"RTH4-RTH5",-0.5820921605,-0.593465403,-0.301459133,-0.39159984725,-0.3309400654,-0.3352829765,-0.4630671335,-0.407673408,-0.404094875585,-0.476800861,-0.4463035825,2169,"DG_s11",-0.61,0,2.015,2.031,10,10,10,18,2.015,"Left",10,18,8,0,8,8,0,-8,"10-10",0,-8
"6",1,"RAM3-RAM4",0.055949626,-0.1063685,-0.1332535342,-0.22091870365,-0.091511685,-0.13480873,0.056141626,0.0746209775,-0.0352337355,-0.039022234,-0.07450019795,2169,"DG_s11",-0.61,0,2.015,2.031,10,10,10,18,2.015,"Left",10,18,8,0,8,8,0,-8,"10-10",0,-8
"7",1,"RTH1-RTH2",0.124296831,0.137159163,0.0796890245,-0.035225615,-0.050893053,-0.106301995,0.10345647275,0.22835242785,0.016959189,0.2654028115,0.216160778,2169,"DG_s11",-0.61,0,2.015,2.031,10,10,10,18,2.015,"Left",10,18,8,0,8,8,0,-8,"10-10",0,-8
"8",1,"RIN3-RIN4",-0.15112134245,0.0149136425,-0.04537003645,0.10507778475,0.05404320535,-0.008795996,-0.016487786,0.0855730647,0.0412536307,0.0129531587,-0.000452759500000004,2169,"DG_s11",-0.61,0,2.015,2.031,10,10,10,18,2.015,"Left",10,18,8,0,8,8,0,-8,"10-10",0,-8
"9",1,"LOF3-LOF4",-0.078471735025,-0.053601023025,-0.168866665875,-0.090616799325,0.051092674525,-0.101100216025,-0.124415654025,-0.146296922025,-0.125682828425,-0.217404856775,-0.210782145025,2169,"DG_s11",-0.61,0,2.015,2.031,10,10,10,18,2.015,"Left",10,18,8,0,8,8,0,-8,"10-10",0,-8
"10",1,"LAC3-LAC4",-0.09408241075,-0.21073586325,-0.20207772955,-0.14489630825,-0.03684874085,-0.09162323175,0.00261119925,0.03730234285,-0.1407122635,-0.032122845,-0.07273515825,2169,"DG_s11",-0.61,0,2.015,2.031,10,10,10,18,2.015,"Left",10,18,8,0,8,8,0,-8,"10-10",0,-8
"11",1,"LIN2-LIN3",0.02298095385,0.00119015685,-0.0696637215,0.10160561045,0.22819928845,0.1652753435,-0.017274625,0.0141889425,-0.0406081555,-0.0220357355,-0.0243493055,2169,"DG_s11",-0.61,0,2.015,2.031,10,10,10,18,2.015,"Left",10,18,8,0,8,8,0,-8,"10-10",0,-8
"12",1,"RTH6-RTH7",0.2961963625,0.3987177445,0.9266023595,1.0999395735,0.931819967,0.715134494,0.7628964185,0.0262349561,0.0247315555,0.0233539535,0.10832901755,2169,"DG_s11",-0.61,0,2.015,2.031,10,10,10,18,2.015,"Left",10,18,8,0,8,8,0,-8,"10-10",0,-8
"13",1,"LIN7-LIN8",-0.1656757075,-0.3555972475,-0.364616617,-0.2393603207,-0.2826440622,-0.378812123,-0.434950972,-0.321297025,-0.203688823,-0.343323855,-0.3359049632,2169,"DG_s11",-0.61,0,2.015,2.031,10,10,10,18,2.015,"Left",10,18,8,0,8,8,0,-8,"10-10",0,-8
"14",1,"LPC7-LPC8",-0.00751754185,-0.04039576735,0.23281460915,0.52055143615,0.25036039165,0.18956650285,0.28483584565,0.33143524865,0.30015384805,0.2871978054,0.17394381115,2169,"DG_s11",-0.61,0,2.015,2.031,10,10,10,18,2.015,"Left",10,18,8,0,8,8,0,-8,"10-10",0,-8
"15",1,"ROF2-ROF3",-0.09501086225,-0.03643338475,0.08922516555,-0.03088298725,-0.18606454225,-0.07896659275,0.08527079725,0.3018633659,0.12723626275,0.0198101279,0.14711693575,2169,"DG_s11",-0.61,0,2.015,2.031,10,10,10,18,2.015,"Left",10,18,8,0,8,8,0,-8,"10-10",0,-8
"16",1,"LAC2-LAC3",-0.098609308015,-0.1019928884,-0.001530391,0.1245191115,0.1171903355,0.0679161925,-0.0588729025,0.0376934565,-0.069819968,-0.00209670695,-0.01995401145,2169,"DG_s11",-0.61,0,2.015,2.031,10,10,10,18,2.015,"Left",10,18,8,0,8,8,0,-8,"10-10",0,-8
"17",1,"LIN5-LIN6",-0.3971906915,-0.298593346,-0.28694565465,-0.082291837,-0.2761893002,-0.307097007,-0.2460165985,-0.2296999655,-0.417925505,-0.365761947,-0.19750804695,2169,"DG_s11",-0.61,0,2.015,2.031,10,10,10,18,2.015,"Left",10,18,8,0,8,8,0,-8,"10-10",0,-8
"18",1,"ROF6-ROF7",0.120193856975,0.111395427475,0.069425402975,0.032504078975,-0.029642616175,-0.030772535525,-0.108207103825,0.034320275395,-0.202850931605,-0.147487568025,-0.033360971875,2169,"DG_s11",-0.61,0,2.015,2.031,10,10,10,18,2.015,"Left",10,18,8,0,8,8,0,-8,"10-10",0,-8
"19",1,"LIN1-LIN2",0.2683743685,-0.0680745546,0.1332143469,0.0846743275,0.0299607785,-0.0915615365,-0.1321312965,-0.0577619954,-0.0724854569,0.0423034206,0.0423022856,2169,"DG_s11",-0.61,0,2.015,2.031,10,10,10,18,2.015,"Left",10,18,8,0,8,8,0,-8,"10-10",0,-8
"20",1,"RAM5-RAM6",-0.081940653,-0.303877923,-0.2009932541,-0.2219483285,-0.093408462,-0.2809694341,-0.0797048305,-0.11051073505,-0.0803799495,-0.046872691,-0.172434461,2169,"DG_s11",-0.61,0,2.015,2.031,10,10,10,18,2.015,"Left",10,18,8,0,8,8,0,-8,"10-10",0,-8
"21",1,"RIN2-RIN3",-0.18856207815,0.156273291,0.03946235565,-0.004155996,0.301033888,0.1464440765,-0.0047427125,-0.2462243311,0.0680192219,0.2140576375,-0.127565109,2169,"DG_s11",-0.61,0,2.015,2.031,10,10,10,18,2.015,"Left",10,18,8,0,8,8,0,-8,"10-10",0,-8
"22",1,"LTH8-LTH9",0.0353057766,0.3392179345,0.3483509195,0.388676518,0.845952972,0.4565096455,0.35128595435,0.07697490765,0.0394077515,-0.1117161905,-0.0531987375,2169,"DG_s11",-0.61,0,2.015,2.031,10,10,10,18,2.015,"Left",10,18,8,0,8,8,0,-8,"10-10",0,-8
"23",1,"LOF1-LOF2",-0.0598208185,-0.2994831767,-0.1684550535,0.2240191075,0.268957454,0.119756039,-0.027213078,-0.001578413,0.06797672,0.3411024525,0.281018545,2169,"DG_s11",-0.61,0,2.015,2.031,10,10,10,18,2.015,"Left",10,18,8,0,8,8,0,-8,"10-10",0,-8
"24",1,"ROF3-ROF4",0.0292221915,0.0716697165,-0.03386762085,0.043234545,0.1325168885,0.1818594,0.157736611,0.070435884,0.181472963,0.0221610595,0.079256631,2169,"DG_s11",-0.61,0,2.015,2.031,10,10,10,18,2.015,"Left",10,18,8,0,8,8,0,-8,"10-10",0,-8
"25",1,"LOF2-LOF3",0.0169071074,-0.17113801265,-0.18473375985,0.53142624065,0.26595833465,0.28145151665,0.29168795165,0.25123941965,0.31284955365,0.35398253365,0.37012051918,2169,"DG_s11",-0.61,0,2.015,2.031,10,10,10,18,2.015,"Left",10,18,8,0,8,8,0,-8,"10-10",0,-8
"26",1,"RIN6-RIN7",-0.454411503,-0.332284687,-0.323575024,-0.2838668365,-0.0764364655,-0.2533385275,-0.288193594,0.070964815,0.2216307935,-0.02118461,-0.1954799735,2169,"DG_s11",-0.61,0,2.015,2.031,10,10,10,18,2.015,"Left",10,18,8,0,8,8,0,-8,"10-10",0,-8
"27",1,"LIN6-LIN7",-0.4900125305,-0.4361348819,-0.663517157,-0.2391158545,-0.2849509435,-0.48678445805,-0.3373695825,-0.3312147895,-0.61097119995,-0.5163777795,-0.39340852,2169,"DG_s11",-0.61,0,2.015,2.031,10,10,10,18,2.015,"Left",10,18,8,0,8,8,0,-8,"10-10",0,-8
"28",1,"ROF5-ROF6",0.17806434655,0.11866977905,-0.02268061645,0.29484460705,0.15121571805,-0.07291390895,0.01822523605,0.00125307255,-0.11583139645,-0.07892368095,0.13971127865,2169,"DG_s11",-0.61,0,2.015,2.031,10,10,10,18,2.015,"Left",10,18,8,0,8,8,0,-8,"10-10",0,-8
"29",1,"LIN8-LIN9",-0.12436003046,-0.316973106,-0.1755713445,-0.089835228405,-0.0985469125,-0.1231782395,-0.2472287217,-0.3525808395,-0.39477995045,-0.32324898775,-0.32249999485,2169,"DG_s11",-0.61,0,2.015,2.031,10,10,10,18,2.015,"Left",10,18,8,0,8,8,0,-8,"10-10",0,-8
"30",1,"RAM2-RAM3",-0.17520231465,-0.093647235,-0.0962538542,-0.2168333217,-0.2540789657,-0.1564079542,0.105651704,0.0216292478,-0.16260527695,-0.0613884975,-0.2754149027,2169,"DG_s11",-0.61,0,2.015,2.031,10,10,10,18,2.015,"Left",10,18,8,0,8,8,0,-8,"10-10",0,-8
"31",1,"LIN9-LIN10",-0.0931406265,-0.220176907,-0.21443002645,-0.249509525,-0.2220661395,-0.126823367,-0.08202939175,-0.0778342215,-0.2861725983,0.1442698057,0.0713552525,2169,"DG_s11",-0.61,0,2.015,2.031,10,10,10,18,2.015,"Left",10,18,8,0,8,8,0,-8,"10-10",0,-8
"32",1,"LHH6-LHH7",0.13140091795,0.19789843355,0.48163853145,0.18016030195,0.34414414595,0.30641402205,0.06942069945,-0.00695941745,0.03553652095,-0.10169535525,-0.04202249505,2169,"DG_s11",-0.61,0,2.015,2.031,10,10,10,18,2.015,"Left",10,18,8,0,8,8,0,-8,"10-10",0,-8
"33",1,"LTH6-LTH7",0.02276939755,0.08155615155,0.13870168055,0.3106158778,0.4658987843,0.59643025455,0.43290072205,0.09061005485,-0.05263022215,0.07130040105,0.05492142255,2169,"DG_s11",-0.61,0,2.015,2.031,10,10,10,18,2.015,"Left",10,18,8,0,8,8,0,-8,"10-10",0,-8
"34",1,"LTH7-LTH8",0.2073048915,0.223189866,0.403794255,0.472407235,0.7775249015,0.511836164,0.4054976915,0.03354677695,-0.082631094,0.0452412004,0.1153925405,2169,"DG_s11",-0.61,0,2.015,2.031,10,10,10,18,2.015,"Left",10,18,8,0,8,8,0,-8,"10-10",0,-8
"35",1,"RIN5-RIN6",-0.390395237,-0.27990711295,-0.35742649235,-0.4181912535,-0.1452899145,-0.18000841,-0.2901776795,0.0792356885,0.035981925675,-0.142753155,-0.11881644,2169,"DG_s11",-0.61,0,2.015,2.031,10,10,10,18,2.015,"Left",10,18,8,0,8,8,0,-8,"10-10",0,-8
"36",1,"LPC5-LPC6",0.002255327515,-0.023951258535,0.204709424,0.3182954975,0.347148498,0.5670385985,0.5063756,0.543993902,0.429700307,0.180585372,0.1006383135,2169,"DG_s11",-0.61,0,2.015,2.031,10,10,10,18,2.015,"Left",10,18,8,0,8,8,0,-8,"10-10",0,-8
"37",1,"LIN4-LIN5",-0.15472708,-0.1365215045,-0.064182864,-0.02802851,-0.167196916595,-0.107530658245,-0.00794774600000001,-0.027014358,-2.23680000000226e-05,-0.0285301535,-0.032819136,2169,"DG_s11",-0.61,0,2.015,2.031,10,10,10,18,2.015,"Left",10,18,8,0,8,8,0,-8,"10-10",0,-8
"38",1,"RIN8-RIN9",0.03834127755,0.037186806,0.0038394232,0.1393186342,0.059666358,0.098633402,0.181480954,0.01644502785,0.1176920665,0.0846547055,0.098601182,2169,"DG_s11",-0.61,0,2.015,2.031,10,10,10,18,2.015,"Left",10,18,8,0,8,8,0,-8,"10-10",0,-8
"39",1,"LAC9-LAC10",0.2342868318,0.0378809963,0.05547263615,0.0107174738,0.12157329915,0.3336770163,0.1719264893,-0.0357175627,-0.0815909656,-0.0554738602,0.02296183735,2169,"DG_s11",-0.61,0,2.015,2.031,10,10,10,18,2.015,"Left",10,18,8,0,8,8,0,-8,"10-10",0,-8
"40",1,"LAC10-LAC11",-0.06575282475,-0.0489867656625,-0.150855532,0.073857802,-0.051138254,0.097641206,-0.0218898145,-0.04515072925,-0.071816791615,-0.00776584051500001,-0.024253272955,2169,"DG_s11",-0.61,0,2.015,2.031,10,10,10,18,2.015,"Left",10,18,8,0,8,8,0,-8,"10-10",0,-8
"41",1,"LAM1-LAM2",0.0304545094,-0.3218134796,-0.226885956,-0.0984741925,-0.0479564505,-0.135052734695,-0.059791696,-0.0552823086,0.26469707,0.2206346435,0.039832652,2169,"DG_s11",-0.61,0,2.015,2.031,10,10,10,18,2.015,"Left",10,18,8,0,8,8,0,-8,"10-10",0,-8
"42",1,"LPC8-LPC9",0.1141080814,-0.0288758051,-0.0243104696,-0.0865058356,-0.14163354705,-0.17019161025,-0.09943093585,-0.138713462899,0.0744685334,0.1118966324,0.0326302973,2169,"DG_s11",-0.61,0,2.015,2.031,10,10,10,18,2.015,"Left",10,18,8,0,8,8,0,-8,"10-10",0,-8
"43",1,"LAM2-LAM3",0.3022352615,-0.189785817,-0.1621771185,-0.01101701355,-0.000575060200000001,0.092806567,0.1889588555,0.0092640085,-0.0104907806,-0.0089475814,0.13076295825,2169,"DG_s11",-0.61,0,2.015,2.031,10,10,10,18,2.015,"Left",10,18,8,0,8,8,0,-8,"10-10",0,-8
"44",1,"LHH5-LHH6",2.38274999999968e-05,0.0947380825,0.3518668445,0.21013999425,0.114305043,0.095181563,0.10832047855,0.15396137225,0.052084072,0.04201352445,0.13717349045,2169,"DG_s11",-0.61,0,2.015,2.031,10,10,10,18,2.015,"Left",10,18,8,0,8,8,0,-8,"10-10",0,-8
"45",1,"LOF5-LOF6",0.04632830055,0.19733693525,-0.000164427799999999,0.0501170797,0.1548575692,0.0105247192,-0.0314461478,0.1658130522,0.1141801502,-0.08389426495,-0.08166622695,2169,"DG_s11",-0.61,0,2.015,2.031,10,10,10,18,2.015,"Left",10,18,8,0,8,8,0,-8,"10-10",0,-8
"46",1,"LOF7-LOF8",-0.0198009115,-0.0269175965,-0.0412775165,-0.102643989,-0.232557023,-0.23592584765,0.085747653,0.00753620250000001,-0.26420911,-0.0787143495,-0.10176067855,2169,"DG_s11",-0.61,0,2.015,2.031,10,10,10,18,2.015,"Left",10,18,8,0,8,8,0,-8,"10-10",0,-8
"47",1,"RAM6-RAM7",-0.1013221915,-0.1309120585,-0.07632536728,-0.176265185585,-0.18955644955,0.0435524995,-0.055936795,-0.25905011545,-0.13808247,0.079963872,0.0635801495,2169,"DG_s11",-0.61,0,2.015,2.031,10,10,10,18,2.015,"Left",10,18,8,0,8,8,0,-8,"10-10",0,-8
"48",1,"LTH5-LTH6",0.0165903161,-0.06374492055,0.12452613555,0.01719334755,0.1328890603,0.0837823382,-0.0167341538,-0.0755322458,-0.0774483193,0.1048680081,0.0232365392,2169,"DG_s11",-0.61,0,2.015,2.031,10,10,10,18,2.015,"Left",10,18,8,0,8,8,0,-8,"10-10",0,-8
"49",1,"LAC6-LAC7",-0.497860206887,-0.34205433475,-0.28779414685,0.0237946762,0.0828733495,-0.154753375,-0.3662020949,-0.1760798525,-0.323464426,-0.119282359,-0.122572121,2169,"DG_s11",-0.61,0,2.015,2.031,10,10,10,18,2.015,"Left",10,18,8,0,8,8,0,-8,"10-10",0,-8
"50",1,"LAC7-LAC8",-0.3853184565,-0.053594267,-0.002533331,0.05446808555,-0.0214275185,-0.0820663263,-0.1949275598,-0.122250703,-0.19462932265,-0.29259690055,-0.24847507305,2169,"DG_s11",-0.61,0,2.015,2.031,10,10,10,18,2.015,"Left",10,18,8,0,8,8,0,-8,"10-10",0,-8
"51",1,"RHH4-RHH5",0.00832980353500001,0.087984092135,0.33210911705,0.28047514405,0.330890542,0.12511448355,0.04165633755,-0.03860407245,0.09816762655,-0.00576182394999999,0.02717122055,2169,"DG_s11",-0.61,0,2.015,2.031,10,10,10,18,2.015,"Left",10,18,8,0,8,8,0,-8,"10-10",0,-8
"52",1,"RTH7-RTH8",-0.002068067,-0.1259536866,-0.0669985704,-0.0950152686,-0.0287649096,-0.1140175425,-0.150440664,0.2166810375,0.118504921,-0.1126137017,0.0501740955,2169,"DG_s11",-0.61,0,2.015,2.031,10,10,10,18,2.015,"Left",10,18,8,0,8,8,0,-8,"10-10",0,-8
"53",1,"LPC6-LPC7",0.08975028623,-0.078325325,0.3194694564,0.709205452,0.40537489545,0.49002108085,0.3338753735,0.5362241655,0.4847797315,0.3650989915,0.2178330134,2169,"DG_s11",-0.61,0,2.015,2.031,10,10,10,18,2.015,"Left",10,18,8,0,8,8,0,-8,"10-10",0,-8
"54",1,"LOF4-LOF5",0.3437904085,0.394253831,0.2266302063,0.132228759,0.1903899555,0.18147557,0.1274165505,0.1258750025,0.1658448705,0.1200895927,0.21753650145,2169,"DG_s11",-0.61,0,2.015,2.031,10,10,10,18,2.015,"Left",10,18,8,0,8,8,0,-8,"10-10",0,-8
"55",1,"LAC8-LAC9",-0.209989012,-0.1780355801,-0.2155450896,-0.226914931,-0.2098923605,-0.0561452608,-0.15528864715,-0.1993194145,-0.05307806965,-0.3078341375,-0.347149809,2169,"DG_s11",-0.61,0,2.015,2.031,10,10,10,18,2.015,"Left",10,18,8,0,8,8,0,-8,"10-10",0,-8
"56",1,"RIN9-RIN10",0.1045794958,-0.0814790845,0.2098731675,0.2409179735,-0.0738255585,0.018033885,0.19453895994825,0.05187291244825,-0.00248822200000001,-0.00812513200000001,0.053071753,2169,"DG_s11",-0.61,0,2.015,2.031,10,10,10,18,2.015,"Left",10,18,8,0,8,8,0,-8,"10-10",0,-8
"57",1,"LPC1-LPC2",0.09460100907,0.34522448307,0.3210812895,0.2634556985,0.11979696195,0.10261768795,0.29276494325,0.29597571465,0.16093288604,0.2964685056,0.085502243,2169,"DG_s11",-0.61,0,2.015,2.031,10,10,10,18,2.015,"Left",10,18,8,0,8,8,0,-8,"10-10",0,-8
"58",1,"RTH5-RTH6",0.01639735095,0.0338821175,0.3054694385,0.7152878585,0.4582393325,0.257720984,0.354315095,-0.1220817064,-0.01865491185,-0.1134031135,-0.135117534,2169,"DG_s11",-0.61,0,2.015,2.031,10,10,10,18,2.015,"Left",10,18,8,0,8,8,0,-8,"10-10",0,-8
"59",1,"LHH7-LHH8",0.17567777245,0.14056485855,0.43190388245,0.34460568695,0.29811583395,0.36094806345,0.22405374545,0.16060904195,0.10734698325,0.17610731895,0.10016397525,2169,"DG_s11",-0.61,0,2.015,2.031,10,10,10,18,2.015,"Left",10,18,8,0,8,8,0,-8,"10-10",0,-8
"60",1,"LTH1-LTH2",-0.119452166785,-0.134616142935,0.320426393565,0.053714946065,-0.081347887385,0.066938788065,0.034763073715,0.031399114565,0.113190571565,0.00499272421499999,-0.042779267435,2169,"DG_s11",-0.61,0,2.015,2.031,10,10,10,18,2.015,"Left",10,18,8,0,8,8,0,-8,"10-10",0,-8
"61",1,"LOF6-LOF7",-0.037472971,-0.0254249495,0.00413370800000001,-0.0130636805,-0.1937874405,-0.16323674515,-0.08750341315,0.0390186815,-0.099348441,-0.0930193247,-0.079634142,2169,"DG_s11",-0.61,0,2.015,2.031,10,10,10,18,2.015,"Left",10,18,8,0,8,8,0,-8,"10-10",0,-8
"62",1,"ROF4-ROF5",0.1076437925,0.080260723,0.15366317225,0.1457303055,0.142735144,-0.005600764,0.00278556,0.0856579945,-0.0382077955,0.2515829175,-0.0511724666,2169,"DG_s11",-0.61,0,2.015,2.031,10,10,10,18,2.015,"Left",10,18,8,0,8,8,0,-8,"10-10",0,-8
"63",1,"LIN3-LIN4",-0.1300537936,-0.2009476168,0.1033717082,0.335129115,0.198601591,0.1509948535,-0.0656063505,0.058504448,0.2073269755,0.128782405,0.012288534,2169,"DG_s11",-0.61,0,2.015,2.031,10,10,10,18,2.015,"Left",10,18,8,0,8,8,0,-8,"10-10",0,-8
"64",1,"ROF1-ROF2",-0.09246425685,-0.22110004885,0.03541900865,-0.0689373978,-0.1664549439,-0.07950028995,-0.06364860535,0.0867516935,0.19913482265,0.08463992515,-0.10293343835,2169,"DG_s11",-0.61,0,2.015,2.031,10,10,10,18,2.015,"Left",10,18,8,0,8,8,0,-8,"10-10",0,-8
"65",1,"RIN7-RIN8",-0.15663233615,-0.1179959623,-0.1934179295,0.03039100417,-0.022178036,-0.00335638999999999,0.02333776,-0.2547006656,-0.169989846,-0.06182791635,0.020009029,2169,"DG_s11",-0.61,0,2.015,2.031,10,10,10,18,2.015,"Left",10,18,8,0,8,8,0,-8,"10-10",0,-8
"66",1,"RHH5-RHH6",-0.2488443758,0.0988136128,0.0237144428,-0.1330844457,-0.029391583,-0.026437022,-0.039511187,0.008822528,-0.1355016455,-0.080649895,0.0037080045,2169,"DG_s11",-0.61,0,2.015,2.031,10,10,10,18,2.015,"Left",10,18,8,0,8,8,0,-8,"10-10",0,-8
"67",2,"ROF2-ROF3",-0.0789769482,-0.0513216902,-0.0822455427,-0.07326232179,-0.0682761462,0.1498834963,-0.0579619048,-0.0652206888,-0.1695902867,-0.0193799114595,-0.0065179762,2170,"DG_s11",3.031,3.64,4.797,4.812,12,12,10,10,1.157,"Left",12,12,0,0,0,0,0,0,"Equal",2,2
"68",2,"ROF4-ROF5",-0.01075636785,-0.100407982,-0.0346228092,0.11524001825,-0.03234958135,0.024322294,-0.0320907522,-0.1712647362,-0.110720019,0.0849626265,0.135226501,2170,"DG_s11",3.031,3.64,4.797,4.812,12,12,10,10,1.157,"Left",12,12,0,0,0,0,0,0,"Equal",2,2
"69",2,"RTH6-RTH7",0.0169432225,0.292849464,0.31288912535,0.2283425905,-0.0050669335,0.2682571833,0.4299413018,0.162054301,0.4759691475,0.1030987755,-0.069950503,2170,"DG_s11",3.031,3.64,4.797,4.812,12,12,10,10,1.157,"Left",12,12,0,0,0,0,0,0,"Equal",2,2
"70",2,"RAM2-RAM3",0.118338231,0.15097780275,0.188568907,0.213782315,0.2608295212,0.2941424425,0.2481367065,0.26980961475,0.13556260825,0.4171106125,0.301358128,2170,"DG_s11",3.031,3.64,4.797,4.812,12,12,10,10,1.157,"Left",12,12,0,0,0,0,0,0,"Equal",2,2
"71",2,"LIN6-LIN7",0.1608231995,0.19046789185,0.3056944359,0.1254921345,-0.07188199,0.0797223925,-0.02557917835,-0.16723652935,0.04980543465,0.1568631325,0.0571078575,2170,"DG_s11",3.031,3.64,4.797,4.812,12,12,10,10,1.157,"Left",12,12,0,0,0,0,0,0,"Equal",2,2
"72",2,"RAM3-RAM4",0.098031458,0.076385139,0.0127350865,-0.0583669552,0.0296369485,0.306164523,0.184450761,0.071015878,0.0586813855,0.087722177,0.060336242,2170,"DG_s11",3.031,3.64,4.797,4.812,12,12,10,10,1.157,"Left",12,12,0,0,0,0,0,0,"Equal",2,2
"73",2,"LIN5-LIN6",-0.347091026,-0.2488194745,-0.239199291,-0.43786334475,-0.5386788214,-0.3338343065,-0.362419032,-0.4406476965,-0.37994231755,-0.2808160215,-0.39006582215,2170,"DG_s11",3.031,3.64,4.797,4.812,12,12,10,10,1.157,"Left",12,12,0,0,0,0,0,0,"Equal",2,2
"74",2,"LAC9-LAC10",-0.19394218,-0.21349914715,-0.156343872,-0.2508846095,0.006088667115,0.1040193075,-0.1953692995,0.1447412761,-0.06875962235,-0.0689596615,-0.093732111,2170,"DG_s11",3.031,3.64,4.797,4.812,12,12,10,10,1.157,"Left",12,12,0,0,0,0,0,0,"Equal",2,2
"75",2,"RIN8-RIN9",-0.0900700025,-0.08854761075,-0.00887494025,-0.0998140525,0.030358738,0.111102958,0.164006436,-0.011421446,0.1200741592,-0.0054826385,0.42579251855,2170,"DG_s11",3.031,3.64,4.797,4.812,12,12,10,10,1.157,"Left",12,12,0,0,0,0,0,0,"Equal",2,2
"76",2,"LPC6-LPC7",-0.1258879815,-0.039428048,0.1519759875,0.5183090135,0.27854108025,0.17296953425,0.04427861168,0.07412772468,0.0829656035,0.019975081,0.1387378275,2170,"DG_s11",3.031,3.64,4.797,4.812,12,12,10,10,1.157,"Left",12,12,0,0,0,0,0,0,"Equal",2,2
"77",2,"ROF5-ROF6",0.08898809985,0.1398419242,0.19728866485,0.44319362435,0.45470543935,0.36959528785,0.15127669185,0.22934780685,0.17748398785,0.20648903635,0.04488491964,2170,"DG_s11",3.031,3.64,4.797,4.812,12,12,10,10,1.157,"Left",12,12,0,0,0,0,0,0,"Equal",2,2
"78",2,"LAC2-LAC3",-0.12693084615,-0.02240151015,0.08249483585,-0.06606713665,0.06486824835,0.01112327585,-0.01428774015,0.1166050202,0.07322198935,-0.05781706024,-0.05709488865,2170,"DG_s11",3.031,3.64,4.797,4.812,12,12,10,10,1.157,"Left",12,12,0,0,0,0,0,0,"Equal",2,2
"79",2,"RAM1-RAM2",-0.1203258759,-0.0065832955,0.0921001902,-0.01310538275,-0.1169273723,0.0216893898,0.12118466815,0.0117432018,0.1143079565,0.0845510742,-0.1151480608,2170,"DG_s11",3.031,3.64,4.797,4.812,12,12,10,10,1.157,"Left",12,12,0,0,0,0,0,0,"Equal",2,2
"80",2,"LIN9-LIN10",0.170431821,0.16458925345,0.13962206825,0.1049022385,0.0154458285,0.263673137,0.1427592125,0.003805134,0.310362218,0.2315813885,0.1237985605,2170,"DG_s11",3.031,3.64,4.797,4.812,12,12,10,10,1.157,"Left",12,12,0,0,0,0,0,0,"Equal",2,2
"81",2,"LOF5-LOF6",0.2391468569,0.0379763601,-0.02502109685,0.0285722001,0.0659141191,-0.2041598504,0.10759696305,0.0844120919,0.0942690409,-0.0629933564,-0.1141007844,2170,"DG_s11",3.031,3.64,4.797,4.812,12,12,10,10,1.157,"Left",12,12,0,0,0,0,0,0,"Equal",2,2
"82",2,"LOF4-LOF5",0.2069958451,0.1782050156,0.1498035846,0.0715781206,0.15250472815,0.05974875365,0.1782824493,0.0445680178,0.2202388586,0.1746828096,-0.0096147504,2170,"DG_s11",3.031,3.64,4.797,4.812,12,12,10,10,1.157,"Left",12,12,0,0,0,0,0,0,"Equal",2,2
"83",2,"RHH4-RHH5",-0.0361345994,0.1691484721,0.14629473065,0.13714698005,0.0346515806,0.0503900731,0.0638982836,0.1559777226,0.0239967806,0.0779139716,0.0811730493,2170,"DG_s11",3.031,3.64,4.797,4.812,12,12,10,10,1.157,"Left",12,12,0,0,0,0,0,0,"Equal",2,2
"84",2,"LPC1-LPC2",0.2725138434,0.1188190959,0.1231893164,0.15311869595,0.2113295019,0.10026651155,-0.0524705816,0.1239933084,-0.05237881252,0.15009048583,0.24898601295,2170,"DG_s11",3.031,3.64,4.797,4.812,12,12,10,10,1.157,"Left",12,12,0,0,0,0,0,0,"Equal",2,2
"85",2,"LOF1-LOF2",-0.2081975631,-0.1398960885,-0.04270716945,0.179595172,0.17291613865,0.1845036665,-0.12049865,-0.0608158405,0.0105962215,0.222146272565,0.077928858,2170,"DG_s11",3.031,3.64,4.797,4.812,12,12,10,10,1.157,"Left",12,12,0,0,0,0,0,0,"Equal",2,2
"86",2,"LIN2-LIN3",-0.10030475415,-0.17025534685,-0.22571578535,-0.0800903225,-0.0888521033,-0.09485164085,-0.05819955435,-0.20423032195,-0.16646891545,0.08637902115,-0.12190272785,2170,"DG_s11",3.031,3.64,4.797,4.812,12,12,10,10,1.157,"Left",12,12,0,0,0,0,0,0,"Equal",2,2
"87",2,"ROF6-ROF7",-0.0996814495,0.1329274435,0.14023510815,0.25133412615,0.2136372635,0.12521415575,0.08243733075,-0.0342999795,-0.0552310055,-0.1087104215,-0.15453522685,2170,"DG_s11",3.031,3.64,4.797,4.812,12,12,10,10,1.157,"Left",12,12,0,0,0,0,0,0,"Equal",2,2
"88",2,"RTH1-RTH2",-0.20320960375,-0.1443238975,-0.0093312255,-0.095827119,-0.12763582125,-0.0010445247,0.0085751832,0.1035946435,0.0813618495,0.05801288875,0.05699239025,2170,"DG_s11",3.031,3.64,4.797,4.812,12,12,10,10,1.157,"Left",12,12,0,0,0,0,0,0,"Equal",2,2
"89",2,"RIN7-RIN8",0.100568809,0.221884705,0.142866649,-0.017581555,0.1233848455,0.0920346945,0.22625001085,0.04770187265,0.2780979125,0.0580231035,0.07836338035,2170,"DG_s11",3.031,3.64,4.797,4.812,12,12,10,10,1.157,"Left",12,12,0,0,0,0,0,0,"Equal",2,2
"90",2,"LAC8-LAC9",-0.062953639,0.1140409562,0.0589590475,0.071968659,0.1454873285,-0.004619351,-0.130358781,-0.0155472505,0.165934089,0.13042230145,-0.08616062395,2170,"DG_s11",3.031,3.64,4.797,4.812,12,12,10,10,1.157,"Left",12,12,0,0,0,0,0,0,"Equal",2,2
"91",2,"LAM3-LAM4",-0.016985073025,-0.077928455525,-0.015577970525,0.041638717475,0.053799456975,-0.004412222425,-0.056777956025,0.022260549475,-0.114483456025,0.168662427975,0.223041085975,2170,"DG_s11",3.031,3.64,4.797,4.812,12,12,10,10,1.157,"Left",12,12,0,0,0,0,0,0,"Equal",2,2
"92",2,"RIN6-RIN7",0.005392459,0.01033623145,-0.11590473899,0.20117594,0.194638606,0.4761546845,0.2581366278,0.0925346405,0.1496716905,0.214622459,-0.00945267299999999,2170,"DG_s11",3.031,3.64,4.797,4.812,12,12,10,10,1.157,"Left",12,12,0,0,0,0,0,0,"Equal",2,2
"93",2,"LAC1-LAC2",0.00438348354449999,-0.2718433824555,-0.0526735824555,-0.0398362883555,0.1025454066445,-0.0335411864555,-0.1782656589555,0.0703909490445,-0.0101031599555,0.1568102265445,-0.0719770824555,2170,"DG_s11",3.031,3.64,4.797,4.812,12,12,10,10,1.157,"Left",12,12,0,0,0,0,0,0,"Equal",2,2
"94",2,"RAM6-RAM7",0.0607543018,0.0387491428,-0.0447473092,0.0237373033,-0.0342975442,0.2105064933,0.3262510108,0.1968392418,0.0760466458,-0.0995537452,-0.0198273232,2170,"DG_s11",3.031,3.64,4.797,4.812,12,12,10,10,1.157,"Left",12,12,0,0,0,0,0,0,"Equal",2,2
"95",2,"LOF7-LOF8",0.24274865295,0.0453007408,0.193225317,0.150070304,0.000645313800000005,-0.0693361178,0.0360671912,0.00246319480000001,-0.1754729698,0.00349058565,0.1522004019,2170,"DG_s11",3.031,3.64,4.797,4.812,12,12,10,10,1.157,"Left",12,12,0,0,0,0,0,0,"Equal",2,2
"96",2,"LAC3-LAC4",0.1730962764,0.0776064167,0.0761063899,0.1478430364,0.2053686385,0.2097118284,0.2297679159,0.3581071249,0.2668535514,0.1673259734,0.2143690282,2170,"DG_s11",3.031,3.64,4.797,4.812,12,12,10,10,1.157,"Left",12,12,0,0,0,0,0,0,"Equal",2,2
"97",2,"RIN2-RIN3",0.1469552453,0.36620150075,0.29511236625,0.03138661925,-0.16410529975,0.06013856325,-0.14659103255,-0.23148842275,-0.08119923895,-0.11114778695,0.09013566925,2170,"DG_s11",3.031,3.64,4.797,4.812,12,12,10,10,1.157,"Left",12,12,0,0,0,0,0,0,"Equal",2,2
"98",2,"RIN9-RIN10",-0.09690055925,0.05357345411,-0.037465671,-0.0629230655,-0.20663154655,-0.2808856015,-0.1597541725,-0.10392089495,-0.16572107345,-0.139581598865,0.111233775885,2170,"DG_s11",3.031,3.64,4.797,4.812,12,12,10,10,1.157,"Left",12,12,0,0,0,0,0,0,"Equal",2,2
"99",2,"LAC6-LAC7",-0.0341379405,-0.13925060235,0.1418612911,0.2980829712,0.1576491351,0.0896252011,0.23220244815,0.0946503736,-0.0461332029,-0.0211678104,0.1434563851,2170,"DG_s11",3.031,3.64,4.797,4.812,12,12,10,10,1.157,"Left",12,12,0,0,0,0,0,0,"Equal",2,2
"100",2,"LAC10-LAC11",-0.0364687075,-0.22735077617,-0.1129478015,-0.188834784,-0.128273468,-0.220656455,-0.15475206025,-0.26922129125,-0.129484433,-0.0194833085,-0.113690944,2170,"DG_s11",3.031,3.64,4.797,4.812,12,12,10,10,1.157,"Left",12,12,0,0,0,0,0,0,"Equal",2,2
"101",2,"ROF1-ROF2",-0.01000403625,0.06521782142,0.000135767249999995,0.15756068625,0.00199933775,0.12445396875,0.25651407575,0.15774800425,-0.04378245775,0.3170038556,0.27131883285,2170,"DG_s11",3.031,3.64,4.797,4.812,12,12,10,10,1.157,"Left",12,12,0,0,0,0,0,0,"Equal",2,2
"102",2,"LOF6-LOF7",0.16436422335,-0.16667965515,-0.04260027165,-0.08278660515,0.03915194035,-0.14756969815,0.06988600935,0.09083067025,-0.02385398185,-0.011985075,-0.08140977215,2170,"DG_s11",3.031,3.64,4.797,4.812,12,12,10,10,1.157,"Left",12,12,0,0,0,0,0,0,"Equal",2,2
"103",2,"LIN1-LIN2",0.1568564135,0.089028911,0.03095110885,-0.006688796,-0.0669664853,-0.044618546,-0.074587636,-0.01713644595,-0.0083430043,0.04639639765,-0.0252111295,2170,"DG_s11",3.031,3.64,4.797,4.812,12,12,10,10,1.157,"Left",12,12,0,0,0,0,0,0,"Equal",2,2
"104",2,"LAM1-LAM2",0.3136488952,0.2460004387,0.12499393155,0.19750657875,0.2635375547,0.1992350186,0.0368596206,0.1115949647,0.0186699542,0.1243142902,0.31155766035,2170,"DG_s11",3.031,3.64,4.797,4.812,12,12,10,10,1.157,"Left",12,12,0,0,0,0,0,0,"Equal",2,2
"105",2,"RIN3-RIN4",0.12294384915,0.24765313515,0.08854915565,0.0630304406,0.00269074415,0.27370388215,0.21771748215,-0.03050017885,-0.01723790835,0.0299757959,0.2164533575,2170,"DG_s11",3.031,3.64,4.797,4.812,12,12,10,10,1.157,"Left",12,12,0,0,0,0,0,0,"Equal",2,2
"106",2,"LPC8-LPC9",0.0200867121,0.1440852765,0.070325727,0.074028573,0.0100088615,-0.0023966895,0.2553286535,0.2363270395,0.231199938,0.0753379325,0.01251342745,2170,"DG_s11",3.031,3.64,4.797,4.812,12,12,10,10,1.157,"Left",12,12,0,0,0,0,0,0,"Equal",2,2
"107",2,"LIN7-LIN8",-0.22038697215,-0.075074593995,-0.079015574995,0.0371126386,-0.00200144864999999,-0.13040114865,-0.04937618805,-0.07758824475,-0.1001891471,0.22034956655,0.56093386135,2170,"DG_s11",3.031,3.64,4.797,4.812,12,12,10,10,1.157,"Left",12,12,0,0,0,0,0,0,"Equal",2,2
"108",2,"ROF3-ROF4",-0.23846341225,-0.1010308514,-0.14022559795,-0.044176339,-0.00865446905,-0.0415439105,0.029337168,-0.210425041,-0.28526441375,0.16339950775,0.152888284,2170,"DG_s11",3.031,3.64,4.797,4.812,12,12,10,10,1.157,"Left",12,12,0,0,0,0,0,0,"Equal",2,2
"109",2,"LTH1-LTH2",-0.0402232705,-0.15129492935,0.0614556945,-0.0590745665,-0.111736868,-0.088331835,-0.0505057952,-0.0862730903,-0.1023899935,-0.1631325205,-0.13250181355,2170,"DG_s11",3.031,3.64,4.797,4.812,12,12,10,10,1.157,"Left",12,12,0,0,0,0,0,0,"Equal",2,2
"110",2,"LPC7-LPC8",0.0317937321,0.057055664525,0.2032285956,0.4730961686,0.1847359516,0.1846566166,0.1502313021,0.1679812531,0.0912061381,0.0200403341,-0.02325481385,2170,"DG_s11",3.031,3.64,4.797,4.812,12,12,10,10,1.157,"Left",12,12,0,0,0,0,0,0,"Equal",2,2
"111",2,"LIN3-LIN4",-0.07365485155,-0.07688185555,0.07916751645,0.0376748781,-0.05376286855,0.21160550245,0.02503830575,-0.05542955425,-0.0229015699,0.2541250981,0.07025861695,2170,"DG_s11",3.031,3.64,4.797,4.812,12,12,10,10,1.157,"Left",12,12,0,0,0,0,0,0,"Equal",2,2
"112",2,"RTH7-RTH8",-0.275954168,-0.288055236,-0.166922999,-0.2777929836,-0.239142312,-0.09966868,-0.071106027,-0.1805124675,-0.3682238375,-0.1323024945,-0.23018280535,2170,"DG_s11",3.031,3.64,4.797,4.812,12,12,10,10,1.157,"Left",12,12,0,0,0,0,0,0,"Equal",2,2
"113",2,"LIN8-LIN9",-0.163750545,-0.026014002,0.0612402745,-0.0625091529,-0.0783761575,-0.125355247,-0.044869991,-0.0543013772,0.074190136,0.173286807,0.232134634,2170,"DG_s11",3.031,3.64,4.797,4.812,12,12,10,10,1.157,"Left",12,12,0,0,0,0,0,0,"Equal",2,2
"114",2,"LIN4-LIN5",-0.10630147485,-0.1283248331,-0.19672854445,-0.3209797886,-0.26522414718,-0.19338178923,-0.1252316951,-0.1876325286,-0.0970808956,-0.3179887099,-0.2058627996,2170,"DG_s11",3.031,3.64,4.797,4.812,12,12,10,10,1.157,"Left",12,12,0,0,0,0,0,0,"Equal",2,2
"115",2,"LOF3-LOF4",-0.137213496,-0.17576509045,0.03705531005,-0.22631242045,-0.07579143545,-0.07956126145,-0.09462612845,-0.2254553425,-0.19658409285,-0.02669025195,0.06467934855,2170,"DG_s11",3.031,3.64,4.797,4.812,12,12,10,10,1.157,"Left",12,12,0,0,0,0,0,0,"Equal",2,2
"116",2,"LHH5-LHH6",-0.04085521175,0.01000820695,-0.1866472187,-0.2037834067,-0.3419635465,-0.2178004505,-0.0801339125,-0.00500070949999998,0.00167088500000001,-0.010270821,-0.115217884,2170,"DG_s11",3.031,3.64,4.797,4.812,12,12,10,10,1.157,"Left",12,12,0,0,0,0,0,0,"Equal",2,2
"117",2,"RAM5-RAM6",-0.27201034145,0.04381011305,-0.050866278,-0.04979044995,-0.1643373367,-0.03501818586,0.13312307905,0.03072662115,-0.07499353345,0.05246819255,-0.02935986895,2170,"DG_s11",3.031,3.64,4.797,4.812,12,12,10,10,1.157,"Left",12,12,0,0,0,0,0,0,"Equal",2,2
"118",2,"LTH6-LTH7",-0.11737228665,-0.084393964,-0.0156973365,0.0951230646,0.0130398936,-0.0654831975,-0.1716413375,-0.0637673007,-0.2049517248,-0.16494813,-0.0987718329,2170,"DG_s11",3.031,3.64,4.797,4.812,12,12,10,10,1.157,"Left",12,12,0,0,0,0,0,0,"Equal",2,2
"119",2,"LOF2-LOF3",-0.2873994613,-0.2695954401,-0.1514043266,0.0761330249,0.2018174194,0.1136336694,-0.2643242937,-0.16999797055,-0.0315660341,0.1245374804,-0.1274851136,2170,"DG_s11",3.031,3.64,4.797,4.812,12,12,10,10,1.157,"Left",12,12,0,0,0,0,0,0,"Equal",2,2
"120",2,"LTH7-LTH8",-0.06160339195,-0.11988806426,0.0435098834,0.1130761361,-0.0220047249,-0.09696407195,0.14306643605,0.00285367505,0.16865133055,0.11311495905,0.03124723055,2170,"DG_s11",3.031,3.64,4.797,4.812,12,12,10,10,1.157,"Left",12,12,0,0,0,0,0,0,"Equal",2,2
"121",2,"RTH5-RTH6",-0.1323686038,0.1012312307,0.1585350962,-0.0198567563,-0.0654765193,-0.109787174725,0.4394893842,0.1988715962,0.3850795187,0.2582152277,-0.0481120173,2170,"DG_s11",3.031,3.64,4.797,4.812,12,12,10,10,1.157,"Left",12,12,0,0,0,0,0,0,"Equal",2,2
"122",2,"LPC5-LPC6",0.03683607165,-0.04272693825,0.15167892315,0.59265426215,0.35867774665,0.35337918415,0.29216387465,0.25430488965,0.28399138555,0.22729842405,0.34592706765,2170,"DG_s11",3.031,3.64,4.797,4.812,12,12,10,10,1.157,"Left",12,12,0,0,0,0,0,0,"Equal",2,2
"123",2,"RIN1-RIN2",-0.051307845,0.117821816,-0.099787959,-0.05619702405,0.05682605005,-0.162072414,0.0774396205,-0.0201562245,0.20655850825,-0.12992763525,-0.1691950555,2170,"DG_s11",3.031,3.64,4.797,4.812,12,12,10,10,1.157,"Left",12,12,0,0,0,0,0,0,"Equal",2,2
"124",2,"RIN5-RIN6",0.04804481735,0.01127497235,-0.012365114,0.24406481135,0.22779064315,0.33886157615,0.080352465,0.01797855435,0.1489719503,0.2306978084865,0.107732412,2170,"DG_s11",3.031,3.64,4.797,4.812,12,12,10,10,1.157,"Left",12,12,0,0,0,0,0,0,"Equal",2,2
"125",2,"RHH5-RHH6",0.00529697389999999,0.1642939789,0.0109187934,0.0468014524,0.1887337319,0.2557290759,0.1427562231,0.16871923585,0.06147060915,0.1759669974,0.0753511409,2170,"DG_s11",3.031,3.64,4.797,4.812,12,12,10,10,1.157,"Left",12,12,0,0,0,0,0,0,"Equal",2,2
"126",2,"LAC7-LAC8",0.08444035925,0.06531908515,0.0569035709,0.1861421075,0.328451258,0.0256757645,0.0941006865,0.2164316612,0.19281740785,0.1197884524,0.1930306519,2170,"DG_s11",3.031,3.64,4.797,4.812,12,12,10,10,1.157,"Left",12,12,0,0,0,0,0,0,"Equal",2,2
"127",2,"LAM2-LAM3",0.266281451,0.23154736385,0.143905618905,0.000892109110000004,0.240192373,0.2551989805,0.1057497795,0.065340849,0.0346140785,0.263708759,0.2027146105,2170,"DG_s11",3.031,3.64,4.797,4.812,12,12,10,10,1.157,"Left",12,12,0,0,0,0,0,0,"Equal",2,2
"128",2,"LHH7-LHH8",0.035208962,-0.09625202545,-0.11026015575,0.00168376049999999,0.2295823625,-0.11291074965,0.05237651386,0.075113348,0.0390662215,-0.2549425525,-0.12328295165,2170,"DG_s11",3.031,3.64,4.797,4.812,12,12,10,10,1.157,"Left",12,12,0,0,0,0,0,0,"Equal",2,2
"129",2,"LTH5-LTH6",-0.1615994366,0.030695401,-0.0622301245,-0.128501173,-0.0966968211,-0.1973267124,-0.247827325,-0.2978526875,-0.214277262,-0.1124997685,-0.05126236745,2170,"DG_s11",3.031,3.64,4.797,4.812,12,12,10,10,1.157,"Left",12,12,0,0,0,0,0,0,"Equal",2,2
"130",2,"LHH6-LHH7",-0.1409530354,-0.00267532684999999,-0.16720344635,-0.2747908259,-0.0463743894,-0.0343013084,-0.18593425645,-0.1592990754,-0.0230293244,-0.0790007794,-0.0828843244,2170,"DG_s11",3.031,3.64,4.797,4.812,12,12,10,10,1.157,"Left",12,12,0,0,0,0,0,0,"Equal",2,2
"131",2,"LTH8-LTH9",-0.1231602175,-0.0234461215,0.266867945,-0.0016697255,-0.0253505505,0.042688087,0.1680874138,0.1084556565,0.472597518,0.1255137522,-0.0436257633,2170,"DG_s11",3.031,3.64,4.797,4.812,12,12,10,10,1.157,"Left",12,12,0,0,0,0,0,0,"Equal",2,2
"132",2,"RTH4-RTH5",-0.322784054395,-0.229510634995,-0.114226878495,-0.119259056795,-0.296312407945,-0.469703471795,-0.098319073295,0.019739307705,0.221272333705,0.283080477205,-0.274401978345,2170,"DG_s11",3.031,3.64,4.797,4.812,12,12,10,10,1.157,"Left",12,12,0,0,0,0,0,0,"Equal",2,2
"133",3,"LOF6-LOF7",-0.1715764755,-0.1776784793,-0.12551700245,0.039430645,0.12497951565,-0.08638410485,-0.094666233,0.04626402925,-0.0783987106,-0.1100508905,-0.16213693105,2171,"DG_s11",5.812,6.422,7.89,7.89,10,10,8,8,1.468,"Left",8,8,0,0,0,0,0,0,"10-10",2,2
"134",3,"RIN5-RIN6",-0.0750486505,-0.0298201065,-0.215918978,-0.2031446425,-0.0654574985,0.0237585665,-0.001637203,-0.0503188276,-0.1564795466,-0.081190333,-0.1577728715,2171,"DG_s11",5.812,6.422,7.89,7.89,10,10,8,8,1.468,"Left",8,8,0,0,0,0,0,0,"10-10",2,2
"135",3,"LHH7-LHH8",-0.17398043665,-0.1238913302,-0.3284932242,-0.2455228942,-0.3264108632,-0.2014411607,-0.3492069926,-0.4058775402,-0.2449991597,-0.1091798996,-0.0149879237,2171,"DG_s11",5.812,6.422,7.89,7.89,10,10,8,8,1.468,"Left",8,8,0,0,0,0,0,0,"10-10",2,2
"136",3,"LIN1-LIN2",-0.241267388,-0.117833934255,-0.0946788916,-0.0977938516,-0.148638571,-0.1076476815,0.101259547,0.207473381,-0.02649900915,0.0708312995,0.152443893,2171,"DG_s11",5.812,6.422,7.89,7.89,10,10,8,8,1.468,"Left",8,8,0,0,0,0,0,0,"10-10",2,2
"137",3,"LPC7-LPC8",-0.04404963325,-0.048330908,0.17269764895,0.21315640471,0.26838162091,0.202092401545,0.11667334475,0.12932425502,0.19978113352,-0.05069721445,0.10479473515,2171,"DG_s11",5.812,6.422,7.89,7.89,10,10,8,8,1.468,"Left",8,8,0,0,0,0,0,0,"10-10",2,2
"138",3,"LPC6-LPC7",-0.02390198407,-0.09641464727,0.08390605773,0.14973574888,0.13372584173,0.22261885673,0.06021896673,-0.01936922377,0.17554940988,0.11724388643,0.32635431228,2171,"DG_s11",5.812,6.422,7.89,7.89,10,10,8,8,1.468,"Left",8,8,0,0,0,0,0,0,"10-10",2,2
"139",3,"LOF2-LOF3",-0.0519672558,-0.1242510703,0.0398984327,0.1682482672,-0.01314192345,0.0622776304,-0.1405047629,-0.0778781328,0.02179377855,0.0166347654,0.0898728477,2171,"DG_s11",5.812,6.422,7.89,7.89,10,10,8,8,1.468,"Left",8,8,0,0,0,0,0,0,"10-10",2,2
"140",3,"LOF7-LOF8",0.0200142242,-0.096424942,-0.15302249235,-0.0591124025,0.0523343655,-0.00470040745,-0.317707918,-0.0184197785,0.0253095498,-0.120299347,-0.2748317455,2171,"DG_s11",5.812,6.422,7.89,7.89,10,10,8,8,1.468,"Left",8,8,0,0,0,0,0,0,"10-10",2,2
"141",3,"LHH5-LHH6",0.06554997195,-0.07740765805,0.0947007903,0.3094497023,-0.0349774687,-0.0031924097,0.1048546558,0.2430865158,0.2266717223,0.0895702883,0.0716884418,2171,"DG_s11",5.812,6.422,7.89,7.89,10,10,8,8,1.468,"Left",8,8,0,0,0,0,0,0,"10-10",2,2
"142",3,"RTH6-RTH7",0.1273093583,-0.0445759655,-0.049042068,-0.06833833155,0.07393709945,0.2277791945,0.25679549395,0.17282044895,0.148472198,0.5732276815,0.24020285095,2171,"DG_s11",5.812,6.422,7.89,7.89,10,10,8,8,1.468,"Left",8,8,0,0,0,0,0,0,"10-10",2,2
"143",3,"LIN6-LIN7",-0.00976604675,0.1229487585,0.134913376,-0.0032755575,0.0159072635,-0.0581660865,-0.039556548,-0.09472571,0.221188141,-0.0052899665,-0.162851377,2171,"DG_s11",5.812,6.422,7.89,7.89,10,10,8,8,1.468,"Left",8,8,0,0,0,0,0,0,"10-10",2,2
"144",3,"LIN8-LIN9",0.1435295055,-0.01055986845,0.12036480685,0.07522484785,0.0905550917,0.145466191,0.23456296915,0.3561509075,0.39186517,0.364089993,0.221381268,2171,"DG_s11",5.812,6.422,7.89,7.89,10,10,8,8,1.468,"Left",8,8,0,0,0,0,0,0,"10-10",2,2
"145",3,"RTH1-RTH2",0.1045722771,-0.0640418052,0.2208827193,0.0388283736,-0.11260860895,0.07136148455,1.0803280771,0.7358562956,0.0609321071,0.0457963315,0.0516515145,2171,"DG_s11",5.812,6.422,7.89,7.89,10,10,8,8,1.468,"Left",8,8,0,0,0,0,0,0,"10-10",2,2
"146",3,"LAC1-LAC2",-0.1182418208,-0.0416022588,-0.1039335983,0.1132176135,0.020136691,0.1454470722,-0.072165676075,0.19585397255,0.14673207755,-0.00908942525,0.0305676412,2171,"DG_s11",5.812,6.422,7.89,7.89,10,10,8,8,1.468,"Left",8,8,0,0,0,0,0,0,"10-10",2,2
"147",3,"LAM1-LAM2",0.1875875675,-0.2960751305,-0.3636017485,-0.0366289435,-0.051032316,0.0296662755,0.0272902175,-0.0524168733,-0.04775603095,0.1063186535,-0.0753298415,2171,"DG_s11",5.812,6.422,7.89,7.89,10,10,8,8,1.468,"Left",8,8,0,0,0,0,0,0,"10-10",2,2
"148",3,"LAC3-LAC4",-0.1867999535,-0.132072353,-0.1245804625,0.00275145269999999,-0.11528749925,-0.3339974205,-0.29883116355,-0.1506773679,-0.13632464,-0.23339752775,-0.14452768425,2171,"DG_s11",5.812,6.422,7.89,7.89,10,10,8,8,1.468,"Left",8,8,0,0,0,0,0,0,"10-10",2,2
"149",3,"LOF4-LOF5",-0.00951500445,-0.094114058,-0.14078312685,-0.09036201695,0.032709809,0.2017762695,0.121161962,0.063091553,-0.0199842456,-0.0215846181,0.0712794886,2171,"DG_s11",5.812,6.422,7.89,7.89,10,10,8,8,1.468,"Left",8,8,0,0,0,0,0,0,"10-10",2,2
"150",3,"RTH5-RTH6",-0.0769284556,-0.1391868003,-0.24830094365,-0.13523915765,-0.1050453956,0.04415038475,0.2100277857,-0.1231821343,-0.0549970398,0.4203686967,0.2775160507,2171,"DG_s11",5.812,6.422,7.89,7.89,10,10,8,8,1.468,"Left",8,8,0,0,0,0,0,0,"10-10",2,2
"151",3,"LTH6-LTH7",0.052553219,0.009419344,-0.05343811525,0.13309030175,0.157032755145,0.15606163305,0.04124090945,0.1466135731,0.156928382445,0.050497059,-0.040352895,2171,"DG_s11",5.812,6.422,7.89,7.89,10,10,8,8,1.468,"Left",8,8,0,0,0,0,0,0,"10-10",2,2
"152",3,"LAM2-LAM3",0.2823275391,-0.0927896644,-0.093501180575,0.032441718125,0.0860805161,0.0376389727,0.1496204096,0.260162296,0.2047693039,0.04788443356,0.051250062,2171,"DG_s11",5.812,6.422,7.89,7.89,10,10,8,8,1.468,"Left",8,8,0,0,0,0,0,0,"10-10",2,2
"153",3,"LAC9-LAC10",-0.1777941645,-0.1742134755,0.0864746018,0.14504480655,0.0612512015,-0.14549729105,-0.2943224605,0.02915618185,0.06587170073,-0.10219048947,-0.174079884,2171,"DG_s11",5.812,6.422,7.89,7.89,10,10,8,8,1.468,"Left",8,8,0,0,0,0,0,0,"10-10",2,2
"154",3,"LTH1-LTH2",-0.097298693,-0.06170863475,-0.12874893955,-0.10660361045,-0.15748970795,-0.0980251355,-0.05836138565,-0.062992284835,-0.04177426365,0.08925509125,0.017052664,2171,"DG_s11",5.812,6.422,7.89,7.89,10,10,8,8,1.468,"Left",8,8,0,0,0,0,0,0,"10-10",2,2
"155",3,"LHH6-LHH7",-0.0628349915,-0.249084774,0.08459980905,0.09608732825,-0.2379768905,0.0325496625,-0.2285399535,-0.07731310539,-0.16619598764,0.0978201855,-0.0705327925,2171,"DG_s11",5.812,6.422,7.89,7.89,10,10,8,8,1.468,"Left",8,8,0,0,0,0,0,0,"10-10",2,2
"156",3,"LIN4-LIN5",0.400031705,0.201622924,0.01312275815,0.12480661065,0.0656746745,0.162420646,0.127188281,0.033146155,-0.0708350572,-0.0678797917,0.1455108095,2171,"DG_s11",5.812,6.422,7.89,7.89,10,10,8,8,1.468,"Left",8,8,0,0,0,0,0,0,"10-10",2,2
"157",3,"LAC8-LAC9",0.20109742875,0.10213360995,0.26759982795,0.4132119384,0.366004149,0.27333662285,0.1314210805,0.259199252,0.016017566,-0.0572304956,-0.0184097763,2171,"DG_s11",5.812,6.422,7.89,7.89,10,10,8,8,1.468,"Left",8,8,0,0,0,0,0,0,"10-10",2,2
"158",3,"ROF1-ROF2",-0.016296453,-0.0424452745,0.03171718975,0.1762662925,0.1202694835,-0.0729917275,-0.1033575565,0.3123416838295,-0.0554554394,-0.026682659,0.06325178337,2171,"DG_s11",5.812,6.422,7.89,7.89,10,10,8,8,1.468,"Left",8,8,0,0,0,0,0,0,"10-10",2,2
"159",3,"RIN6-RIN7",-0.10648207165,0.01072697759,-0.0899163165,-0.16058286335,-0.1130085895,0.0156457395,0.0437985,-0.1608843095,-0.203142064,-0.0463166162,-0.119200051,2171,"DG_s11",5.812,6.422,7.89,7.89,10,10,8,8,1.468,"Left",8,8,0,0,0,0,0,0,"10-10",2,2
"160",3,"LIN5-LIN6",0.19974718425,0.2051820755,0.18894327715,0.0713017725,0.0739870495,0.0340222771,-0.09357012135,-0.081667804,-0.03997651295,-0.031367277,-0.0559934946,2171,"DG_s11",5.812,6.422,7.89,7.89,10,10,8,8,1.468,"Left",8,8,0,0,0,0,0,0,"10-10",2,2
"161",3,"LIN7-LIN8",0.0810959175,-0.100417961,0.0325946412,-0.0170608523,-0.008235138,0.0057347115,0.0854840315,0.205109674,0.3449836295,0.2482336992,0.05326516885,2171,"DG_s11",5.812,6.422,7.89,7.89,10,10,8,8,1.468,"Left",8,8,0,0,0,0,0,0,"10-10",2,2
"162",3,"ROF2-ROF3",0.3496782992,0.0973389647,0.1190312525,0.03087504185,0.1230157025,0.2356275965,0.193010688635,0.2843169395,0.1401254185,0.1104744831,0.189300899175,2171,"DG_s11",5.812,6.422,7.89,7.89,10,10,8,8,1.468,"Left",8,8,0,0,0,0,0,0,"10-10",2,2
"163",3,"RTH7-RTH8",-0.14054705155,-0.22524209305,-0.10964827455,-0.11254364555,-0.20275228435,-0.12368545465,-0.14189557405,-0.17011593005,-0.27601172205,-0.13575757655,-0.13646636705,2171,"DG_s11",5.812,6.422,7.89,7.89,10,10,8,8,1.468,"Left",8,8,0,0,0,0,0,0,"10-10",2,2
"164",3,"RTH4-RTH5",0.005735529,-0.0920915307,-0.0469110452,-0.0806818782,-0.1157784652,0.0090665178,0.2857446003,0.1282243583,-0.0655485982,0.2110198758,0.350420871599,2171,"DG_s11",5.812,6.422,7.89,7.89,10,10,8,8,1.468,"Left",8,8,0,0,0,0,0,0,"10-10",2,2
"165",3,"ROF4-ROF5",0.1606722685,0.1645533355,0.227448504,0.16089284795,0.36776274895,0.0874892195,-0.1333548884,-0.0484872065,0.0155559882,-0.02256786205,0.159101425,2171,"DG_s11",5.812,6.422,7.89,7.89,10,10,8,8,1.468,"Left",8,8,0,0,0,0,0,0,"10-10",2,2
"166",3,"RIN9-RIN10",-0.001376706,-0.01647075915,0.286560233,0.125950408,0.1190869069,0.0925246219,0.146681179,0.1502800835,0.0602657588,-0.0539623355,-0.00709141625,2171,"DG_s11",5.812,6.422,7.89,7.89,10,10,8,8,1.468,"Left",8,8,0,0,0,0,0,0,"10-10",2,2
"167",3,"LAC2-LAC3",0.08250386865,0.1223599585,0.05813131395,0.04762543745,0.0264641685,-0.03086926,0.048038661,0.0516640846,0.262938036,-0.08522244005,-0.0111179255,2171,"DG_s11",5.812,6.422,7.89,7.89,10,10,8,8,1.468,"Left",8,8,0,0,0,0,0,0,"10-10",2,2
"168",3,"ROF3-ROF4",-0.09065646261,-0.14722683846,-0.13911050665,-0.00554438399999999,-0.1765868765,-0.14663402192,-0.29754577712,-0.1576459145,-0.193048597,-0.1226458365,-0.00844953349999999,2171,"DG_s11",5.812,6.422,7.89,7.89,10,10,8,8,1.468,"Left",8,8,0,0,0,0,0,0,"10-10",2,2
"169",3,"LOF5-LOF6",0.1132838225,-0.00166510255000001,0.09994816445,0.04169865535,0.240776696,0.286020649,0.264609469,0.244245981,0.1881451868,0.08101180005,0.11688035855,2171,"DG_s11",5.812,6.422,7.89,7.89,10,10,8,8,1.468,"Left",8,8,0,0,0,0,0,0,"10-10",2,2
"170",3,"ROF6-ROF7",-0.111427356,-0.18038500185,-0.05680450195,0.13168799205,0.16296215263,0.08898237643,-0.0246784835,0.057042605,0.0978850252,-0.1866030573,-0.165752587272,2171,"DG_s11",5.812,6.422,7.89,7.89,10,10,8,8,1.468,"Left",8,8,0,0,0,0,0,0,"10-10",2,2
"171",3,"RAM6-RAM7",0.13645157989,0.10466828854,0.26074334785,0.198132471,-0.01279429943,0.109783176,0.072561805,0.3445492825,-0.2060698425,-0.0516815245,0.025224674,2171,"DG_s11",5.812,6.422,7.89,7.89,10,10,8,8,1.468,"Left",8,8,0,0,0,0,0,0,"10-10",2,2
"172",3,"LOF3-LOF4",0.09312771275,-0.09860939425,0.10254695925,0.08011063725,0.028519536345,-0.02349677025,-0.00551667275000001,0.16043740415,-0.0220033932,0.03238457025,0.12013853525,2171,"DG_s11",5.812,6.422,7.89,7.89,10,10,8,8,1.468,"Left",8,8,0,0,0,0,0,0,"10-10",2,2
"173",3,"LAM3-LAM4",-0.0273867551,-0.0929526941,-0.18540964965,-0.042922856,0.100202331,-0.2237124105,-0.1654747885,-0.09953765,-0.0403979286,0.0442661381525,0.038194085,2171,"DG_s11",5.812,6.422,7.89,7.89,10,10,8,8,1.468,"Left",8,8,0,0,0,0,0,0,"10-10",2,2
"174",3,"ROF5-ROF6",-0.08549719155,0.0244688336,-0.0803214069,0.19275146895,0.20071224145,0.0304764089,0.08830769495,-0.00695294955,0.08883226895,-0.0976120436,-0.01932689325,2171,"DG_s11",5.812,6.422,7.89,7.89,10,10,8,8,1.468,"Left",8,8,0,0,0,0,0,0,"10-10",2,2
"175",3,"LOF1-LOF2",0.15860622425,-0.0592115889,-0.013899013,0.215825894,-0.00886741469499999,-0.19897570375,-0.06095733775,0.19615568,0.0314511025,-0.109204819,0.1309565607,2171,"DG_s11",5.812,6.422,7.89,7.89,10,10,8,8,1.468,"Left",8,8,0,0,0,0,0,0,"10-10",2,2
"176",3,"RAM5-RAM6",-0.1417941627,-0.145997633,-0.2183038825,0.1795727797,0.0294397117,0.00572447299999998,-0.0768720605,0.292811901,-0.2696175415,-0.318092473,-0.1594722368,2171,"DG_s11",5.812,6.422,7.89,7.89,10,10,8,8,1.468,"Left",8,8,0,0,0,0,0,0,"10-10",2,2
"177",3,"RAM3-RAM4",-0.15825705175,-0.23200028,-0.130840917325,-0.01834802135,-0.1170221081,0.1139319435,0.3488908985,0.4389751916,-0.17322414825,-0.18286066375,0.1145600085,2171,"DG_s11",5.812,6.422,7.89,7.89,10,10,8,8,1.468,"Left",8,8,0,0,0,0,0,0,"10-10",2,2
"178",3,"RAM2-RAM3",-0.1473898344,0.0123969956,0.037728609635,0.0909682339,-0.0930989327,0.36698445915,1.06055423415,1.23530757965,-0.0992577747,-0.2402472682,-0.13503368925,2171,"DG_s11",5.812,6.422,7.89,7.89,10,10,8,8,1.468,"Left",8,8,0,0,0,0,0,0,"10-10",2,2
"179",3,"LAC6-LAC7",0.05217049135,-0.0372942455,0.0835277285,0.2459855034,0.292693061015,0.149692226,0.0446865495,0.124556098,0.06715974,-0.0836202905,-0.12700535305,2171,"DG_s11",5.812,6.422,7.89,7.89,10,10,8,8,1.468,"Left",8,8,0,0,0,0,0,0,"10-10",2,2
"180",3,"LTH5-LTH6",0.0085334235,0.00894199849999999,-0.06691385395,0.26728832705,0.20765604235,-0.12219430865,-0.061713086,0.0249154431,-0.011236645,-0.0193084605,0.00206087134999999,2171,"DG_s11",5.812,6.422,7.89,7.89,10,10,8,8,1.468,"Left",8,8,0,0,0,0,0,0,"10-10",2,2
"181",3,"RAM1-RAM2",-0.33491677395,-0.20377945045,0.633453001,-0.0518134115,-0.522979064,-0.231585733,0.880555116,0.986614406,-0.555703874,-0.628214404,-0.5947373975,2171,"DG_s11",5.812,6.422,7.89,7.89,10,10,8,8,1.468,"Left",8,8,0,0,0,0,0,0,"10-10",2,2
"182",3,"RIN7-RIN8",-0.05692139745,0.0628455851,-0.0644452281,-0.0841178371,0.0732487789,0.1373647559,0.2213258659,-0.16234739475,0.0728407739,0.0267967764,-0.0187205216,2171,"DG_s11",5.812,6.422,7.89,7.89,10,10,8,8,1.468,"Left",8,8,0,0,0,0,0,0,"10-10",2,2
"183",3,"RHH4-RHH5",-0.03690093413,0.03694844457,-0.05702687578,0.10496167072,0.11771628372,0.26094081672,0.10686744672,0.13694646517,0.11462741622,0.02742772822,0.21192089177,2171,"DG_s11",5.812,6.422,7.89,7.89,10,10,8,8,1.468,"Left",8,8,0,0,0,0,0,0,"10-10",2,2
"184",3,"RIN2-RIN3",-0.423775728,-0.4925939109,-0.2768374195,-0.166702931005,-0.354822653525,-0.34292951158,-0.1879525178,-0.1391609684,-0.343029581,-0.0896044625,-0.124578332015,2171,"DG_s11",5.812,6.422,7.89,7.89,10,10,8,8,1.468,"Left",8,8,0,0,0,0,0,0,"10-10",2,2
"185",3,"LIN3-LIN4",0.019003739,-0.20125075555,-0.20335235485,-0.1453007335,-0.03049915635,0.1237280715,0.092804248,0.019146847,0.013824284,-0.1531935985,-0.0941615521,2171,"DG_s11",5.812,6.422,7.89,7.89,10,10,8,8,1.468,"Left",8,8,0,0,0,0,0,0,"10-10",2,2
"186",3,"LAC10-LAC11",-0.1803716454,-0.102768391,-0.286396174525,-0.393088841525,-0.409993329,-0.3969325545,-0.1772182315,0.042763954,-0.21381706305,-0.37505298855,-0.2789660801,2171,"DG_s11",5.812,6.422,7.89,7.89,10,10,8,8,1.468,"Left",8,8,0,0,0,0,0,0,"10-10",2,2
"187",3,"LIN9-LIN10",-0.39523917885,-0.24767866135,-0.36536785235,-0.231997656745,-0.24753125085,-0.27138884235,-0.27725891535,-0.03708013085,-0.36119467935,-0.43984981785,-0.24371771785,2171,"DG_s11",5.812,6.422,7.89,7.89,10,10,8,8,1.468,"Left",8,8,0,0,0,0,0,0,"10-10",2,2
"188",3,"LTH8-LTH9",-0.169194696,-0.128173101,-0.1732007412,-0.1635024695,-0.1835916806,0.04737025,0.0372896055,-0.0779636785,-0.051295963,0.086877778,-0.019661403,2171,"DG_s11",5.812,6.422,7.89,7.89,10,10,8,8,1.468,"Left",8,8,0,0,0,0,0,0,"10-10",2,2
"189",3,"LTH7-LTH8",0.1378862838,0.1555748153,0.1122353933,-0.0014587207,0.0110777538,0.1847585313,0.1118325338,0.0082052123,0.04428074865,0.3150384068,0.2034993183,2171,"DG_s11",5.812,6.422,7.89,7.89,10,10,8,8,1.468,"Left",8,8,0,0,0,0,0,0,"10-10",2,2
"190",3,"LPC8-LPC9",-0.18892418645,-0.14691671365,-0.214999675,-0.1332265245,-0.0235352135,0.00123203549999998,1.33589999999906e-05,-0.0188683875,0.0456123905,-0.09275194195,-0.212955829,2171,"DG_s11",5.812,6.422,7.89,7.89,10,10,8,8,1.468,"Left",8,8,0,0,0,0,0,0,"10-10",2,2
"191",3,"LIN2-LIN3",-0.0302217215,-0.108069785,-0.167747121,-0.0234041575,0.038865180745,0.07649526705,0.33457600315,0.1301187485,-0.017766514,-0.2043576245,-0.0803951968,2171,"DG_s11",5.812,6.422,7.89,7.89,10,10,8,8,1.468,"Left",8,8,0,0,0,0,0,0,"10-10",2,2
"192",3,"RIN8-RIN9",-0.05271686005,-0.034788432995,0.1118978398,0.02867545995,0.15931014435,-0.084197162495,0.08160945835,-0.047474289,-0.17532690365,-0.23664916095,0.008667777985,2171,"DG_s11",5.812,6.422,7.89,7.89,10,10,8,8,1.468,"Left",8,8,0,0,0,0,0,0,"10-10",2,2
"193",3,"LAC7-LAC8",0.2387287238,0.1344709966,0.19626345285,0.23683160985,0.20218738535,0.0835904478,0.299553754795,0.2078644888,0.1446831063,0.0741491678,-0.1403011447,2171,"DG_s11",5.812,6.422,7.89,7.89,10,10,8,8,1.468,"Left",8,8,0,0,0,0,0,0,"10-10",2,2
"194",3,"LPC1-LPC2",0.0498451735895,0.0788910157395,0.0232311553445,0.0921168790895,-0.1387137507605,-0.0592456172605,0.0306687947395,0.1375285312395,0.2359017962395,0.3316324362395,0.3343636802395,2171,"DG_s11",5.812,6.422,7.89,7.89,10,10,8,8,1.468,"Left",8,8,0,0,0,0,0,0,"10-10",2,2
"195",3,"RIN1-RIN2",-0.02138494195,-0.1639380043,0.017213851,0.00409580999999999,0.043297097,0.00430143135,0.059466857,-0.0018743775,-0.131959059,0.094829717,-0.1440378005,2171,"DG_s11",5.812,6.422,7.89,7.89,10,10,8,8,1.468,"Left",8,8,0,0,0,0,0,0,"10-10",2,2
"196",3,"RIN3-RIN4",0.0399678497,0.04163989355,0.0232001166,0.0837513612,-0.05516252888,-0.0110720834,0.01688570605,0.13419428905,0.0474568861,0.20404837255,0.07998234605,2171,"DG_s11",5.812,6.422,7.89,7.89,10,10,8,8,1.468,"Left",8,8,0,0,0,0,0,0,"10-10",2,2
"197",3,"LPC5-LPC6",-0.03294099179,-0.13214043579,-0.04694153694,0.02307266956,-0.10359846029,0.12139213421,0.10913978471,0.13228536821,0.25985504171,0.20734489171,0.29422085021,2171,"DG_s11",5.812,6.422,7.89,7.89,10,10,8,8,1.468,"Left",8,8,0,0,0,0,0,0,"10-10",2,2
"198",3,"RHH5-RHH6",-0.1928129325,-0.06890063245,-0.03791656645,0.07149465955,-0.07025354545,-0.0963179973,0.1115199927,0.184910237285,-0.07918057095,0.02317388755,-0.15300038295,2171,"DG_s11",5.812,6.422,7.89,7.89,10,10,8,8,1.468,"Left",8,8,0,0,0,0,0,0,"10-10",2,2
"199",4,"RIN6-RIN7",0.3452031498,0.1110076418,0.1581066748,0.21242032405,0.3546943913,0.3637752718,0.2745071386,0.1293343313,0.2897991198,0.1939899958,0.0043733129,2172,"DG_s11",8.89,9.5,10.922,10.922,10,10,28,4,1.422,"Right",28,4,24,0,24,0,-24,24,"10-10",-18,6
"200",4,"ROF4-ROF5",0.2702903285,-0.0455535435,0.06434042095,0.115724127,0.06612335565,0.1835732985,0.08251846642,0.29930103792,0.129068097,0.145602122,0.081483402,2172,"DG_s11",8.89,9.5,10.922,10.922,10,10,28,4,1.422,"Right",28,4,24,0,24,0,-24,24,"10-10",-18,6
"201",4,"RTH1-RTH2",0.15291465283,0.18878342433,0.0128028611,0.03963766345,0.0575365371,0.2085394206,0.2294994511,0.1618766806,0.2456547079,0.2326653408,0.2180559291,2172,"DG_s11",8.89,9.5,10.922,10.922,10,10,28,4,1.422,"Right",28,4,24,0,24,0,-24,24,"10-10",-18,6
"202",4,"ROF3-ROF4",-0.111425723965,-0.212298091,-0.08525847365,-0.11164097565,-0.236511197,0.033210564,-0.041866772,-0.1824069545,-0.149389984,-0.1240034855,-0.029387721,2172,"DG_s11",8.89,9.5,10.922,10.922,10,10,28,4,1.422,"Right",28,4,24,0,24,0,-24,24,"10-10",-18,6
"203",4,"RIN9-RIN10",0.015955274,0.0790677445,0.056359629145,0.019454619,0.1023506575,0.1044989805,0.3886222855,0.25404856835,0.177184131,0.063031856,0.050284316,2172,"DG_s11",8.89,9.5,10.922,10.922,10,10,28,4,1.422,"Right",28,4,24,0,24,0,-24,24,"10-10",-18,6
"204",4,"ROF5-ROF6",0.18312586005,0.033447411,0.050143891,0.293330616,0.3615346985,0.192764056,0.1407305755,0.1854773035,0.3038485185,0.333988687,0.1486184155,2172,"DG_s11",8.89,9.5,10.922,10.922,10,10,28,4,1.422,"Right",28,4,24,0,24,0,-24,24,"10-10",-18,6
"205",4,"LHH5-LHH6",0.001583765,-0.0927305915,-0.1308604395,-0.181262395,-0.2005831745,0.00654774999999999,0.023285951745,-0.0939229735,0.12109759445,0.1132797445,0.0271783115,2172,"DG_s11",8.89,9.5,10.922,10.922,10,10,28,4,1.422,"Right",28,4,24,0,24,0,-24,24,"10-10",-18,6
"206",4,"ROF6-ROF7",-0.02559437645,-0.00753050229999999,0.1310415753,0.16466160265,0.19724905305,0.26479902105,0.12516604605,0.34680577905,0.17225904305,0.20155478905,0.30448375105,2172,"DG_s11",8.89,9.5,10.922,10.922,10,10,28,4,1.422,"Right",28,4,24,0,24,0,-24,24,"10-10",-18,6
"207",4,"LAC9-LAC10",-0.183376374,0.015626017,-0.04603518175,-0.0886748638,0.064762338,0.133638084,-0.09381446185,0.071017136,0.0616752175,0.012605906,0.1349091515,2172,"DG_s11",8.89,9.5,10.922,10.922,10,10,28,4,1.422,"Right",28,4,24,0,24,0,-24,24,"10-10",-18,6
"208",4,"LAM2-LAM3",0.149622303,0.18369577,-0.0585323775,0.19209794005,0.1636704878,0.0206526965,0.1076880425,0.066456008,0.2877062577,0.11039562575,0.0480449155,2172,"DG_s11",8.89,9.5,10.922,10.922,10,10,28,4,1.422,"Right",28,4,24,0,24,0,-24,24,"10-10",-18,6
"209",4,"RAM6-RAM7",-0.1210804275,0.06076547035,-0.0214247128,0.12109072365,-0.0497148985,0.030973033,0.161280324,0.0553737157,0.1805681667,0.0901633132,0.0976870895,2172,"DG_s11",8.89,9.5,10.922,10.922,10,10,28,4,1.422,"Right",28,4,24,0,24,0,-24,24,"10-10",-18,6
"210",4,"LIN4-LIN5",0.1137371675,0.0592310349,-0.0650578007,-0.0997820785,-0.29832088625,-0.04797063625,0.105023238,0.1177094531,0.0583239781,0.0258230207,-0.039948434,2172,"DG_s11",8.89,9.5,10.922,10.922,10,10,28,4,1.422,"Right",28,4,24,0,24,0,-24,24,"10-10",-18,6
"211",4,"RTH4-RTH5",-0.09246590165,-0.0714105236,-0.05095188815,-0.14995201415,-0.143258996465,-0.249161065465,-0.14917136865,0.08252926335,-0.04280766535,-0.19728096415,-0.04506130315,2172,"DG_s11",8.89,9.5,10.922,10.922,10,10,28,4,1.422,"Right",28,4,24,0,24,0,-24,24,"10-10",-18,6
"212",4,"LIN1-LIN2",-0.151977976715,-0.058770333165,-0.231315515665,-0.082573074665,-0.223387511665,-0.178158659465,-0.111191378965,-0.114000385165,-0.048982181165,-0.176030460665,0.037378111335,2172,"DG_s11",8.89,9.5,10.922,10.922,10,10,28,4,1.422,"Right",28,4,24,0,24,0,-24,24,"10-10",-18,6
"213",4,"LOF1-LOF2",0.39158144555,0.30419678905,0.11974043005,0.19574704575,0.58319201175,0.4856477611,0.36849672205,0.42325411355,0.52156987055,0.44533015955,0.5651388789,2172,"DG_s11",8.89,9.5,10.922,10.922,10,10,28,4,1.422,"Right",28,4,24,0,24,0,-24,24,"10-10",-18,6
"214",4,"ROF1-ROF2",0.1264072035,0.0196187705,0.0558772605,-0.04276935045,-0.08602694295,-0.042519227,0.318259565,0.3853366505,0.1403215509,-0.0526872254,0.05003994855,2172,"DG_s11",8.89,9.5,10.922,10.922,10,10,28,4,1.422,"Right",28,4,24,0,24,0,-24,24,"10-10",-18,6
"215",4,"LTH7-LTH8",-0.0795138901,0.0490344445,0.234470067,0.109044073675,0.020252498175,0.110590912,0.2190718775,0.1285773798,0.0363117385,0.05888371825,0.197681968,2172,"DG_s11",8.89,9.5,10.922,10.922,10,10,28,4,1.422,"Right",28,4,24,0,24,0,-24,24,"10-10",-18,6
"216",4,"ROF2-ROF3",0.18884856775,0.15165417275,0.22399016439,0.33226126475,0.0307318132,0.04311304675,0.23263077155,0.12544997925,0.05544071675,-0.0323872178,0.17017547975,2172,"DG_s11",8.89,9.5,10.922,10.922,10,10,28,4,1.422,"Right",28,4,24,0,24,0,-24,24,"10-10",-18,6
"217",4,"LIN7-LIN8",0.2225182193,0.1461760004,0.129054,0.196712537,0.3437518364,0.366759271,0.2935836685,0.196633765,0.29657035862,0.2059550673,0.450500819,2172,"DG_s11",8.89,9.5,10.922,10.922,10,10,28,4,1.422,"Right",28,4,24,0,24,0,-24,24,"10-10",-18,6
"218",4,"LAC2-LAC3",-0.0903714911,0.06660408445,0.15046960155,-0.0284843075,-0.1308270725,0.309814529,0.2302671795,0.234459939,0.1948847745,-0.004467618,0.018684199,2172,"DG_s11",8.89,9.5,10.922,10.922,10,10,28,4,1.422,"Right",28,4,24,0,24,0,-24,24,"10-10",-18,6
"219",4,"LOF4-LOF5",0.0184034194,0.100485202,0.0682506725,0.2670867409,0.1341757479,0.1492151474,0.1530117034,0.2614285149,0.1363348099,0.1189326229,-0.03177455815,2172,"DG_s11",8.89,9.5,10.922,10.922,10,10,28,4,1.422,"Right",28,4,24,0,24,0,-24,24,"10-10",-18,6
"220",4,"LAC10-LAC11",-0.06019740155,-0.10609332305,0.134342951325,0.17850276045,0.13312817845,0.17067979775,0.26506185195,0.19878019945,0.30338353345,0.21061413345,0.22238247785,2172,"DG_s11",8.89,9.5,10.922,10.922,10,10,28,4,1.422,"Right",28,4,24,0,24,0,-24,24,"10-10",-18,6
"221",4,"LAC7-LAC8",0.01141688245,-0.0229545672,-0.06183326365,0.13753184535,0.08316863485,-0.03112111915,0.03603401385,-0.02955436315,-0.1105045997,-0.04068302665,0.02489050695,2172,"DG_s11",8.89,9.5,10.922,10.922,10,10,28,4,1.422,"Right",28,4,24,0,24,0,-24,24,"10-10",-18,6
"222",4,"RAM2-RAM3",-0.40034770836,-0.3685461393,-0.3968354925,-0.314282336,-0.2932663515,-0.427552941,-0.387817025,-0.5129541219,-0.295350767,-0.335975845,-0.335313272,2172,"DG_s11",8.89,9.5,10.922,10.922,10,10,28,4,1.422,"Right",28,4,24,0,24,0,-24,24,"10-10",-18,6
"223",4,"LHH7-LHH8",-0.108385173,-0.22768987115,-0.082663574,-0.1300815026,-0.11076996012,0.03429042738,-0.132833599,-0.1773712715,-0.0807592555,-0.00624847349999999,-0.077886113,2172,"DG_s11",8.89,9.5,10.922,10.922,10,10,28,4,1.422,"Right",28,4,24,0,24,0,-24,24,"10-10",-18,6
"224",4,"RAM3-RAM4",0.10308182615,-0.1233777471,-0.11537192985,-0.14896813985,0.04129926755,0.07224772605,0.1076925843,0.087218416585,0.19688040415,0.13014425165,0.10960299615,2172,"DG_s11",8.89,9.5,10.922,10.922,10,10,28,4,1.422,"Right",28,4,24,0,24,0,-24,24,"10-10",-18,6
"225",4,"LOF6-LOF7",0.17597178685,0.40352593685,0.12866301585,0.10243008585,0.12394785035,0.29788467085,0.3365080035,0.238760953,0.23771147735,0.10098592485,0.18449045085,2172,"DG_s11",8.89,9.5,10.922,10.922,10,10,28,4,1.422,"Right",28,4,24,0,24,0,-24,24,"10-10",-18,6
"226",4,"RHH4-RHH5",-0.07934377855,-0.0906309335,-0.21150916475,-0.09532990465,-0.16668871691,-0.096621328,-0.01585807635,-0.1610534823,-0.0094735655,-0.016544087,0.0338083325,2172,"DG_s11",8.89,9.5,10.922,10.922,10,10,28,4,1.422,"Right",28,4,24,0,24,0,-24,24,"10-10",-18,6
"227",4,"LHH6-LHH7",0.04200196635,0.18933374065,0.19255870365,0.1016482849,0.0943997759,0.29712239335,0.43866177235,0.03410894535,-0.00203851715,0.28036829185,0.19555652,2172,"DG_s11",8.89,9.5,10.922,10.922,10,10,28,4,1.422,"Right",28,4,24,0,24,0,-24,24,"10-10",-18,6
"228",4,"LIN9-LIN10",-0.0032135385,-0.05155274315,0.0922207125,0.131569284,-0.144821887,0.014480455,0.1929788785,0.0478236965,0.2790281315,0.280511788,0.3194232468,2172,"DG_s11",8.89,9.5,10.922,10.922,10,10,28,4,1.422,"Right",28,4,24,0,24,0,-24,24,"10-10",-18,6
"229",4,"LAC1-LAC2",-0.0107534878,-0.0738488398,-0.00851250905000001,0.0179064427,0.0448759696,0.0531874711,-0.1008715013,-0.1468592953,0.1829077672,0.0249857322,-0.0512749218,2172,"DG_s11",8.89,9.5,10.922,10.922,10,10,28,4,1.422,"Right",28,4,24,0,24,0,-24,24,"10-10",-18,6
"230",4,"RAM5-RAM6",-0.0784839864,0.1427801181,-0.1718024377,0.06724743495,0.0237743993,-0.04125824505,0.00236293529999999,-0.0997080631,0.0633341093,0.0195571758,0.0631682895,2172,"DG_s11",8.89,9.5,10.922,10.922,10,10,28,4,1.422,"Right",28,4,24,0,24,0,-24,24,"10-10",-18,6
"231",4,"LIN6-LIN7",0.1945197925,0.16011428925,0.15141152945,-0.0725318555,-0.0448363354,-0.0285712295,-0.0621531452,0.0157365995,0.21781167765,0.0965973055,0.0475835443325,2172,"DG_s11",8.89,9.5,10.922,10.922,10,10,28,4,1.422,"Right",28,4,24,0,24,0,-24,24,"10-10",-18,6
"232",4,"LPC5-LPC6",-0.14536426755,-0.1858184742,0.1027586528,0.4941891708,0.4767045693,0.3320391298,0.3883423978,0.23038121685,0.1028914406015,0.0602923463015,0.0779628121,2172,"DG_s11",8.89,9.5,10.922,10.922,10,10,28,4,1.422,"Right",28,4,24,0,24,0,-24,24,"10-10",-18,6
"233",4,"RIN3-RIN4",0.0346114075,-0.129812046,0.2170752395,0.14364370075,-0.10127395185,0.00651031825,-0.06216464325,0.043646798,0.1058959165,-0.12530306495,-0.0481050095,2172,"DG_s11",8.89,9.5,10.922,10.922,10,10,28,4,1.422,"Right",28,4,24,0,24,0,-24,24,"10-10",-18,6
"234",4,"LAC6-LAC7",-0.02262617645,-0.1759187642,-0.02196490845,0.3737193603,0.1128487093,0.0398992318,0.0411585138,0.1603446277,-0.0603313584,-0.0028365997,0.0779619833,2172,"DG_s11",8.89,9.5,10.922,10.922,10,10,28,4,1.422,"Right",28,4,24,0,24,0,-24,24,"10-10",-18,6
"235",4,"LIN3-LIN4",-0.2388048935,-0.0470569745,-0.0445070965,-0.027692231,-0.105037757,-0.0772572506,-0.046635072,-0.14252307,-0.202664581,-0.0380243735,0.080434736,2172,"DG_s11",8.89,9.5,10.922,10.922,10,10,28,4,1.422,"Right",28,4,24,0,24,0,-24,24,"10-10",-18,6
"236",4,"LOF7-LOF8",0.11927209215,0.16247120015,-0.129610845,-0.1172534995,-0.12063798285,-0.02072265335,-0.02703080935,0.0654178092,-0.07181128885,-0.25214479035,-0.08274907035,2172,"DG_s11",8.89,9.5,10.922,10.922,10,10,28,4,1.422,"Right",28,4,24,0,24,0,-24,24,"10-10",-18,6
"237",4,"RIN5-RIN6",0.33249274285,0.25576325385,0.20712774735,0.28510376885,0.26757100835,0.32684899018,0.27698280085,0.07539465085,0.23656501485,0.07366628205,0.08011816645,2172,"DG_s11",8.89,9.5,10.922,10.922,10,10,28,4,1.422,"Right",28,4,24,0,24,0,-24,24,"10-10",-18,6
"238",4,"LAC8-LAC9",-0.10514846805,-0.31682105095,-0.2140119843,-0.1748234793,0.0153773038,-0.0473043517,0.1515122703,-0.08623456395,-0.07680705395,-0.2771029359,-0.306772532,2172,"DG_s11",8.89,9.5,10.922,10.922,10,10,28,4,1.422,"Right",28,4,24,0,24,0,-24,24,"10-10",-18,6
"239",4,"LOF5-LOF6",0.0574141238,0.11472659,0.0541964674,0.2327810944,0.277543445,0.38930702025,0.3730641287,0.11946645145,0.145592882,0.14052906305,0.0717335985,2172,"DG_s11",8.89,9.5,10.922,10.922,10,10,28,4,1.422,"Right",28,4,24,0,24,0,-24,24,"10-10",-18,6
"240",4,"LOF2-LOF3",0.1967195935,0.1009815515,0.0666108225,0.17373361,0.503188072,0.587855196,0.393277431,0.2174363695,0.300095311,0.3547098105,0.309349781,2172,"DG_s11",8.89,9.5,10.922,10.922,10,10,28,4,1.422,"Right",28,4,24,0,24,0,-24,24,"10-10",-18,6
"241",4,"LTH6-LTH7",-0.12041514115,-0.10636322615,-0.045649164,-0.0031581165,0.006564508,0.000941128999999999,0.0395721325,-0.0529303745,-0.08002764605,-0.1084131635,-0.07890161975,2172,"DG_s11",8.89,9.5,10.922,10.922,10,10,28,4,1.422,"Right",28,4,24,0,24,0,-24,24,"10-10",-18,6
"242",4,"LAM3-LAM4",-0.0200500611,0.0475429129,0.0073818749,-0.0940888721,0.1142307499,0.2148607064,0.08640924935,-0.01683249585,0.1406233912,0.0210176551,0.052758180645,2172,"DG_s11",8.89,9.5,10.922,10.922,10,10,28,4,1.422,"Right",28,4,24,0,24,0,-24,24,"10-10",-18,6
"243",4,"LPC6-LPC7",-0.02581723265,0.0581627844,0.38055496135,0.79502846535,0.4138020494,0.38767231335,0.21886634435,0.45981581935,0.37984974935,0.16944822075,0.20680267785,2172,"DG_s11",8.89,9.5,10.922,10.922,10,10,28,4,1.422,"Right",28,4,24,0,24,0,-24,24,"10-10",-18,6
"244",4,"RTH5-RTH6",0.030768995,0.023067957,0.0588174955,0.058169086,0.260072777,-0.1094755435,-0.1370593532985,-0.0391753871485,-0.1490068465,-0.089371461,-0.038304006,2172,"DG_s11",8.89,9.5,10.922,10.922,10,10,28,4,1.422,"Right",28,4,24,0,24,0,-24,24,"10-10",-18,6
"245",4,"LIN2-LIN3",-0.26796541905,-0.1941140288,-0.04894386565,-0.09085662765,-0.14946689255,-0.02671715805,0.00573348945,-0.01486779905,-0.03015855105,-0.1118720584,-0.23696664805,2172,"DG_s11",8.89,9.5,10.922,10.922,10,10,28,4,1.422,"Right",28,4,24,0,24,0,-24,24,"10-10",-18,6
"246",4,"RTH6-RTH7",-0.01998626765,0.08550881215,0.29967439765,0.17196982065,0.24300145065,-0.00281899034999999,0.27605835395,0.26314216915,-0.04698681335,0.00612461715000001,-0.09979727135,2172,"DG_s11",8.89,9.5,10.922,10.922,10,10,28,4,1.422,"Right",28,4,24,0,24,0,-24,24,"10-10",-18,6
"247",4,"LPC1-LPC2",0.13099097875,0.03815039425,0.123932694,0.0694179425,-0.181431403,0.151919968,0.0559916612,-0.1019029723,-0.0199905513,-0.0556259875,-0.1007306775,2172,"DG_s11",8.89,9.5,10.922,10.922,10,10,28,4,1.422,"Right",28,4,24,0,24,0,-24,24,"10-10",-18,6
"248",4,"LTH8-LTH9",0.06676764263,0.27192967888,0.16673461278,-0.00382720292000001,0.12305299123,0.09969484343,0.37586280187,0.33365116238,0.08364133238,0.05853100638,0.20019193038,2172,"DG_s11",8.89,9.5,10.922,10.922,10,10,28,4,1.422,"Right",28,4,24,0,24,0,-24,24,"10-10",-18,6
"249",4,"RHH5-RHH6",-0.1882529147,-0.173880106,-0.2474275315,-0.1387539255,-0.1765479562,-0.362325632,-0.3539882725,-0.1175056754,-0.186346512,-0.268792901,-0.376252742,2172,"DG_s11",8.89,9.5,10.922,10.922,10,10,28,4,1.422,"Right",28,4,24,0,24,0,-24,24,"10-10",-18,6
"250",4,"LTH1-LTH2",-0.04491044675,-0.2512135005,0.01087354605,0.023926602,0.027473932,0.174516564,0.272482394,0.328215388,0.2629511765,0.1260927765,0.1548867435,2172,"DG_s11",8.89,9.5,10.922,10.922,10,10,28,4,1.422,"Right",28,4,24,0,24,0,-24,24,"10-10",-18,6
"251",4,"LIN8-LIN9",0.1986675066,0.1684418566,0.07055444795,0.114716187,0.1260651045,0.2993948355,0.2758516385,0.2340839715,0.344710088,0.1804784318,0.2507298346,2172,"DG_s11",8.89,9.5,10.922,10.922,10,10,28,4,1.422,"Right",28,4,24,0,24,0,-24,24,"10-10",-18,6
"252",4,"LAM1-LAM2",0.02591674141,-0.0796951067,-0.0584543157,0.1006902203,0.2135797528,-0.1566036442,-0.0598838402,-0.000657319400000023,0.1740857848,0.0635409568,-0.11132867695,2172,"DG_s11",8.89,9.5,10.922,10.922,10,10,28,4,1.422,"Right",28,4,24,0,24,0,-24,24,"10-10",-18,6
"253",4,"LIN5-LIN6",0.2556680675,0.0761482835,0.04314361,-0.0481178965,-0.12551276135,-0.125988291,0.0824653782,0.2795516135,0.096571748915,-0.0166556905,-0.0197373275,2172,"DG_s11",8.89,9.5,10.922,10.922,10,10,28,4,1.422,"Right",28,4,24,0,24,0,-24,24,"10-10",-18,6
"254",4,"LPC8-LPC9",0.21053524315,0.14760261665,0.29781820235,0.294405843,0.1977000225,0.05682495335,0.2515787624,0.3180592175,0.2587755393,0.3999375055,0.27912121675,2172,"DG_s11",8.89,9.5,10.922,10.922,10,10,28,4,1.422,"Right",28,4,24,0,24,0,-24,24,"10-10",-18,6
"255",4,"RTH7-RTH8",0.15215790271,0.0188322085,-0.065307304,0.1151695605,0.2313987534,0.122631779,0.10008691635,0.1921860915,0.3082386815,0.11914064048,-0.03512168905,2172,"DG_s11",8.89,9.5,10.922,10.922,10,10,28,4,1.422,"Right",28,4,24,0,24,0,-24,24,"10-10",-18,6
"256",4,"RIN8-RIN9",0.0129134097,-0.1126009284,-0.0726988686,-0.0289206749,-0.15246882345,0.0388341112,-0.08132762645,-0.11345453845,-0.049771923,0.0592548508,-0.00631626270000002,2172,"DG_s11",8.89,9.5,10.922,10.922,10,10,28,4,1.422,"Right",28,4,24,0,24,0,-24,24,"10-10",-18,6
"257",4,"RIN2-RIN3",0.07643965965,0.07423009115,0.16342374365,0.09019798665,-0.11123083285,-0.08666313405,-0.13527690735,-0.05240123335,0.05944786965,-0.09541502385,-0.08832708285,2172,"DG_s11",8.89,9.5,10.922,10.922,10,10,28,4,1.422,"Right",28,4,24,0,24,0,-24,24,"10-10",-18,6
"258",4,"RIN1-RIN2",0.2315878085,0.222443758,0.131162138,0.12499671575,0.16056649725,0.3427734205,0.3840731895,0.15656181415,0.2313384845,0.392759879,0.251470161,2172,"DG_s11",8.89,9.5,10.922,10.922,10,10,28,4,1.422,"Right",28,4,24,0,24,0,-24,24,"10-10",-18,6
"259",4,"LPC7-LPC8",-0.000587515499999997,0.0363088035,0.2633057155,0.6500819355,0.489250605,0.2714105256,0.1124181951,0.413736368,0.3066272245,0.093351801,0.3611726415,2172,"DG_s11",8.89,9.5,10.922,10.922,10,10,28,4,1.422,"Right",28,4,24,0,24,0,-24,24,"10-10",-18,6
"260",4,"RAM1-RAM2",-0.1016598035,0.043654405445,0.036717529,-0.06610271405,-0.10928913715,-0.01692193275,-0.2362056157,-0.042298226,0.099377119,-0.0366066075,-0.07986325435,2172,"DG_s11",8.89,9.5,10.922,10.922,10,10,28,4,1.422,"Right",28,4,24,0,24,0,-24,24,"10-10",-18,6
"261",4,"LTH5-LTH6",-0.15027499055,-0.00811121999999999,0.061158576,-0.00766299494999999,-0.075238095,-0.0557178175,-0.1349898465,0.028782001,0.0313246715,-0.040849849,0.0738031886,2172,"DG_s11",8.89,9.5,10.922,10.922,10,10,28,4,1.422,"Right",28,4,24,0,24,0,-24,24,"10-10",-18,6
"262",4,"LOF3-LOF4",-0.14342791,-0.144189963,-0.032305125,0.00140030249999999,-0.029131884,-0.0224614045,-0.136274215,0.1949206175,0.083839385,-0.0390411845,-0.12479727,2172,"DG_s11",8.89,9.5,10.922,10.922,10,10,28,4,1.422,"Right",28,4,24,0,24,0,-24,24,"10-10",-18,6
"263",4,"LAC3-LAC4",0.1031156615,0.310345305,0.366201405,-0.0303300424,-0.04261515005,0.23206260695,0.188778185,0.291215992,0.0956673705,0.1192873735,0.1998829,2172,"DG_s11",8.89,9.5,10.922,10.922,10,10,28,4,1.422,"Right",28,4,24,0,24,0,-24,24,"10-10",-18,6
"264",4,"RIN7-RIN8",0.0178329565,-0.1197000065,-0.0534514009,-0.1366309334,0.1725222832,0.0366451005,0.0324014685,0.1402528865,0.36370636,0.325319746,0.1383265157,2172,"DG_s11",8.89,9.5,10.922,10.922,10,10,28,4,1.422,"Right",28,4,24,0,24,0,-24,24,"10-10",-18,6
"265",5,"LIN2-LIN3",0.001118749755,0.10650634253,0.035256606105,0.006032198655,0.112194246655,0.057990786155,0.063130020655,0.143105571655,-0.028058107345,-0.135705072745,0.042803255755,2173,"DG_s11",11.922,12.531,13.968,13.968,10,10,22,6,1.437,"Left",22,6,16,0,16,0,-16,16,"10-10",-12,4
"266",5,"LOF5-LOF6",-0.20625217695,-0.3534303687,-0.308606738,-0.1419590517,-0.3663622002,-0.3493783337,-0.2731927372,-0.35850048025,-0.3549077012,-0.2433323277,-0.2232042982,2173,"DG_s11",11.922,12.531,13.968,13.968,10,10,22,6,1.437,"Left",22,6,16,0,16,0,-16,16,"10-10",-12,4
"267",5,"RHH4-RHH5",0.1116099175,0.0879529415,0.0802203935,0.0052048315,0.008377845,-0.0281156795,-0.055741713,-0.00870166985,0.112955332,0.0256199355,-0.0131445773,2173,"DG_s11",11.922,12.531,13.968,13.968,10,10,22,6,1.437,"Left",22,6,16,0,16,0,-16,16,"10-10",-12,4
"268",5,"RTH7-RTH8",-0.33735956965,-0.27684119561,-0.19756303175,-0.1414480115,-0.118216756,-0.2926928345,-0.1352928576,-0.282518833,-0.0230624035,-0.019413954,-0.143607267,2173,"DG_s11",11.922,12.531,13.968,13.968,10,10,22,6,1.437,"Left",22,6,16,0,16,0,-16,16,"10-10",-12,4
"269",5,"LHH6-LHH7",-0.066000614,-0.2607799075,-0.037591143,0.02822274855,-0.106394919,-0.0870811385,0.0151174225,-0.1683155845,-0.300332756805,-0.2585639505,-0.00803337885000001,2173,"DG_s11",11.922,12.531,13.968,13.968,10,10,22,6,1.437,"Left",22,6,16,0,16,0,-16,16,"10-10",-12,4
"270",5,"RAM2-RAM3",-0.20199714625,-0.21705312005,-0.13249596675,-0.1506961466,-0.19664891275,-0.02507142575,-0.01555150125,-0.25549492015,-0.1640194149,-0.10851717265,0.27048126745,2173,"DG_s11",11.922,12.531,13.968,13.968,10,10,22,6,1.437,"Left",22,6,16,0,16,0,-16,16,"10-10",-12,4
"271",5,"ROF2-ROF3",0.0699103243,0.1098179608,0.0949225568,0.0653836548,0.2561682948,0.2151803273,0.0938693838,0.0688628318,0.0344119578,0.0819219518,0.1540156003,2173,"DG_s11",11.922,12.531,13.968,13.968,10,10,22,6,1.437,"Left",22,6,16,0,16,0,-16,16,"10-10",-12,4
"272",5,"LOF4-LOF5",-0.05020090385,-0.0914050505,0.05658784125,-0.0854151185,0.066895418,0.0639210645,0.006271466,0.016565925,0.0127542508,0.000563042100000001,0.28869632335,2173,"DG_s11",11.922,12.531,13.968,13.968,10,10,22,6,1.437,"Left",22,6,16,0,16,0,-16,16,"10-10",-12,4
"273",5,"LTH1-LTH2",-0.37663933656,-0.412575891,-0.28591540308,-0.02896871258,-0.256306889,-0.054408035,-0.1956318827,-0.1823650902,-0.1279625005,-0.215475644,-0.25281579605,2173,"DG_s11",11.922,12.531,13.968,13.968,10,10,22,6,1.437,"Left",22,6,16,0,16,0,-16,16,"10-10",-12,4
"274",5,"LAC6-LAC7",-0.06887393295,-0.19746576615,0.02822337985,0.09464339585,0.12311706835,0.00155642995,-0.04501390455,0.06348376965,0.02427916295,-0.08573396095,-0.07293680045,2173,"DG_s11",11.922,12.531,13.968,13.968,10,10,22,6,1.437,"Left",22,6,16,0,16,0,-16,16,"10-10",-12,4
"275",5,"LTH7-LTH8",0.0992072098,0.0641923168,-0.1140691082,0.1390521493,0.1824415593,0.03298586685,0.06978602285,-0.0511057717,0.1919716718,0.3057708598,-0.0656578182,2173,"DG_s11",11.922,12.531,13.968,13.968,10,10,22,6,1.437,"Left",22,6,16,0,16,0,-16,16,"10-10",-12,4
"276",5,"LIN7-LIN8",-0.150161208,-0.14254888435,-0.19541851015,-0.2303835739,-0.373095341815,-0.09817661,-0.1048643725,-0.0989706315,-0.0457021545,-0.23447027435,-0.2260115105,2173,"DG_s11",11.922,12.531,13.968,13.968,10,10,22,6,1.437,"Left",22,6,16,0,16,0,-16,16,"10-10",-12,4
"277",5,"RAM6-RAM7",-0.0604189218,-0.2254531623,-0.2955513274,-0.1071390069,0.0476731283,-0.0825341778,-0.0931314988,-0.0237121233,-0.1212104623,-0.1927851123,0.0203368602,2173,"DG_s11",11.922,12.531,13.968,13.968,10,10,22,6,1.437,"Left",22,6,16,0,16,0,-16,16,"10-10",-12,4
"278",5,"LAM3-LAM4",-0.0832930532,-0.077494001,-0.058265116,-0.09176580425,-0.113221967,0.031368062,-0.00138628495,0.04530782955,-0.0736135995,-0.04121429,-0.045462936,2173,"DG_s11",11.922,12.531,13.968,13.968,10,10,22,6,1.437,"Left",22,6,16,0,16,0,-16,16,"10-10",-12,4
"279",5,"LIN3-LIN4",-0.01468488615,0.01472287,0.1386763885,0.019361919,0.207453892,0.23747255765,0.27309663565,0.1512063095,0.040091187,-0.0499894245,0.01419622915,2173,"DG_s11",11.922,12.531,13.968,13.968,10,10,22,6,1.437,"Left",22,6,16,0,16,0,-16,16,"10-10",-12,4
"280",5,"LOF3-LOF4",-0.5389054083,-0.61780467485,-0.50402603135,-0.3550226623,-0.35331818135,-0.3466862581,-0.25791151905,-0.1674089708,-0.4485409258,-0.44010751675,-0.51066579375,2173,"DG_s11",11.922,12.531,13.968,13.968,10,10,22,6,1.437,"Left",22,6,16,0,16,0,-16,16,"10-10",-12,4
"281",5,"RIN6-RIN7",0.3307060706,0.05303355274,0.0268472156,0.1883249531,0.6330439621,0.5106211516,0.2585842306,0.16555233445,0.27978361895,0.3655124271,0.2144098961,2173,"DG_s11",11.922,12.531,13.968,13.968,10,10,22,6,1.437,"Left",22,6,16,0,16,0,-16,16,"10-10",-12,4
"282",5,"ROF3-ROF4",-0.010972538,0.0430827045,0.162469301,0.1661677255,-0.09355872725,0.039517455,0.094663282,0.0929058754,0.0644870634,-0.0463831265,0.0671695745,2173,"DG_s11",11.922,12.531,13.968,13.968,10,10,22,6,1.437,"Left",22,6,16,0,16,0,-16,16,"10-10",-12,4
"283",5,"RAM3-RAM4",-0.2675336879,-0.1932395329,-0.1914469809,-0.2081993039,-0.2544148104,-0.1650980129,-0.2781345929,-0.3021228394,-0.2130570284,-0.2212507749,-0.0954827069,2173,"DG_s11",11.922,12.531,13.968,13.968,10,10,22,6,1.437,"Left",22,6,16,0,16,0,-16,16,"10-10",-12,4
"284",5,"ROF5-ROF6",0.121831320875,-0.038807026625,0.013523555875,-0.035292673125,0.027034609875,-0.077746768125,0.101742740375,0.259233988875,0.348014700875,0.259880869875,-0.028508105325,2173,"DG_s11",11.922,12.531,13.968,13.968,10,10,22,6,1.437,"Left",22,6,16,0,16,0,-16,16,"10-10",-12,4
"285",5,"LOF7-LOF8",0.20353495705,0.24303812035,0.198844522155,0.159007531655,0.09388331175,-0.04963244625,-0.01497213815,-0.02466836475,-0.20041596975,0.07253142425,0.03849768725,2173,"DG_s11",11.922,12.531,13.968,13.968,10,10,22,6,1.437,"Left",22,6,16,0,16,0,-16,16,"10-10",-12,4
"286",5,"LIN4-LIN5",-0.2998683086,-0.10409692,-0.107535039,-0.1118306205,-0.05559646905,0.033845257,-0.205479827,0.015629304,-0.0738768336,-0.177602728,0.129988913,2173,"DG_s11",11.922,12.531,13.968,13.968,10,10,22,6,1.437,"Left",22,6,16,0,16,0,-16,16,"10-10",-12,4
"287",5,"LPC5-LPC6",-0.0041546222,0.0758214178,0.2471485733,0.434323922,0.5555992675,0.3911713243,0.1635928343,0.15860713825,0.1839249713,0.5377661607,0.5613044588,2173,"DG_s11",11.922,12.531,13.968,13.968,10,10,22,6,1.437,"Left",22,6,16,0,16,0,-16,16,"10-10",-12,4
"288",5,"RIN8-RIN9",-0.16800040975,-0.23255940075,0.04099575675,0.06255031025,0.03401984825,-0.08373157505,-0.14958270605,0.13188541025,0.12359261375,0.04598198565,0.00392355200000001,2173,"DG_s11",11.922,12.531,13.968,13.968,10,10,22,6,1.437,"Left",22,6,16,0,16,0,-16,16,"10-10",-12,4
"289",5,"LPC7-LPC8",0.0025027198,-0.09384916435,0.26931806735,0.495650407,0.2793876967,0.14691569795,0.20216077315,0.2417628292,0.3309722622,0.421652726,0.2343799574,2173,"DG_s11",11.922,12.531,13.968,13.968,10,10,22,6,1.437,"Left",22,6,16,0,16,0,-16,16,"10-10",-12,4
"290",5,"RTH5-RTH6",-0.276220043,-0.524834541,-0.5135539326,-0.4781551175,-0.1760733,-0.46946777,-0.480158221,-0.618206351,-0.4566230013,-0.2970894843,-0.362245317,2173,"DG_s11",11.922,12.531,13.968,13.968,10,10,22,6,1.437,"Left",22,6,16,0,16,0,-16,16,"10-10",-12,4
"291",5,"RAM5-RAM6",0.06659416843,-0.12856525807,-0.15044588608,-0.10676052302,-0.16961789207,-0.194484265225,-0.21553823457,-0.23219764457,-0.01084212742,0.08579143508,0.13601972093,2173,"DG_s11",11.922,12.531,13.968,13.968,10,10,22,6,1.437,"Left",22,6,16,0,16,0,-16,16,"10-10",-12,4
"292",5,"RTH1-RTH2",0.01904968005,0.10966839775,-0.06501995525,-0.03993887395,0.03532707455,0.144787674235,0.20503944055,0.20829013705,0.12534434905,0.18211990015,0.14191641365,2173,"DG_s11",11.922,12.531,13.968,13.968,10,10,22,6,1.437,"Left",22,6,16,0,16,0,-16,16,"10-10",-12,4
"293",5,"LIN1-LIN2",-0.092651302535,-0.2158848965,-0.00658681400000001,-0.1091012133,0.1065865267,0.0778927065,0.142332973,-0.038584603,0.0667032405,0.1159260922,-0.1994349183,2173,"DG_s11",11.922,12.531,13.968,13.968,10,10,22,6,1.437,"Left",22,6,16,0,16,0,-16,16,"10-10",-12,4
"294",5,"LAM1-LAM2",0.113716148,-0.084745728,-0.001531606,0.1579327005,0.1208277644,0.2056903205,0.105490438,-0.037935574,-0.184085123,0.0504370275,-0.0493480655,2173,"DG_s11",11.922,12.531,13.968,13.968,10,10,22,6,1.437,"Left",22,6,16,0,16,0,-16,16,"10-10",-12,4
"295",5,"RIN9-RIN10",-0.14061565295,-0.210796433,0.0449560825,-0.1913127146,0.0708370599,0.03793011835,-0.072678071,-0.0418311976,-0.1036995016,-0.1060087695,-0.1088593835,2173,"DG_s11",11.922,12.531,13.968,13.968,10,10,22,6,1.437,"Left",22,6,16,0,16,0,-16,16,"10-10",-12,4
"296",5,"LHH7-LHH8",0.052672757,0.1376509578,0.0892016322,0.03861364775,0.09601788385,0.35399824935,0.0415959264,0.2071269484,-0.04732153665,0.15642368785,0.29499284235,2173,"DG_s11",11.922,12.531,13.968,13.968,10,10,22,6,1.437,"Left",22,6,16,0,16,0,-16,16,"10-10",-12,4
"297",5,"ROF4-ROF5",-0.0442608835,-0.057905015,-0.031559345385,-0.073838348535,0.0586598001,0.0733844751,-0.09954966255,0.11331354495,0.219431464,0.010023091,0.1317097745,2173,"DG_s11",11.922,12.531,13.968,13.968,10,10,22,6,1.437,"Left",22,6,16,0,16,0,-16,16,"10-10",-12,4
"298",5,"LPC6-LPC7",-0.062797815,-0.0766891135,0.280539548,0.43601756265,0.2791571255,0.0316137605,0.1728408485,0.169560692,0.1860747535,0.369780556,0.25999346175,2173,"DG_s11",11.922,12.531,13.968,13.968,10,10,22,6,1.437,"Left",22,6,16,0,16,0,-16,16,"10-10",-12,4
"299",5,"LPC1-LPC2",0.29539638305,0.0887125135,-0.135681532,0.022691363,0.276058611,0.236548995,-0.00996505605,-0.135394634,0.0509071205,0.0126807182,0.079598956,2173,"DG_s11",11.922,12.531,13.968,13.968,10,10,22,6,1.437,"Left",22,6,16,0,16,0,-16,16,"10-10",-12,4
"300",5,"RTH6-RTH7",0.2512378315,0.13779773465,-0.01990273255,-0.10202238155,0.1765916565,0.00819675,0.0966805435,0.008186949,0.0604102095,0.0905600605,-0.178119939,2173,"DG_s11",11.922,12.531,13.968,13.968,10,10,22,6,1.437,"Left",22,6,16,0,16,0,-16,16,"10-10",-12,4
"301",5,"LPC8-LPC9",-0.02842874945,-0.07847414845,-0.0385655915,0.156446078,0.0547516575,0.1563860295,-0.0162724745,-0.1535285405,-0.1875448375,-0.0429316375,0.0164420105,2173,"DG_s11",11.922,12.531,13.968,13.968,10,10,22,6,1.437,"Left",22,6,16,0,16,0,-16,16,"10-10",-12,4
"302",5,"LIN5-LIN6",-0.0736396165,-0.037078309,-0.120748231,-0.2041743825,-0.10688608,0.00142173885,-0.160391925,-0.1045317585,0.045625444,0.083363943,-0.136616471,2173,"DG_s11",11.922,12.531,13.968,13.968,10,10,22,6,1.437,"Left",22,6,16,0,16,0,-16,16,"10-10",-12,4
"303",5,"RAM1-RAM2",-0.0186482495,0.2474963835,-0.3329351475,-0.3467942005,-0.2076370435,-0.13077393285,0.14199132685,0.085883425,-0.16881002605,0.16473824695,1.577694211,2173,"DG_s11",11.922,12.531,13.968,13.968,10,10,22,6,1.437,"Left",22,6,16,0,16,0,-16,16,"10-10",-12,4
"304",5,"RIN5-RIN6",0.31605139495,-0.007964463,0.068976052,0.1896832895,0.667307654,0.5180952736,0.1781981595,0.13074887455,0.24005561,0.3299246931,0.35277802915,2173,"DG_s11",11.922,12.531,13.968,13.968,10,10,22,6,1.437,"Left",22,6,16,0,16,0,-16,16,"10-10",-12,4
"305",5,"LAC2-LAC3",-0.18141160765,-0.13591609115,-0.0655673006,-0.0108239677,0.01446377635,-0.01401091115,-0.1489184135,-0.1016399992,0.0371271263,-0.054329712,0.1051383195,2173,"DG_s11",11.922,12.531,13.968,13.968,10,10,22,6,1.437,"Left",22,6,16,0,16,0,-16,16,"10-10",-12,4
"306",5,"LAC9-LAC10",0.0515028428,-0.10959847675,0.0956310949,-0.0048997977,0.0067364018,0.1132345278,0.1659910158,0.15295221075,-0.0524744407,-0.0786751681615,0.17159353855,2173,"DG_s11",11.922,12.531,13.968,13.968,10,10,22,6,1.437,"Left",22,6,16,0,16,0,-16,16,"10-10",-12,4
"307",5,"ROF1-ROF2",-0.1238381058,-0.10742269205,-0.06822974555,-0.00296591674999999,-0.0734006761,-0.16042980745,-0.07021046845,0.04635989155,0.0655217745,-0.09234890385,0.0827682215,2173,"DG_s11",11.922,12.531,13.968,13.968,10,10,22,6,1.437,"Left",22,6,16,0,16,0,-16,16,"10-10",-12,4
"308",5,"LAC3-LAC4",-0.0261433178,-0.11685754845,0.07196962771,0.09784260505,-0.06852551615,-0.03295805875,0.067750351,0.1315688955,0.07076132015,0.06387714553,0.084611887,2173,"DG_s11",11.922,12.531,13.968,13.968,10,10,22,6,1.437,"Left",22,6,16,0,16,0,-16,16,"10-10",-12,4
"309",5,"LOF1-LOF2",-0.138473577,-0.09093540155,-0.23574890405,-0.0319651425,0.020333479,0.0629112095,0.108900367,0.037947519,0.0341560866,0.2016461846,0.2530820145,2173,"DG_s11",11.922,12.531,13.968,13.968,10,10,22,6,1.437,"Left",22,6,16,0,16,0,-16,16,"10-10",-12,4
"310",5,"RHH5-RHH6",-0.1945495855,-0.171042968,0.014694126,-0.2176929825,-0.1363252345,0.0015476465,-0.090757477,-0.111582614,-0.14635153655,-0.20464087345,-0.05469739735,2173,"DG_s11",11.922,12.531,13.968,13.968,10,10,22,6,1.437,"Left",22,6,16,0,16,0,-16,16,"10-10",-12,4
"311",5,"LTH6-LTH7",-0.0506956133,-0.2405805358,-0.23748234675,-0.0479346178,0.000216610700000001,-0.0549920844,-0.1555260228,-0.0228004308,-0.03547000735,-0.0398338283,-0.06359140005,2173,"DG_s11",11.922,12.531,13.968,13.968,10,10,22,6,1.437,"Left",22,6,16,0,16,0,-16,16,"10-10",-12,4
"312",5,"LAC7-LAC8",-0.126499007,-0.2767682512,-0.1718095297,-0.1293400995,-0.10940188905,-0.22292967955,-0.060425675,-0.0620703205,-0.022563835,-0.0249114655,-0.12236427,2173,"DG_s11",11.922,12.531,13.968,13.968,10,10,22,6,1.437,"Left",22,6,16,0,16,0,-16,16,"10-10",-12,4
"313",5,"RIN1-RIN2",-0.21118571185,0.01570463065,0.13225263635,0.20996995585,0.00825833815,-0.07495430885,-0.07210870035,-0.17984281985,-0.19098661935,0.00986696215000001,0.12506057915,2173,"DG_s11",11.922,12.531,13.968,13.968,10,10,22,6,1.437,"Left",22,6,16,0,16,0,-16,16,"10-10",-12,4
"314",5,"RIN2-RIN3",-0.0865841965,-0.0702974285,-0.0475716005,0.019725615,0.109205934,0.0446112665,0.26778085945,0.12454816895,0.2071758425,0.071304198,-0.1207907205,2173,"DG_s11",11.922,12.531,13.968,13.968,10,10,22,6,1.437,"Left",22,6,16,0,16,0,-16,16,"10-10",-12,4
"315",5,"RIN3-RIN4",-0.001078922,-0.0966221005,-0.0016690905,0.151641168,0.0717329421,0.1327220968,0.3515462905,0.1461564664,0.07259133435,0.07497287585,-0.0786505635,2173,"DG_s11",11.922,12.531,13.968,13.968,10,10,22,6,1.437,"Left",22,6,16,0,16,0,-16,16,"10-10",-12,4
"316",5,"RTH4-RTH5",-0.36225795395,-0.52301089805,-0.47431635475,-0.4781987635,-0.32499526325,-0.34273649215,-0.451900825,-0.39475645635,-0.5431216381,-0.484765221,-0.285387674,2173,"DG_s11",11.922,12.531,13.968,13.968,10,10,22,6,1.437,"Left",22,6,16,0,16,0,-16,16,"10-10",-12,4
"317",5,"LAM2-LAM3",-0.24354956245,-0.170445381,-0.0788722245,-0.18396137655,-0.23152909355,-0.21324175043,-0.044103588,-0.161558738,-0.25280937645,-0.09512489445,-0.20903934425,2173,"DG_s11",11.922,12.531,13.968,13.968,10,10,22,6,1.437,"Left",22,6,16,0,16,0,-16,16,"10-10",-12,4
"318",5,"LIN6-LIN7",-0.1245998305,-0.11806440905,-0.12594705885,-0.18047313405,0.09477311295,0.22094191345,0.00340117294999999,-0.050748212305,0.11331815695,-0.07267597905,-0.23321024555,2173,"DG_s11",11.922,12.531,13.968,13.968,10,10,22,6,1.437,"Left",22,6,16,0,16,0,-16,16,"10-10",-12,4
"319",5,"RIN7-RIN8",0.0325282705,-0.1010799641,-0.0518612055,-0.045185568,-0.011398283,-0.0643520105,0.155594219,0.2475900235,0.1346525735,0.031504193,0.13407415935,2173,"DG_s11",11.922,12.531,13.968,13.968,10,10,22,6,1.437,"Left",22,6,16,0,16,0,-16,16,"10-10",-12,4
"320",5,"LHH5-LHH6",0.142193525,0.113042775,0.27856072585,0.24168455825,0.18566458895,0.2965810243,0.2557497822,0.1531489585,0.220817848,0.4383925955,0.14455825665,2173,"DG_s11",11.922,12.531,13.968,13.968,10,10,22,6,1.437,"Left",22,6,16,0,16,0,-16,16,"10-10",-12,4
"321",5,"LAC1-LAC2",0.195400102,0.306292069,0.058638003,0.068691046,0.0995855071,0.0754783011,0.06077991565,0.05213389415,-0.0603424062,-0.114475063,0.0650890695,2173,"DG_s11",11.922,12.531,13.968,13.968,10,10,22,6,1.437,"Left",22,6,16,0,16,0,-16,16,"10-10",-12,4
"322",5,"LOF2-LOF3",0.116312509,0.0747214899,-0.0176887476,0.0858675335,0.18623945505,0.102270913,0.0924108536,0.29339210865,0.269801458,0.472086326645,0.59079187115,2173,"DG_s11",11.922,12.531,13.968,13.968,10,10,22,6,1.437,"Left",22,6,16,0,16,0,-16,16,"10-10",-12,4
"323",5,"LAC8-LAC9",0.015059353135,-0.06665768305,-0.000733163700000004,0.011206261,0.08929454545,0.0331056710735,0.0213973240735,0.0730507829,-0.04337226895,0.11866049645,0.11097408025,2173,"DG_s11",11.922,12.531,13.968,13.968,10,10,22,6,1.437,"Left",22,6,16,0,16,0,-16,16,"10-10",-12,4
"324",5,"LAC10-LAC11",-0.1882587095,-0.036289799325,-0.118952219825,-0.0975247705,-0.00456446150000001,0.0258669475,-0.042194333,0.128597367,0.2388240905,0.01389048765,0.2064983915,2173,"DG_s11",11.922,12.531,13.968,13.968,10,10,22,6,1.437,"Left",22,6,16,0,16,0,-16,16,"10-10",-12,4
"325",5,"LIN9-LIN10",-0.5654697642,-0.5085952247,-0.600741313,-0.501473703,-0.4552956951,-0.4736392436,-0.420847145,-0.34954355385,-0.4742309415,-0.69678953295,-0.5062320702,2173,"DG_s11",11.922,12.531,13.968,13.968,10,10,22,6,1.437,"Left",22,6,16,0,16,0,-16,16,"10-10",-12,4
"326",5,"LIN8-LIN9",-0.38003907805,-0.23836870885,-0.1934259206,-0.2217732662,-0.37288291205,-0.13111771155,-0.25119016805,0.09001100645,-0.03173393385,-0.16774906285,-0.0115398620035,2173,"DG_s11",11.922,12.531,13.968,13.968,10,10,22,6,1.437,"Left",22,6,16,0,16,0,-16,16,"10-10",-12,4
"327",5,"LTH8-LTH9",0.1083749684,0.163313827,0.016526540875,0.259908628375,0.1446756955,-0.19376472985,-0.0663793905,-0.13554559485,0.03303449325,0.4278466315,0.15085491305,2173,"DG_s11",11.922,12.531,13.968,13.968,10,10,22,6,1.437,"Left",22,6,16,0,16,0,-16,16,"10-10",-12,4
"328",5,"LOF6-LOF7",-0.03615396675,-0.06862190175,-0.12080928365,-0.28047174185,-0.28947788175,-0.32095433725,-0.29939535775,-0.38639732015,-0.37451806905,-0.253203385,-0.34517651875,2173,"DG_s11",11.922,12.531,13.968,13.968,10,10,22,6,1.437,"Left",22,6,16,0,16,0,-16,16,"10-10",-12,4
"329",5,"ROF6-ROF7",0.0365961885,-0.0498700725,-0.062586928,-0.16855915489,-0.0253694845,-0.1738649112,-0.0801335296,0.02466054,0.1767816815,0.1089003855,-0.1003823265,2173,"DG_s11",11.922,12.531,13.968,13.968,10,10,22,6,1.437,"Left",22,6,16,0,16,0,-16,16,"10-10",-12,4
"330",5,"LTH5-LTH6",-0.1350333639,-0.3428219359,-0.3648314024,-0.2807960064,-0.3163296054,-0.1850879469,-0.2712202434,-0.2869003599,-0.4481287369,-0.3276262539,-0.3099535759,2173,"DG_s11",11.922,12.531,13.968,13.968,10,10,22,6,1.437,"Left",22,6,16,0,16,0,-16,16,"10-10",-12,4
"331",6,"LPC1-LPC2",0.038862343905,0.125575421005,0.04025510522,0.14771466524,0.097685949955,0.259173315505,0.095378300005,0.027115989255,-0.111279462995,-0.093563932995,0.058234917605,2174,"DG_s11",14.984,15.593,16.828,16.843,10,10,30,15,1.235,"Right",30,15,15,0,15,0,-15,15,"10-10",-20,-5
"332",6,"LPC8-LPC9",0.081079565,-0.0477485022,0.0920051359,0.2037054166,0.1935888376,0.2417989091,0.269713234,0.194029826,0.143376261,0.182776331,0.2623540815,2174,"DG_s11",14.984,15.593,16.828,16.843,10,10,30,15,1.235,"Right",30,15,15,0,15,0,-15,15,"10-10",-20,-5
"333",6,"RIN2-RIN3",0.2469210536,0.25809371295,0.33387998845,0.19828699405,0.02562946705,0.26313604445,0.14694776395,0.11687869145,0.31265308445,0.26450086595,0.31176939515,2174,"DG_s11",14.984,15.593,16.828,16.843,10,10,30,15,1.235,"Right",30,15,15,0,15,0,-15,15,"10-10",-20,-5
"334",6,"LAC3-LAC4",0.02558105875,-0.15049392875,-0.11863576325,-0.2140634705,-0.01309610175,0.11911812995,0.25792932375,0.19253851005,0.16698168975,0.30224810025,-0.0593827752,2174,"DG_s11",14.984,15.593,16.828,16.843,10,10,30,15,1.235,"Right",30,15,15,0,15,0,-15,15,"10-10",-20,-5
"335",6,"RIN8-RIN9",0.0258659726,0.0543058243,0.09302815355,0.083082414,0.1231382561,0.3074135416,0.17442780455,0.14350537205,0.3686660736,0.17343175355,0.2408199736,2174,"DG_s11",14.984,15.593,16.828,16.843,10,10,30,15,1.235,"Right",30,15,15,0,15,0,-15,15,"10-10",-20,-5
"336",6,"LAC2-LAC3",0.183039402,0.089467216,0.147930402,0.0243809025,0.0880972575,0.118918199,0.2533324875,0.16685198,0.1295942931,0.2652262075,0.121590798,2174,"DG_s11",14.984,15.593,16.828,16.843,10,10,30,15,1.235,"Right",30,15,15,0,15,0,-15,15,"10-10",-20,-5
"337",6,"ROF5-ROF6",0.1215868697,0.0664937202,0.0217167702,0.2646254297,0.1483759187,0.1251327987,0.1526390247,0.1033703427,0.1912868097,0.1902461127,-0.0414367103,2174,"DG_s11",14.984,15.593,16.828,16.843,10,10,30,15,1.235,"Right",30,15,15,0,15,0,-15,15,"10-10",-20,-5
"338",6,"RHH5-RHH6",0.051617487,-0.1749657285,-0.086652437,-0.005577906,0.22115585405,0.07690593455,0.11557992405,0.076215258,0.120617632,0.2118649785,-0.026561734,2174,"DG_s11",14.984,15.593,16.828,16.843,10,10,30,15,1.235,"Right",30,15,15,0,15,0,-15,15,"10-10",-20,-5
"339",6,"ROF6-ROF7",-0.09289712945,0.04224074165,0.1000329225,0.3810923324,0.1469224774,0.0719576564,0.0638149424,0.0624575089,0.1105757104,0.1582540114,-0.1369049361,2174,"DG_s11",14.984,15.593,16.828,16.843,10,10,30,15,1.235,"Right",30,15,15,0,15,0,-15,15,"10-10",-20,-5
"340",6,"LPC6-LPC7",0.1255524957,0.0711717791,0.319181953,0.65665782265,0.40525627765,0.44893605415,0.42492687065,0.38243895515,0.29679470765,0.12830014815,0.09593713465,2174,"DG_s11",14.984,15.593,16.828,16.843,10,10,30,15,1.235,"Right",30,15,15,0,15,0,-15,15,"10-10",-20,-5
"341",6,"RTH6-RTH7",0.1483334014,0.20187383805,0.10458706895,-0.105158898,-0.00946352405000001,0.12959679264,0.2448693685,0.322602209,0.309157143,0.232196372,0.281707379,2174,"DG_s11",14.984,15.593,16.828,16.843,10,10,30,15,1.235,"Right",30,15,15,0,15,0,-15,15,"10-10",-20,-5
"342",6,"LAM2-LAM3",0.0572199105,-0.09117164645,-0.164509754,0.1428696975,0.220387474,0.221527784,0.32913388,0.094291502,0.04980885655,0.09442870105,0.183371236,2174,"DG_s11",14.984,15.593,16.828,16.843,10,10,30,15,1.235,"Right",30,15,15,0,15,0,-15,15,"10-10",-20,-5
"343",6,"LOF7-LOF8",0.098238453295,0.113429063,0.07334566962,0.099646577,0.0418010263,-0.090806783,0.005364084,0.083931612,-0.0992411905,0.0015471595,0.0375498855,2174,"DG_s11",14.984,15.593,16.828,16.843,10,10,30,15,1.235,"Right",30,15,15,0,15,0,-15,15,"10-10",-20,-5
"344",6,"LPC5-LPC6",-0.0176851088,-0.10948275605,0.2039169452,0.6300735042,0.3123635992,0.5545661812,0.0922162762,0.3512167792,0.2032930897,-0.02755736105,-0.0447803398,2174,"DG_s11",14.984,15.593,16.828,16.843,10,10,30,15,1.235,"Right",30,15,15,0,15,0,-15,15,"10-10",-20,-5
"345",6,"LOF4-LOF5",0.043911578,-0.163286192,-0.12057907705,-0.05580611605,-0.090546852,-0.07578685655,-0.1176266595,-0.058251597,-0.125407465,-0.13468540635,-0.1450953114,2174,"DG_s11",14.984,15.593,16.828,16.843,10,10,30,15,1.235,"Right",30,15,15,0,15,0,-15,15,"10-10",-20,-5
"346",6,"LOF5-LOF6",0.095288287,-0.0691583395,-0.2975079485,-0.2380156455,-0.0979109345,-0.112126092,0.1179081205,0.0095382925,-0.186519501,-0.09826889605,0.0556650985,2174,"DG_s11",14.984,15.593,16.828,16.843,10,10,30,15,1.235,"Right",30,15,15,0,15,0,-15,15,"10-10",-20,-5
"347",6,"LIN3-LIN4",-0.066123439,0.078735054,-0.012263262,0.1145545935,0.032247659,0.018014113,0.17294065505,-0.00648007945,0.0548088755,0.2482980605,0.29782987671,2174,"DG_s11",14.984,15.593,16.828,16.843,10,10,30,15,1.235,"Right",30,15,15,0,15,0,-15,15,"10-10",-20,-5
"348",6,"LIN5-LIN6",-0.127545085,-0.00135951600000001,-0.1783550598,-0.2690928015,-0.3086158995,-0.33831116,-0.3745533965,-0.2882811,-0.4138613374,-0.30628449155,-0.5059873705,2174,"DG_s11",14.984,15.593,16.828,16.843,10,10,30,15,1.235,"Right",30,15,15,0,15,0,-15,15,"10-10",-20,-5
"349",6,"LHH7-LHH8",0.1598250625,0.0081937495,0.0652514233575,0.181868941,0.15129772705,0.08387602355,0.009210909265,0.05701224955,0.0793881215,0.0858565915,0.043761787,2174,"DG_s11",14.984,15.593,16.828,16.843,10,10,30,15,1.235,"Right",30,15,15,0,15,0,-15,15,"10-10",-20,-5
"350",6,"LHH6-LHH7",-0.06544263945,-0.0791779895,-0.174496645,-0.22199382425,-0.1370479626,-0.03061004465,-0.2110550115,-0.101193727615,0.0741535925,0.1233304885,-0.1845176295,2174,"DG_s11",14.984,15.593,16.828,16.843,10,10,30,15,1.235,"Right",30,15,15,0,15,0,-15,15,"10-10",-20,-5
"351",6,"RTH7-RTH8",-0.0503341261,-0.02781603155,-0.09794518905,-0.20746025905,-0.12042677455,-0.09657823115,0.12487601745,0.04408575495,0.01537363245,-0.05729404855,-0.0322104507,2174,"DG_s11",14.984,15.593,16.828,16.843,10,10,30,15,1.235,"Right",30,15,15,0,15,0,-15,15,"10-10",-20,-5
"352",6,"LAC6-LAC7",-0.0688896945,0.08732492795,0.0808522533,-0.061805882,0.11141661864,0.0979771605,0.0309438188,0.0751351193,0.0493507822,-0.0541290415,-0.12281093145,2174,"DG_s11",14.984,15.593,16.828,16.843,10,10,30,15,1.235,"Right",30,15,15,0,15,0,-15,15,"10-10",-20,-5
"353",6,"RTH4-RTH5",-0.14790242035,-0.01385959105,-0.09379020285,-0.19165363485,-0.26843968435,-0.07148961235,-0.13596404785,-0.17825109385,0.12053377515,0.04889994715,-0.13387115635,2174,"DG_s11",14.984,15.593,16.828,16.843,10,10,30,15,1.235,"Right",30,15,15,0,15,0,-15,15,"10-10",-20,-5
"354",6,"RTH1-RTH2",0.138190462,0.040578434,0.1306019055,0.211374088,0.1695061591,0.27631319905,0.067644863,0.236379476,0.114987152,0.177260922,0.052947129565,2174,"DG_s11",14.984,15.593,16.828,16.843,10,10,30,15,1.235,"Right",30,15,15,0,15,0,-15,15,"10-10",-20,-5
"355",6,"LIN7-LIN8",0.01895524155,-0.01598657,-0.0021804401,3.25382500000002e-05,0.053697468,0.1783605635,0.1696268317,0.0155119855,0.3005890435,0.2519739447,0.01786296595,2174,"DG_s11",14.984,15.593,16.828,16.843,10,10,30,15,1.235,"Right",30,15,15,0,15,0,-15,15,"10-10",-20,-5
"356",6,"RIN5-RIN6",0.0843193551,0.0700596368,0.2240613798,0.3158987738,0.5917905723,0.2857809503,0.1665545748,0.1718099413,0.2422486742,0.2191058952,0.00980845335,2174,"DG_s11",14.984,15.593,16.828,16.843,10,10,30,15,1.235,"Right",30,15,15,0,15,0,-15,15,"10-10",-20,-5
"357",6,"RAM1-RAM2",0.1086844254,0.1328157179,0.2378081024,0.2326193864,0.3238369089,0.4298501194,0.3317764559,0.2767801199,0.3652524104,0.30618222235,-0.0453349946,2174,"DG_s11",14.984,15.593,16.828,16.843,10,10,30,15,1.235,"Right",30,15,15,0,15,0,-15,15,"10-10",-20,-5
"358",6,"LAC1-LAC2",0.09746617665,0.0602150345,-0.025815652,-0.0897454799,-0.048638644,0.0366607475,-0.1277580124,-0.0384481739,0.012655844,-0.02581721835,0.05603966015,2174,"DG_s11",14.984,15.593,16.828,16.843,10,10,30,15,1.235,"Right",30,15,15,0,15,0,-15,15,"10-10",-20,-5
"359",6,"LAC9-LAC10",0.0807946025,-0.0149385205,-0.02898596045,0.2269253879,0.1325710565,0.271204551,0.336987118,0.384082723,0.420295822,0.539350274,0.24200303885,2174,"DG_s11",14.984,15.593,16.828,16.843,10,10,30,15,1.235,"Right",30,15,15,0,15,0,-15,15,"10-10",-20,-5
"360",6,"LAC8-LAC9",0.112367724688,0.114570379188,0.117756281688,0.135581580758,0.112446233258,0.147975070688,0.086870561038,0.252885509188,0.243495158058,0.276313629888,0.277308984188,2174,"DG_s11",14.984,15.593,16.828,16.843,10,10,30,15,1.235,"Right",30,15,15,0,15,0,-15,15,"10-10",-20,-5
"361",6,"RAM3-RAM4",-0.08454403885,0.22448622065,-0.02724149365,-0.01235581915,0.0322160575,0.1193111682,0.10665567585,0.10841810525,-0.0338837615,-0.11337382885,-0.0297471165,2174,"DG_s11",14.984,15.593,16.828,16.843,10,10,30,15,1.235,"Right",30,15,15,0,15,0,-15,15,"10-10",-20,-5
"362",6,"RTH5-RTH6",0.05675942965,0.13259761265,0.1561330778,0.0165457323,-0.04970356025,0.01164690515,0.14285291685,0.17558326665,0.33920345015,0.131672599435,0.103381124135,2174,"DG_s11",14.984,15.593,16.828,16.843,10,10,30,15,1.235,"Right",30,15,15,0,15,0,-15,15,"10-10",-20,-5
"363",6,"RAM5-RAM6",0.1336572149,0.0253228099,0.06534860945,0.2983946939,0.2683861009,0.4593562919,0.3067675644,0.2895493764,0.2757665154,0.2107489404,0.0264346139,2174,"DG_s11",14.984,15.593,16.828,16.843,10,10,30,15,1.235,"Right",30,15,15,0,15,0,-15,15,"10-10",-20,-5
"364",6,"ROF3-ROF4",-0.01766596445,-0.09557299795,0.1414959964,0.11527496855,-0.12978827495,0.09306030555,-0.22271984445,-0.05692865695,-0.06057727845,-0.17146437495,-0.05573789395,2174,"DG_s11",14.984,15.593,16.828,16.843,10,10,30,15,1.235,"Right",30,15,15,0,15,0,-15,15,"10-10",-20,-5
"365",6,"LPC7-LPC8",0.0670059421,0.25051656705,0.32937851705,0.50201556655,0.25793083855,0.2540125536,0.33838330705,0.36036758205,0.39843558505,0.29101670955,0.1901691832,2174,"DG_s11",14.984,15.593,16.828,16.843,10,10,30,15,1.235,"Right",30,15,15,0,15,0,-15,15,"10-10",-20,-5
"366",6,"LIN1-LIN2",0.0846457282,0.239490282,0.445327806,0.364579645,0.23984559645,0.0820173378,0.104242198,0.2446087735,0.1678470465,0.07923824895,0.16302480295,2174,"DG_s11",14.984,15.593,16.828,16.843,10,10,30,15,1.235,"Right",30,15,15,0,15,0,-15,15,"10-10",-20,-5
"367",6,"LIN8-LIN9",0.1376345779,0.0129964154,0.1073665084,0.19764656905,0.05839438485,0.1423783906,0.1556778174,0.2569941479,0.5928823604,0.2023680154,-0.00812704609999999,2174,"DG_s11",14.984,15.593,16.828,16.843,10,10,30,15,1.235,"Right",30,15,15,0,15,0,-15,15,"10-10",-20,-5
"368",6,"ROF1-ROF2",0.1116607415,0.056379805,0.1239829545,0.10225738845,0.091179322,0.3509056645,0.2627928745,0.135388386,0.0446716675,-0.010784386,-0.15754661675,2174,"DG_s11",14.984,15.593,16.828,16.843,10,10,30,15,1.235,"Right",30,15,15,0,15,0,-15,15,"10-10",-20,-5
"369",6,"RAM6-RAM7",-0.11678243542,-0.080063799,-0.126831422,-0.2091666885,0.065311037,0.0964549835,-0.10596178695,-0.15553369495,0.0382444355,-0.00573610300000001,-0.1487259566,2174,"DG_s11",14.984,15.593,16.828,16.843,10,10,30,15,1.235,"Right",30,15,15,0,15,0,-15,15,"10-10",-20,-5
"370",6,"LOF3-LOF4",0.2330947167,0.0539165692,0.01956776385,0.1194708626,0.1755057936,0.2580941382,0.1983105957,0.0157120368,0.0486954723,0.14224380645,0.1027355342,2174,"DG_s11",14.984,15.593,16.828,16.843,10,10,30,15,1.235,"Right",30,15,15,0,15,0,-15,15,"10-10",-20,-5
"371",6,"RIN6-RIN7",0.0794581341,0.07925392045,0.25156102245,0.3692082921,0.6261752731,0.23556911466,0.12632516295,0.2091722608,0.2630919848,0.2219754596,0.0488357961,2174,"DG_s11",14.984,15.593,16.828,16.843,10,10,30,15,1.235,"Right",30,15,15,0,15,0,-15,15,"10-10",-20,-5
"372",6,"LIN6-LIN7",-0.02563593,0.0570494195,-0.21760500955,-0.2173817,-0.3055199035,-0.315598144,-0.2714155305,-0.2829389568,0.0979751315,-0.1149133955,-0.43222765,2174,"DG_s11",14.984,15.593,16.828,16.843,10,10,30,15,1.235,"Right",30,15,15,0,15,0,-15,15,"10-10",-20,-5
