"","trial","time_1","time_2","time_3","time_4","time_5","time_6","time_7","time_8","time_9","time_10","time_11","time_12","time_13","time_14","time_15","time_16","time_17","time_18","time_19","time_20","time_21","time_22","time_23","time_24","time_25","time_26","time_27","time_28","time_29","time_30","time_31","time_32","time_33","time_34","time_35","time_36","time_37","time_38","time_39","time_40","time_41","time_42","time_43","time_44","electrodes","X","SID","newround_time","choice_time","buttonpress_time","reveal_time","self_payoff","other_payoff","self_foregone","other_foregone","RT","side_chosen","self_var_payoff","other_var_payoff","ineq_var_abs","ineq_choice_abs","ineq_foregone_abs","ineq_disadvent","ineq_advent","ineq_disadvent_choice","ineq_advent_choice","ineq_choice","chose_equality","self_diff","other_diff","L_self","R_self","L_other","R_other"
"1",1,-0.441830198034383,-0.491782820152247,0.08167694238713,0.851936075799502,1.70549576525819,2.42666754416882,2.88354300252383,3.03086800199851,2.87179341092276,2.55262966354921,2.45354478939926,2.70151654071312,2.91657885559638,2.8554891052138,2.58712810092647,2.28335460181055,1.95300750754027,1.51706634746732,1.05974582296775,0.737904632837578,0.565901137074569,0.491549677003949,0.656261754137727,1.0815133624688,1.46632628445824,1.72382403751621,1.79122929471196,1.5473315512947,0.974203644546741,0.190367182129027,-0.470739537793069,-0.749418943423793,-1.0327185991639,-1.29007450157217,-1.11607162200537,-0.89397222014478,-1.02590605233948,-1.45697764904394,-1.47273360199684,-0.983729170384573,-0.590897774205734,-0.359748780836968,-0.298964435873648,-0.56180481326407,"LIN2-LIN3",2169,"DG_s11",-0.61,0,2.015,2.031,10,10,10,18,2.015,"Left",10,18,8,0,8,8,0,0,0,-8,"10-10",0,-8,10,10,10,18
"2",1,0.669471757460295,0.446346502231638,-0.147120682585674,-0.968697577106255,-0.677725749734831,0.422911400415938,1.19531865528616,1.58112646682962,1.62418347728024,1.37823120734773,0.975963661891265,0.575736741585867,0.124073073396312,-0.518624624327757,-1.21119571269702,-1.55477898593097,-1.67820134475015,-1.71365748623904,-1.17675997212008,-0.581960130103376,-0.225208447064755,0.0584008846556419,0.286805369356845,0.486634845411194,0.731087759855269,0.996342172247786,1.18427074160159,1.32061919128371,1.37995894516143,1.31825033677744,1.09206106865889,0.731638102457421,0.447973514646895,0.254772104417654,-0.119872998865251,-0.229299166132245,0.209209751315795,0.550718549934187,0.624659327344498,0.547631541795663,0.35286241632874,0.0390684558436458,-0.327014162486337,-0.462507218277269,"RIN1-RIN2",2169,"DG_s11",-0.61,0,2.015,2.031,10,10,10,18,2.015,"Left",10,18,8,0,8,8,0,0,0,-8,"10-10",0,-8,10,10,10,18
"3",1,-0.651759528619245,-0.176733959494124,0.199353524209524,0.629139963903844,1.2531576302875,1.81604889181385,2.15633620889678,2.23568487615766,2.03198538567987,1.64722144953442,1.37731136845837,1.45477860710442,1.63593119003865,1.69136533014059,1.65349212034554,1.52140931320276,1.20169919495177,0.632802828927284,-0.168448590692748,-0.964841810042348,-1.00760366938043,-0.347160728635929,0.266715499098655,0.632258145413836,0.789450804649922,0.882127292889976,0.94012735843682,0.893100512848873,0.781102116986077,0.693834625255644,0.614273602880203,0.424618780635592,0.0619455619129354,-0.343457595363519,-0.508505048093426,-0.386452742623213,-0.212914535995475,-0.121417343107721,-0.106789542780948,-0.184683252492773,-0.444109623971308,-0.996393371062563,-1.89389867273954,-2.88044144611929,"LIN3-LIN4",2169,"DG_s11",-0.61,0,2.015,2.031,10,10,10,18,2.015,"Left",10,18,8,0,8,8,0,0,0,-8,"10-10",0,-8,10,10,10,18
"4",1,0.483082519632121,0.345352487303975,-0.266136547994625,-0.562298458941472,-0.128217556994334,0.614325930782639,1.19071256852915,1.77214705660747,2.09653460869735,2.31770045487123,2.87954321612941,3.49797940568769,3.94003366289345,4.17274250245107,4.14816073263937,3.87826913516477,3.44751569484569,3.01447802048705,3.02496699482345,3.61186042756581,4.17123801250352,4.53522180199387,4.74683797865567,4.76541002446253,4.48846778509077,3.86859159887907,3.05445127291331,2.26314385791019,1.74902427095072,1.62898324265728,1.80239256873823,2.22501906791985,2.62171818640352,2.86845484979105,2.8159797840864,2.5404181817525,2.48058301653537,2.81175833734336,3.09758326109809,3.01756378908292,2.61378878821597,1.99720720510253,1.68041337131755,2.25243751851717,"LIN4-LIN5",2169,"DG_s11",-0.61,0,2.015,2.031,10,10,10,18,2.015,"Left",10,18,8,0,8,8,0,0,0,-8,"10-10",0,-8,10,10,10,18
"5",1,-0.555206271515421,-0.444096253366334,0.223876290921126,0.77542623396063,1.0280314774877,0.982099419473366,0.684542418880818,0.201313369438234,-0.443113935016224,-1.1441917976431,-1.39797311813962,-1.02539962471338,-0.673850843381519,-0.590829051839023,-0.713233458341708,-0.944478498137279,-1.11931268236162,-1.02731885760957,-0.831981702689707,-0.75283078453189,-0.827448930928197,-1.03527486051935,-1.19901904175065,-0.788371920024104,-0.203039502199191,0.173832392028519,0.264675379344924,0.0661037559364956,-0.357576397644894,-0.833695047425151,-1.19901904175065,-1.33421908079469,-0.940948044337897,-0.378441536108856,-0.0608705116085808,-0.0428541812223528,-0.303780910232388,-0.838190031196586,-1.49704396965347,-1.50273211374979,-1.22696728078272,-1.3728385429624,-1.75385157189178,-1.65814120372278,"LIN1-LIN2",2169,"DG_s11",-0.61,0,2.015,2.031,10,10,10,18,2.015,"Left",10,18,8,0,8,8,0,0,0,-8,"10-10",0,-8,10,10,10,18
"6",1,-0.0399418729160619,0.146547570342472,0.118581119195468,-0.22518681662188,-0.835043915717478,-1.42373939116863,-1.52636933064879,-1.36899964744249,-1.3325209324376,-1.22118625796405,-0.834679296988609,-0.424761115078526,-0.295312788934391,-0.534547701031496,-1.0078166714165,-1.54177631163734,-2.0729034100498,-2.32963162178749,-1.93817523516961,-1.5054110679456,-1.3769479122909,-1.62968019105501,-2.10452747079956,-2.60151823339739,-2.90529137105633,-2.37025782652624,-1.73924084853386,-1.22666438367165,-0.882639620643523,-0.781659185268358,-0.93360174648796,-1.30149321530221,-1.55783411119515,-1.58168014554936,-1.7314104659467,-2.03051052573489,-2.24394375428705,-1.97098870365798,-1.37506869417573,-0.798201583029826,-0.42952355380093,-0.308658511593153,-0.393940799979166,-0.556085926301282,"RIN3-RIN4",2169,"DG_s11",-0.61,0,2.015,2.031,10,10,10,18,2.015,"Left",10,18,8,0,8,8,0,0,0,-8,"10-10",0,-8,10,10,10,18
"7",1,0.117784852089258,0.195912217288726,0.0511681334390719,-0.364865202817052,-0.752941142133105,-0.459033987533772,0.10540897279405,0.560150511388636,0.874619410849238,1.05801737657368,1.11507883709657,1.01211141824526,0.657245743471092,-0.00957959408839137,-0.743642519202727,-1.0054084605917,-1.15236161576848,-1.38031953971196,-1.49312825884213,-1.52783986929535,-1.82097385204029,-2.43445766797806,-2.62149705336841,-2.46361565178795,-2.44360534091485,-2.68438773259183,-2.64166047861666,-2.458878321337,-2.81935175911959,-2.96200823329817,-2.05414057415313,-1.25227930299627,-0.758358518527528,-0.631253376798565,-0.921094181898759,-1.59344727121272,-2.54026504053084,-3.40612060869336,-2.79794723712588,-1.73656184630734,-0.789677268373996,-0.170327261837436,0.0854356299333752,0.0843883100242557,"RIN2-RIN3",2169,"DG_s11",-0.61,0,2.015,2.031,10,10,10,18,2.015,"Left",10,18,8,0,8,8,0,0,0,-8,"10-10",0,-8,10,10,10,18
"8",2,0.0191771777428338,0.167566399839313,0.0380563168212786,-0.224799894403426,-0.19479392491095,0.124849549863186,0.197975536529471,0.432530612347822,1.0852099482796,1.62707589144024,1.83337325265937,1.69136258734857,1.30566088928907,0.912611698797988,0.876763960599408,1.09255356118496,1.21925974423351,1.14529627895035,0.864831192453552,0.436860698971474,0.0700460836078927,0.125139811584541,0.683109667987033,1.33213599870062,1.77776433863286,1.98772423093198,2.02097717102686,1.95878484807029,1.90404738548806,1.92492861480308,1.90947116072493,1.66352355235312,1.11778588128848,0.506486132307716,0.550305743646929,1.09516064584962,1.58440480490083,1.90301794840114,2.02335719159683,1.99266887607742,1.86171355134341,1.70095301018946,1.61399984126458,1.62664492196775,"LIN1-LIN2",2170,"DG_s11",3.031,3.64,4.797,4.812,12,12,10,10,1.157,"Left",12,12,0,0,0,0,0,0,0,0,"Equal",2,2,12,10,12,10
"9",2,-0.0576336234917747,-0.0162216391153418,0.0827963067063102,-0.00894104409919549,-0.421506541952834,-1.12076603020028,-1.7233564162675,-1.65907761632633,-1.53161022741603,-1.68481685470373,-1.63258101838039,-1.15032087694903,-0.748904150767008,-0.639515624138127,-0.76800479168561,-0.922624657310359,-0.850314370686345,-0.697738698196691,-0.663763734910715,-0.753859308278808,-0.922827460044835,-1.23720263030994,-1.72915405910358,-2.13427853294745,-1.87479497317464,-1.11347499834507,-0.493948838528103,-0.0864780293358596,0.135698361398278,0.180290860018884,0.0648892240259755,-0.139498060089156,-0.340568330441901,-0.528703394635357,-0.826676838738108,-1.30452248494212,-1.88163900611133,-2.37588033942381,-2.44269493831006,-1.89930683869062,-1.38407511664407,-1.22807873168822,-1.22319170002511,-1.24121020552779,"RIN3-RIN4",2170,"DG_s11",3.031,3.64,4.797,4.812,12,12,10,10,1.157,"Left",12,12,0,0,0,0,0,0,0,0,"Equal",2,2,12,10,12,10
"10",2,-0.932643251608827,-0.124354310299825,0.417283465340189,0.639714096568467,0.521039195475989,0.0594200387376578,-0.62415151321904,-1.2353762432142,-1.48138542751525,-1.44319125183056,-1.47534745632494,-1.64182839295695,-1.87157487056558,-2.1310781766288,-2.43476504412526,-2.80575824322745,-3.00666841798144,-2.48639312587673,-1.52177192447266,-0.627154196440229,0.0611174390371829,0.474516862271486,0.539603339102072,0.221328743476132,-0.491142261383567,-1.60967771010278,-2.61316612544125,-2.15376913516101,-1.58754735369842,-1.35221193058234,-1.38104107670529,-1.61250958493039,-1.93920689249006,-2.27040531088207,-2.53036333127214,-2.63144280746695,-2.57524694257631,-2.56227537153682,-2.74011061929106,-3.02293898939795,-3.26550293815557,-3.48448028534038,-3.64866978565884,-3.76940515842553,"LIN2-LIN3",2170,"DG_s11",3.031,3.64,4.797,4.812,12,12,10,10,1.157,"Left",12,12,0,0,0,0,0,0,0,0,"Equal",2,2,12,10,12,10
"11",2,-0.700522491336415,-0.166427221074633,0.307203346370716,0.559746366040333,0.585101627983363,0.391082885796513,0.143818258232121,0.127470214753,0.274042395081691,0.432465999733592,0.421208507265836,0.155542093402588,-0.250789668295374,-0.514177156479734,-0.256778242713384,0.207260561212181,0.419395489303815,0.287245741747274,-0.065182744156143,-0.399124550529255,-0.652213532573715,-0.556044649518958,0.0401826816339863,0.415395241530563,0.450159815974102,0.184608379734478,-0.279088918869984,-0.37440517993824,0.0124927404943502,0.321681018167094,0.316666130187301,-0.0301083560204827,-0.533047838757806,-0.726056592367726,-0.435431246962796,-0.107866187273039,-0.0232575579239622,-0.0843178146852086,-0.0233046444454548,0.139746233762413,0.209426923692419,0.143818258232121,0.0267471205106826,0.0874376060708641,"LIN4-LIN5",2170,"DG_s11",3.031,3.64,4.797,4.812,12,12,10,10,1.157,"Left",12,12,0,0,0,0,0,0,0,0,"Equal",2,2,12,10,12,10
"12",2,0.0557947207596534,0.273030747068193,0.0903390638282886,-0.419164531656136,-0.716333460222216,-0.257816569645835,0.389473541250277,0.923058574059199,1.27037881937975,1.37247713219533,1.16528033704626,0.684347024691579,0.350846023317983,0.622509991014169,1.04945341137474,1.39930157571569,1.64138328287833,1.74475761795195,1.63669748266615,1.30572794361578,0.889475349455026,0.600494845962269,0.553948681067398,0.686328828781347,0.834211836138691,0.84532735004473,0.706904036906209,0.536675161647024,0.360366325714091,0.124582442999809,-0.134586276120686,-0.0974490725831156,0.349359708474699,0.755765566228067,0.92603708842346,0.88069656857297,0.691445306887994,0.429332599997405,0.125008475148011,-0.317587055680804,-0.962059854841918,-1.25934736636182,-0.807408047467215,-0.262268131563305,"RIN1-RIN2",2170,"DG_s11",3.031,3.64,4.797,4.812,12,12,10,10,1.157,"Left",12,12,0,0,0,0,0,0,0,0,"Equal",2,2,12,10,12,10
"13",2,0.103103059347344,0.0952209425848558,-0.00711245498705182,-0.191211546945146,-0.454959003794166,-0.900124897514072,-1.57109431799504,-2.06738552161529,-2.25057410594475,-2.30628806632848,-2.1265035728262,-1.62323247915154,-1.1140068970183,-0.888143079084511,-0.918165900827322,-1.02874472880711,-1.02681761114624,-0.864803006501177,-0.659754631153515,-0.424343920341874,-0.225032876452568,-0.228649260468345,-0.503882795277219,-0.915465737318433,-1.25018606465853,-1.50615643413309,-1.57728696392229,-1.35096864197004,-0.976771780542684,-0.723279865473016,-0.690032061302787,-0.852995863845045,-1.10738253780187,-1.21102833925719,-1.02022720547521,-0.717576284411495,-0.485162945502658,-0.403144733433196,-0.551097960932083,-1.00948355177353,-1.70847942994154,-2.33898145631545,-2.9094613914872,-3.19746842323551,"RIN2-RIN3",2170,"DG_s11",3.031,3.64,4.797,4.812,12,12,10,10,1.157,"Left",12,12,0,0,0,0,0,0,0,0,"Equal",2,2,12,10,12,10
"14",2,-0.888715850254503,-0.166706112228269,0.375039166547479,0.680382795935296,0.679672820754604,0.336251781117101,-0.214926610602312,-0.565131842407915,-0.535090313589683,-0.32634474849633,-0.0970052305421412,0.113942258208201,0.196610815987938,-0.0377122344221235,-0.662781377827107,-1.46855869092016,-1.71679118512843,-1.1543745606762,-0.611375928761145,-0.207282085338823,0.166219853340015,0.600507647758095,0.931289707499092,0.960584869130411,0.6419188344617,0.0213066976684715,-0.741062030345578,-1.31767392442277,-1.53432878097486,-1.51842216368509,-1.56106291052711,-1.77459992090064,-2.26924409080419,-2.71943158226168,-2.5390846399068,-1.90870219653918,-1.34526798119747,-1.05574927866864,-1.04019551887578,-1.28249086335486,-1.7779116391199,-2.40082644946939,-2.67442684543781,-2.22276361101843,"LIN3-LIN4",2170,"DG_s11",3.031,3.64,4.797,4.812,12,12,10,10,1.157,"Left",12,12,0,0,0,0,0,0,0,0,"Equal",2,2,12,10,12,10
"15",3,0.113072566040819,-0.106623964033917,-0.123455348630578,0.117006746623675,0.621859617715502,1.08327238378175,1.23059291110708,0.954158149521829,0.255474170076042,-0.35250092705915,-0.593369578702557,-0.986397031235235,-1.04981615491524,-0.130028882209727,0.751519420659385,1.21483879639195,1.18498481809887,0.761268358738498,0.255474170076042,0.359198303435424,0.69871738623203,0.738766742874358,0.593830739221696,0.521658115555628,0.443361509582866,0.232746924003916,0.0182199889505839,-0.0892562563872588,-0.00696878945250035,0.191757205221952,0.367362254894218,0.374606687745915,0.153188595124059,0.0239785335099043,0.471651130958399,1.09508571319453,1.47143222122902,1.49352775282401,1.15744585704628,0.699222422577321,0.877937671456063,1.52536438617447,2.09271382416075,2.43275038363653,"LIN4-LIN5",2171,"DG_s11",5.812,6.422,7.89,7.89,10,10,8,8,1.468,"Left",8,8,0,0,0,0,0,0,0,0,"10-10",2,2,10,8,10,8
"16",3,-0.778420979436556,-0.183434428711045,0.356324598325847,0.605530809821753,0.567961576828658,0.28570400464697,-0.100587289344972,-0.393951800059302,-0.532308962012157,-0.123479974743494,0.645510069205569,1.46333925942265,2.23158561801127,2.86435189289207,3.26991803661538,3.37561694722374,3.14547644015864,2.58578913800497,1.7121143384244,0.478331374345114,-1.23586010677809,-1.74664507724557,-0.404185952306625,0.264065349717798,0.563306484945432,0.576286520846933,0.269798162786222,-0.339307364230651,-1.01950234058658,-1.14672807238969,-0.559376904026369,0.132917331884494,0.73130107632983,1.17729646441677,1.47498116673995,1.57889129698005,1.43715975384088,1.08769454276571,0.624736380980478,0.117202220149823,-0.444543494043424,-0.995144619065387,-1.12061779097922,-0.74287726726034,"LIN2-LIN3",2171,"DG_s11",5.812,6.422,7.89,7.89,10,10,8,8,1.468,"Left",8,8,0,0,0,0,0,0,0,0,"10-10",2,2,10,8,10,8
"17",3,-0.381370891948846,-0.277697948193305,0.107021254709561,0.552047585432589,0.870815575595589,1.05975670449153,1.09723631795643,0.982220187194228,0.752940121059812,0.510362989299169,0.362377557113842,0.284499070053121,0.227788444883162,0.1590275944057,-0.0161159177254202,-0.313851468475425,-0.670467709033689,-1.02620583856572,-1.12680819944839,-0.805025674180948,-0.533291378874397,-0.525703884272053,-0.694369888242496,-0.974629207455216,-1.3029902677772,-1.3289999644367,-0.88625749551212,-0.465499380674975,-0.306337887071447,-0.416023591569076,-0.698516257255543,-1.02433483851228,-1.22643855943434,-1.32580294559537,-1.26098600198938,-0.898934450378733,-0.506323719446131,-0.401273865647097,-0.623619708517685,-0.923490383223637,-0.997447845696565,-0.944704661950005,-0.82368650275972,-0.628110981217088,"LIN1-LIN2",2171,"DG_s11",5.812,6.422,7.89,7.89,10,10,8,8,1.468,"Left",8,8,0,0,0,0,0,0,0,0,"10-10",2,2,10,8,10,8
"18",3,0.641579156232291,0.305279662165306,-0.2427871393292,-0.704071679068396,-1.07358847991257,-1.43133414427692,-1.15659858800688,-0.781786923611141,-0.723025232004987,-0.784983642792557,-0.580432288702889,-0.293733302414781,-0.137759958923514,0.0239153660039602,0.295962244196838,0.515373229616465,0.450463467513755,0.0199112330511824,-0.615945963893932,-0.849938620836812,-0.603209050851627,-0.386579534309746,-0.299846858574085,-0.36033460846137,-0.558919228932048,-0.76463706093339,-1.06900940404123,-1.38475583330066,-1.4806638730723,-1.36401751658508,-1.00720857118624,-0.456511199373747,0.0666642064229723,0.280732528808031,0.0977680463533623,-0.181409710500571,0.165424708276584,0.575909795018456,0.66493966314609,0.496643912331548,0.194134525834944,0.047557622633331,0.118785346831242,0.0783688759756487,"RIN2-RIN3",2171,"DG_s11",5.812,6.422,7.89,7.89,10,10,8,8,1.468,"Left",8,8,0,0,0,0,0,0,0,0,"10-10",2,2,10,8,10,8
"19",3,-0.416591515948145,-0.043414314871459,0.154855494901009,0.305150335918594,0.504544939693588,0.68166938358344,0.775891279564929,0.740174966875026,0.54980217699894,0.410911572880121,0.590257285297936,1.11184089388212,1.72127801285775,2.24105416756768,2.55954294848614,2.59121132252427,2.28323752777344,1.64320548327241,0.745765628241333,-0.00457959010205045,0.043013166571539,0.195699226627754,0.187392350048663,0.111083384534339,-0.0467645076383203,-0.31096983010897,-0.498094061158763,-0.472327661353814,-0.402304908696427,-0.493679042949648,-0.608027899000861,-0.252202372318617,0.422126494763065,0.839491543435544,0.922938397991745,0.682539991460153,0.0731725085303729,-0.628207956005239,-1.26335336384304,-2.35595636480947,-2.65004321636615,-1.33376477442701,-0.433179628781524,0.165127838559849,"LIN3-LIN4",2171,"DG_s11",5.812,6.422,7.89,7.89,10,10,8,8,1.468,"Left",8,8,0,0,0,0,0,0,0,0,"10-10",2,2,10,8,10,8
"20",3,-0.0921487145618638,0.105800757966243,0.107119584402039,-0.120771627806421,-0.603410090090327,-1.29070724811666,-2.16310092364286,-2.95567755458683,-3.26757864450481,-3.53268209752406,-3.96400409501879,-4.112963794405,-3.59502706265595,-2.88487448998512,-2.49934988783357,-2.44835802300588,-2.54604001127469,-2.33786959844361,-1.77063934324562,-1.28397485639404,-1.09870373209096,-1.22804953598924,-1.27500993071513,-0.700804446518626,0.0670066556601849,0.568990285780908,0.724928788151624,0.579454376856361,0.229517010752845,-0.185443500364268,-0.665691462915388,-1.30376909650046,-1.89188900767466,-1.92301415821763,-1.60877774489937,-1.41759769286974,-1.44786966560313,-1.73214257501572,-1.92100889372816,-1.57670936309735,-1.27262843099334,-1.2454819233695,-1.41497751602051,-1.61162217494949,"RIN1-RIN2",2171,"DG_s11",5.812,6.422,7.89,7.89,10,10,8,8,1.468,"Left",8,8,0,0,0,0,0,0,0,0,"10-10",2,2,10,8,10,8
"21",3,0.89684977014655,0.0612729171801742,-0.634353262032595,-0.323769425294129,0.419226273312842,0.931205188893352,1.17156969405532,1.23835364923569,1.1656913345783,0.89028713750736,0.367590444691721,-0.199002745890493,-0.356509833345238,-0.106681910656961,0.0282247696905564,0.0394875828402439,0.139769620331331,0.281863924206461,0.272330893099133,0.0337542150037162,-0.381609853800038,-0.937326001193065,-1.60211632329612,-1.95728187990795,-1.71747663858238,-1.53679022735682,-1.56266670415427,-1.0430502832339,-0.395195944958831,0.00332124438053594,0.141125150678258,-0.128448717562698,-0.759551338488844,-1.01213023515785,-0.0906488561780021,0.833467706721504,1.33353408078357,1.41990717674082,1.06785102350214,0.321059177995008,-0.497609531277888,-0.970851239010828,-0.846218949361051,-0.503883178493448,"RIN3-RIN4",2171,"DG_s11",5.812,6.422,7.89,7.89,10,10,8,8,1.468,"Left",8,8,0,0,0,0,0,0,0,0,"10-10",2,2,10,8,10,8
"22",4,-0.915487015986231,-0.0900461366932142,0.390812484569276,0.614720668110168,0.753517146677117,0.943025828222858,1.11947666373463,1.17825512539594,1.20528460065783,1.35769221459501,1.6046356391613,1.83116222595076,1.95444665082602,1.92734395982524,1.76505108809037,1.49996067862254,1.16327016334593,0.821072521372052,0.595106331065024,0.546008103481727,0.607127859102691,0.719996547386994,0.880628342195232,1.02195444725217,0.991721664064336,0.705610569929872,0.32994714058518,0.221786999616032,0.44885938659379,0.639886389968453,0.509943008510451,0.141415146073049,0.059430298248234,0.357906637035097,0.504784229520366,0.318304544493074,0.0107230814763746,0.126150809175858,0.653442411548209,1.10091344941412,1.42530524066756,1.79834523793098,2.14461120468707,2.31214628433196,"RIN2-RIN3",2172,"DG_s11",8.89,9.5,10.922,10.922,10,10,28,4,1.422,"Right",28,4,24,0,24,0,-24,0,0,24,"10-10",-18,6,28,10,4,10
"23",4,-0.760074072916915,-0.18296020877176,0.331140576670892,0.611893705017787,0.596058254256292,0.301814580855856,-0.263937653364854,-1.09536521078862,-2.04266762230257,-2.53381248380168,-1.83445062560581,-1.08746685226863,-0.637099759392587,-0.38291464101669,-0.330549990281114,-0.58592656829401,-1.14909190824114,-1.78160619483079,-1.88224987632098,-1.406532300264,-1.04856657613314,-0.847826513301376,-0.714022033423779,-0.730263157491406,-0.876749787640734,-0.681957670910719,-0.257315208363252,-0.0508781426985081,-0.188379985393308,-0.613241023849051,-0.77471492006224,-0.594329472295152,-0.551300612369097,-0.715798435084292,-0.985662831950127,-1.19241609311565,-1.37167310891492,-1.48778852668363,-1.53787787697142,-1.41732344293224,-1.12580999211994,-0.989671572771868,-1.10077731099327,-1.38609494701974,"RIN3-RIN4",2172,"DG_s11",8.89,9.5,10.922,10.922,10,10,28,4,1.422,"Right",28,4,24,0,24,0,-24,0,0,24,"10-10",-18,6,28,10,4,10
"24",4,0.36212370194921,0.0466677234317032,-0.277502576424036,-0.13128884895688,0.410505966473568,0.898026071402919,1.2117484347943,1.27174784947374,0.959560678164658,0.264157566017834,-0.552946610940648,-0.740828054836843,-0.350875166974088,0.0761856435505965,0.315446743379512,0.239193487508372,-0.164283656162176,-0.821610134078258,-1.42798402804856,-1.58735497946263,-1.84407848110755,-2.05148691706671,-1.4082477937879,-0.905547796476402,-0.704415652609079,-0.704384667435482,-1.10637005876087,-2.04031136538199,-3.11822091267177,-2.45920697897323,-1.46216539337458,-1.0286065360619,-0.871686660373857,-0.779083906968948,-0.447210676426794,-0.3097816688443,-0.606300982096659,-0.948989126721766,-0.976469444709494,-0.895519815284919,-0.774819366106472,-0.481600603174314,0.0360997681197528,0.558603906390656,"LIN2-LIN3",2172,"DG_s11",8.89,9.5,10.922,10.922,10,10,28,4,1.422,"Right",28,4,24,0,24,0,-24,0,0,24,"10-10",-18,6,28,10,4,10
"25",4,0.407300011136261,0.182845056894939,-0.227803966315358,-0.362341101715845,-0.140770527432828,0.074286052391848,0.150252362162723,0.25786354157173,0.454668750968303,0.514062378943832,0.436764187415525,0.63150619906974,1.10714356316292,1.50593691064545,1.6640000340355,1.53714326099552,1.09325957970711,0.339487777330726,-0.590546619863314,-0.96818470413281,-0.631361938793864,-0.356191050150999,-0.242868023016802,-0.279620288421729,-0.405119056519851,-0.519418498687234,-0.542379388908971,-0.435660939237938,-0.321287676849831,-0.399908550730093,-0.625869705632065,-0.512207643773161,-0.13207205585136,-0.0801857266621226,-0.535058503190026,-1.41059544793991,-2.01374207463723,-1.36795436411614,-0.518039213832679,-0.0599784511139294,-0.0316720995293736,-0.394576877444473,-0.675352017994495,-0.363840639373603,"LIN3-LIN4",2172,"DG_s11",8.89,9.5,10.922,10.922,10,10,28,4,1.422,"Right",28,4,24,0,24,0,-24,0,0,24,"10-10",-18,6,28,10,4,10
"26",4,-0.305357975658701,-0.14500809604943,0.147691298726608,0.302674772981522,0.26835171726324,0.299588186528046,0.568873742103229,0.822018741423134,0.809614002205333,0.517494724857626,0.141904641631021,0.00802551750520841,0.325317646260775,0.845913061622571,1.17179146232567,1.22115227260288,0.981721951373093,0.505854153665201,0.0429372363008813,-0.176939181164002,-0.353707089340221,-0.692080254748694,-1.09615263496743,-1.04921302762138,-0.632483051568007,-0.286121966167183,-0.116486247904948,-0.147005433597592,-0.437568470884282,-0.960621693187639,-1.22627092928899,-0.987903732733731,-0.735795600840136,-0.623078762485385,-0.489078128615331,-0.377947558813194,-0.27214636198106,0.364836001947575,1.02555613736736,1.28927242581422,1.1252502268018,0.709449685337335,0.504552352656882,0.541465719738095,"LIN4-LIN5",2172,"DG_s11",8.89,9.5,10.922,10.922,10,10,28,4,1.422,"Right",28,4,24,0,24,0,-24,0,0,24,"10-10",-18,6,28,10,4,10
"27",4,-0.205005444267195,0.00782396194158963,0.116580740020842,0.0806007423047621,-0.122956007477816,-0.481141525721915,-1.00982533434896,-1.7458328761181,-2.56839886770734,-2.91403923185062,-2.57652854959904,-2.09997720061479,-1.86792191358284,-1.86006649817477,-2.0106239486588,-2.29699854652903,-2.61476187392057,-2.74295645579485,-2.47604027133148,-2.1596995795305,-1.99326872813255,-1.80243181163589,-1.59801972217007,-1.62472475049246,-1.97910306583802,-2.45911739600546,-2.63832575505181,-2.44122956106072,-2.05241727847776,-1.59074696284099,-1.22796607686001,-1.08024072193176,-1.19587296509281,-1.55824243994147,-2.12034814796813,-2.74913063880923,-2.84039924192211,-2.444397006239,-2.08819323654249,-1.93748211498735,-1.97134572816134,-2.1926340468898,-2.45989818854952,-2.66381026170111,"LIN1-LIN2",2172,"DG_s11",8.89,9.5,10.922,10.922,10,10,28,4,1.422,"Right",28,4,24,0,24,0,-24,0,0,24,"10-10",-18,6,28,10,4,10
"28",4,0.550694638126592,0.310302489083718,-0.149500035393121,-0.711497091817186,-1.06954794246183,-0.936087605591633,-0.558596009819949,-0.189449897830725,0.234322436918974,0.63500950799078,0.912840307462961,1.12208343120407,1.28068018117555,1.33647200762497,1.2341985908486,0.878593718692368,0.250412587600259,-0.261786276214496,-0.227464297799488,-0.0625809476380166,0.0366649264108183,0.345127450749128,0.715460310793244,0.924275330128051,1.00309999150293,0.970460651231136,0.758277769599085,0.296444715274005,-0.0925122234847429,0.147239355116206,0.671281161258566,1.11571190866509,1.33464787614655,1.33501296873581,1.33861111888929,1.43397192817827,1.40731373408093,1.11400595732588,0.63565249145611,0.583586841787849,1.11109914422183,1.64262850562359,1.9208522010002,1.92598220370068,"RIN1-RIN2",2172,"DG_s11",8.89,9.5,10.922,10.922,10,10,28,4,1.422,"Right",28,4,24,0,24,0,-24,0,0,24,"10-10",-18,6,28,10,4,10
"29",5,-0.0531643237687032,0.0799846213693929,0.0598187156509251,-0.0866390132516148,-0.347702293195804,-0.670765738761508,-1.04440376433126,-1.51523761363299,-1.95472658214124,-1.84833403368431,-1.49479609133938,-1.23142401795913,-1.18312329853729,-1.39181369808652,-1.61555266472049,-1.35956165424933,-0.960856194060822,-0.792366882667,-0.840486131011199,-0.951257270167083,-0.898715713038142,-0.753600516456494,-0.754900988585241,-0.97686984602381,-1.44268936874697,-2.0468396708266,-2.37850134788416,-2.12408127937089,-1.83474581988293,-1.82439309868625,-1.95556301730355,-1.79638634741166,-1.5196470695964,-1.42661877768929,-1.52434785568891,-1.6903801883085,-1.85514755629732,-1.88300529472144,-1.74335445227232,-1.51496827754481,-1.42694753580846,-1.53784924669479,-1.44411000158524,-0.820609981489307,"LIN4-LIN5",2173,"DG_s11",11.922,12.531,13.968,13.968,10,10,22,6,1.437,"Left",22,6,16,0,16,0,-16,0,0,16,"10-10",-12,4,10,22,10,6
"30",5,-0.201104564171809,-0.263618958221706,0.0867276887856701,0.377995833607843,0.499990369037826,0.619410670233286,0.917833658504877,1.23566054940367,1.41931767177025,1.47462065132578,1.44960073551633,1.32689815107076,1.0543417484422,0.586670573802136,0.0420327905300102,-0.224687144093917,0.0250383203093865,0.361282352634102,0.549409822077063,0.713135296134396,1.02004961256568,1.31570607363349,1.4241813467377,1.32653043641319,1.0827722996472,0.747664377882675,0.389753102705525,0.23365245250627,0.26940727733278,0.222833189338978,0.0927509361605097,0.1956086669268,0.562631125095937,0.865308225007968,0.956812445928177,0.820463496758713,0.47578285310388,-0.0562327698088012,-0.675780428110816,-0.965180827599633,-0.517259923429229,-0.0254340541493185,0.229194540338867,0.241500304834199,"LIN2-LIN3",2173,"DG_s11",11.922,12.531,13.968,13.968,10,10,22,6,1.437,"Left",22,6,16,0,16,0,-16,0,0,16,"10-10",-12,4,10,22,10,6
"31",5,0.784472442874515,0.237289686826029,-0.280783813166931,-0.740978316533615,-0.877416090351792,-0.790546704360171,-0.918100846069217,-1.00480038671663,-0.950196875945796,-1.07320825140405,-1.26746788384009,-1.13041948876266,-0.691343814682744,-0.164391675698509,0.341349082554409,0.753017490706627,1.08206418748947,1.259786313777,1.14945500800897,0.617698548742741,-0.423182453495709,-1.12356765059978,-0.132287244934464,0.546619650460894,0.710192835974036,0.467779375124625,0.018356628912521,-0.223889521158187,-0.267209857682833,-0.383520803052372,-0.721838506663284,-1.18947278870128,-1.28030047868043,-0.908271166286857,-0.737713411333131,-0.712741376278265,-0.383486146413023,0.242047264236314,0.637256700431012,0.702934058362208,0.493497644365757,0.0425706651396158,-0.671826900485401,-1.39487048130336,"RIN1-RIN2",2173,"DG_s11",11.922,12.531,13.968,13.968,10,10,22,6,1.437,"Left",22,6,16,0,16,0,-16,0,0,16,"10-10",-12,4,10,22,10,6
"32",5,0.983154601691776,0.149317458758542,-0.703591213515482,-0.428880846934836,0.283173442791455,0.69632176254478,0.797660843753498,0.601512431411155,0.134881321796879,-0.51618536108669,-0.846943840259366,-0.588844796663317,-0.37248586066425,-0.495076202433911,-0.74975983104979,-0.63156191537443,-0.2646339216402,-0.0467924503198951,-0.0174087563325731,-0.206368582781174,-0.564059912594486,-0.493629752848642,0.381805440812306,1.12542221761384,1.43689308649186,1.34847878341108,0.961913594499002,0.486723684404605,0.153061882508462,-0.0692434959733443,-0.335758793753675,-0.562098704646637,-0.404670199163668,-0.0142318092002984,0.13819387353988,-0.0786834843026192,-0.263732129631217,-0.0586475280346281,0.109871248847648,-0.0904604083571794,-0.619931570779091,-1.03998219850033,-1.00422974828452,-0.974553445281078,"RIN2-RIN3",2173,"DG_s11",11.922,12.531,13.968,13.968,10,10,22,6,1.437,"Left",22,6,16,0,16,0,-16,0,0,16,"10-10",-12,4,10,22,10,6
"33",5,-0.406251265278381,-0.708155210937893,0.280081170075337,0.834325306140935,0.921722771284472,1.19136329237808,1.73780128424018,1.97181420484861,1.88910968071198,1.64223466848773,1.71060350472883,2.23249684260792,2.66068348227637,2.8009705794572,2.62520832080203,2.17482066779608,1.57681086806695,1.05762792077997,0.83581121618851,1.21091678718788,2.04647086777897,2.8208054653382,3.28184469831548,3.41277376085533,3.28094681725432,3.08097786803827,3.12466293384147,3.35121045227799,3.4466525669067,3.27231609322419,2.78078367239288,2.04720119651078,1.56550607601433,1.58014636791015,1.62974701309522,1.60065249692465,1.5796377250731,1.75919002783652,1.91042701271744,1.97352025509236,1.91091027249075,1.72644409076795,1.77701014177974,2.24041076724592,"LIN3-LIN4",2173,"DG_s11",11.922,12.531,13.968,13.968,10,10,22,6,1.437,"Left",22,6,16,0,16,0,-16,0,0,16,"10-10",-12,4,10,22,10,6
"34",5,-0.84292925804045,-0.30134473271118,0.349186034611369,0.79508795614026,1.2743492768286,1.979867264653,2.58309466560365,2.82245929020885,2.75439722740024,2.52717015088002,2.25119309549681,2.16816254658295,2.52112023285541,2.96442215704925,3.20399589889445,3.17060752043698,2.9006021893658,2.58035318531586,2.35773566692515,2.22268423151214,2.16698725521741,2.13085529214037,1.88418167032407,1.74384820164831,2.31814904711972,2.90375273834288,3.29708087225039,3.58412035195811,3.71879136494429,3.63600791929872,3.32022729308585,2.79740206710557,2.42354524456734,2.6969153686658,3.15954190690035,3.40702031992832,3.40335037025681,3.18668030560327,2.92731326665025,2.95178420406169,3.31187427110089,3.67258535457471,3.92072433378429,4.02078098844627,"LIN1-LIN2",2173,"DG_s11",11.922,12.531,13.968,13.968,10,10,22,6,1.437,"Left",22,6,16,0,16,0,-16,0,0,16,"10-10",-12,4,10,22,10,6
"35",5,0.0727240946241281,0.182280915401567,0.0654651654892628,-0.320470175514959,-0.864317088444233,-1.4890331777511,-2.02104447491285,-1.99929239888678,-1.36745866835845,-0.903883155036902,-0.753712934422795,-0.834551309052732,-1.10305217735329,-1.41645957116759,-1.38306096110858,-0.968869009856778,-0.654385760437838,-0.653079809751965,-0.910614262852577,-1.36548246803321,-1.70328090555863,-1.34156478139242,-0.755950176092383,-0.378033542577688,-0.228337498604006,-0.236353462804459,-0.375255452562714,-0.579564419512959,-0.71889617866254,-0.734439006907317,-0.701512188399476,-0.75236368909749,-0.956247650183278,-1.31910682489522,-1.7486612899098,-1.90945515534447,-1.67389876037712,-1.34240321524719,-1.18251734155063,-1.10549805528722,-0.828963999321948,-0.472078255396488,-0.218311665432104,-0.135666242808698,"RIN3-RIN4",2173,"DG_s11",11.922,12.531,13.968,13.968,10,10,22,6,1.437,"Left",22,6,16,0,16,0,-16,0,0,16,"10-10",-12,4,10,22,10,6
"36",6,0.136061811435033,0.201192182948088,-0.101531936540541,-0.235722057842581,-0.0285520523974743,0.00129709153121205,-0.418107514441663,-1.21579902023594,-1.3748235955449,-0.365457226942153,0.559176898276627,1.18633359067069,1.51009197243858,1.4785650574426,1.12158868170053,0.866805170148787,1.34813040477595,1.91152243927712,2.22461288968798,2.2665602682802,2.04058903438051,1.60250901845204,1.25751702667393,1.38736036264052,1.54326538942365,1.41707520238645,1.20149012782386,1.27086077656839,1.37100718412883,1.4362755821471,1.6828123599886,2.01478472334107,2.16574896169881,2.02671750684201,1.65378113335404,1.11554088582521,0.376898627465957,-0.570204794533687,-1.16042131189791,-0.403768986843943,0.549122432910435,1.24949440513019,1.60749487405031,1.66808478526638,"RIN1-RIN2",2174,"DG_s11",14.984,15.593,16.828,16.843,10,10,30,15,1.235,"Right",30,15,15,0,15,0,-15,0,0,15,"10-10",-20,-5,30,10,15,10
"37",6,0.79120637721112,0.21953015549976,-0.553675985100474,-0.457060547610403,0.0990496771151363,0.410106189849653,0.453941049254716,0.405906539031751,0.407685467292584,0.458404998790085,0.488808913700264,0.383895258852736,0.046255798724733,-0.597866559802767,-1.28942503746898,-1.25101533372748,-0.818727143592387,-0.527999589398698,-0.389440802607313,-0.278666305400984,-0.151554724682743,0.0377311340278226,0.533888814961458,1.11634429176029,1.53292348187794,1.74499272289306,1.77606707680296,1.68653459334678,1.59267159830207,1.55824522314587,1.5191144992962,1.38356429031985,1.09349443000865,0.643895644312799,0.085739622245411,-0.572013385921744,-1.31086318440711,-1.51501889408969,-1.19896911908739,-0.750597584154498,0.0151633806709786,0.677022889315859,1.00607975335635,1.11809275236866,"LIN2-LIN3",2174,"DG_s11",14.984,15.593,16.828,16.843,10,10,30,15,1.235,"Right",30,15,15,0,15,0,-15,0,0,15,"10-10",-20,-5,30,10,15,10
"38",6,0.0699270528678717,-0.474290956036962,-0.133350787079188,0.537714690248279,0.902319453660732,0.957574429892311,0.771085529878695,0.447172786754672,0.111315350160467,-0.0699032930323753,-0.0527446641393841,-0.115627246221703,-0.433067400661748,-0.701141272881113,-0.485441692760928,-0.180515549968883,0.0114519065705068,0.123683553817939,0.0898175993916706,-0.102176573878729,-0.344406079894709,-0.473374585671961,-0.45624984286428,-0.460417500188921,-0.423270553154901,-0.0932492805343497,0.337521705871676,0.610046053939968,0.65543953885444,0.447398604694262,0.0165422031535645,-0.42418364361429,-0.531932278020729,-0.446012155870251,-0.43164403206208,-0.478096318748199,-0.571746979694743,-0.718935730028241,-0.948301554712504,-1.20280702670308,-1.02706518735073,-0.433989484636716,0.133169545406471,0.471372913975086,"LIN1-LIN2",2174,"DG_s11",14.984,15.593,16.828,16.843,10,10,30,15,1.235,"Right",30,15,15,0,15,0,-15,0,0,15,"10-10",-20,-5,30,10,15,10
"39",6,0.259535294650604,0.239193582186649,-0.0239768901245707,-0.474751986712683,-0.76577662964308,-0.731778765584991,-0.665612364152381,-0.769176430767692,-1.01402279824122,-1.15319702387892,-0.857757952721626,-0.460286357772801,-0.175709496867785,0.0367864931688171,0.222910491933977,0.31708754473013,0.29893885201891,0.18774298687061,-0.0320478173467045,-0.335771431847048,-0.650539806024266,-0.969300132000541,-1.33141888780162,-1.50045696888305,-1.06981271224082,-0.516191286372744,-0.168616370231785,-0.0664339398562976,-0.16909610159143,-0.313262110919412,-0.375143721364971,-0.369079533974492,-0.347324621912973,-0.439320247804398,-0.750754497189082,-1.15117204849915,-1.21091203138012,-1.10068150374068,-1.23313275529264,-1.46236963383265,-1.2566824217925,-0.934767267763908,-0.813688859812054,-0.906231377195648,"RIN3-RIN4",2174,"DG_s11",14.984,15.593,16.828,16.843,10,10,30,15,1.235,"Right",30,15,15,0,15,0,-15,0,0,15,"10-10",-20,-5,30,10,15,10
"40",6,-0.0730207017726574,0.173168542807696,0.149257355172249,-0.249405196207285,-0.87778352531403,-1.18600463080706,-1.04006971496403,-0.646993882726164,0.127591261862829,0.882920618046867,1.34173942008272,1.5198204944948,1.48530425652618,1.26103674401819,1.0648281446107,1.27221990941919,1.64707796339857,1.82390264561382,1.8224266305857,1.92885852821772,2.15938107088703,2.23483109994408,2.04773706652439,1.57493330725043,0.957675522749014,0.863412963709679,1.24289447181021,1.60826352457454,1.84181955664767,1.91233175573162,1.82898872034269,1.61933806519129,1.26399182891095,0.667495167193652,-0.055424613274079,-0.572682907913123,-0.771180141861617,-0.884653372393459,-1.03748735472866,-0.996061313074367,-0.479019630220814,0.401446016369501,1.14356810107788,1.47925549230902,"RIN2-RIN3",2174,"DG_s11",14.984,15.593,16.828,16.843,10,10,30,15,1.235,"Right",30,15,15,0,15,0,-15,0,0,15,"10-10",-20,-5,30,10,15,10
"41",6,0.153422770274126,0.140535804560042,-0.016223855089299,-0.277734719744871,-0.625564480958204,-1.15006736374941,-1.28976656496321,-0.84530012512632,-0.508097433108265,-0.449027848815007,-0.648097139596127,-0.948066095790143,-0.779089375218566,-0.0620820655096725,0.587806789541091,0.997174218814823,1.18734506035828,1.15939576548866,0.913008442903662,0.468666965792998,-0.0867218349498238,-0.597557775492442,-0.749304087832146,-0.408081362266527,-0.329162106269695,-0.738115978221256,-1.58380425511135,-2.54087145716767,-2.40565776650565,-1.27367329995022,-0.214231688835726,0.552179285143319,0.920157896296445,0.885153804805357,0.483965653260638,-0.203113081933385,-0.975131889807084,-1.27334878924866,-1.12948575971937,-0.890601754107724,-0.728602957642929,-0.862040263613574,-1.36132478793887,-1.96145929670848,"LIN3-LIN4",2174,"DG_s11",14.984,15.593,16.828,16.843,10,10,30,15,1.235,"Right",30,15,15,0,15,0,-15,0,0,15,"10-10",-20,-5,30,10,15,10
"42",6,0.486072613798507,0.340283415293857,-0.0687415832142708,-0.757614445878097,-1.46675940803022,-1.70840684159917,-1.69210260304163,-1.68665272378458,-1.43767511725045,-0.865208139710317,-0.325449767829495,-0.0821799498333569,-0.0594212968195134,0.0579954171738422,0.42377142689403,0.768024307388394,0.917170064539546,0.874186986342394,0.663133475565303,0.29881766825352,-0.213052337225362,-0.837925004052975,-1.41882200443657,-1.55946051257568,-1.4441181347462,-1.56959663563407,-1.96671862843584,-2.49865847372507,-2.93975732528904,-2.94222254928802,-2.56769660329626,-1.87118490191083,-1.37682937879409,-1.34727558512615,-1.62744918719357,-2.00270575837629,-2.42447453724868,-2.58117073802045,-2.29703372098002,-1.828226149283,-1.43306483364019,-1.11740030663934,-0.790977093157966,-0.491235689754557,"LIN4-LIN5",2174,"DG_s11",14.984,15.593,16.828,16.843,10,10,30,15,1.235,"Right",30,15,15,0,15,0,-15,0,0,15,"10-10",-20,-5,30,10,15,10
"43",7,0.713386870873904,0.387698481781342,-0.160063702323757,-0.941021650331487,-1.80206774895448,-2.63499644264696,-3.66516131111252,-3.76115990451119,-2.85651762092543,-2.02725431624595,-1.51171925023542,-1.21769466731629,-1.0374220784349,-0.908282914693363,-0.753462535470755,-0.540303017938776,-0.368552762678894,-0.365025422160926,-0.527481825280365,-0.704331860018014,-0.760146920921674,-0.634276219825589,-0.424703773788135,-0.314945326861876,-0.394145840570484,-0.597647717429679,-0.781257830413844,-0.60530607592036,-0.167833580311228,0.13507319398404,0.143578761811035,-0.170892856119812,-0.769461296625218,-1.44853181288418,-1.67809105560324,-1.541735725473,-1.42252662708661,-1.35544967895911,-1.03070324438611,-0.46551107636178,-0.0709527052877519,-0.0157656251589042,-0.320839440322553,-0.837263808109837,"LIN4-LIN5",2175,"DG_s11",17.843,18.453,19.593,19.593,10,10,28,4,1.14,"Right",28,4,24,0,24,0,-24,0,0,24,"10-10",-18,6,28,10,4,10
"44",7,0.616178954220075,0.326045329527716,-0.18109495627536,-0.761129327472432,-1.08935948572839,-0.825885548500458,-0.145725795798778,0.50756522902093,0.873704686675753,0.958906245724531,0.859019327740151,0.662475840169845,0.412206329696746,0.163984893497174,0.0719217481231471,0.308159576922053,0.692699744736275,0.96768516156725,0.992357869208082,0.721628555015617,0.242974308109449,-0.0612745009761291,0.23508211028199,0.679565377276656,1.05281617672881,1.29525915772297,1.30476041684711,0.975038395816673,0.340299895707096,-0.266452588920191,-0.364566255997012,-0.416352702307762,-0.691883272872774,-0.839917852059545,-0.781118551772938,-0.590897168318112,-0.301095603470149,-0.0290357023672936,0.101125279247324,-0.0164256766569775,-0.300464834541937,-0.156296795297324,0.185624876553822,0.184175975912249,"RIN2-RIN3",2175,"DG_s11",17.843,18.453,19.593,19.593,10,10,28,4,1.14,"Right",28,4,24,0,24,0,-24,0,0,24,"10-10",-18,6,28,10,4,10
"45",7,-0.478888364779513,-0.121381519899261,0.222273339673324,0.377996545005447,0.311294896589461,0.390978797702264,0.823161905263992,1.25979774055386,1.48538785162542,1.45664019630146,1.34010475376613,1.53644906789302,1.94280468765895,2.1963073924963,2.23266516806758,2.07832573252851,1.73126518467381,1.12211135881006,0.281063392761272,-0.264385263591645,0.255606090946952,1.13137142981088,1.82133758544639,2.18501843466417,2.20277990700191,1.91505207738341,1.30863405834353,0.566121739251818,0.193053922303072,0.035320679465551,-0.163858809840657,-0.416972853573352,-0.666619090109703,-0.866638063692925,-0.807470423139111,-0.390787137692969,-0.107072434562832,-0.0424237359421866,-0.110986198325588,0.0279787676872427,0.425256305418621,0.659321866645188,0.500824753703663,0.0944840506293065,"LIN3-LIN4",2175,"DG_s11",17.843,18.453,19.593,19.593,10,10,28,4,1.14,"Right",28,4,24,0,24,0,-24,0,0,24,"10-10",-18,6,28,10,4,10
"46",7,-0.304151524958434,0.0187667935651703,0.164676228919054,0.120708502474211,-0.126721600904654,-0.382356219261517,-0.323080118651947,0.352309340590905,1.19689657981071,1.80563186256442,2.16415016593599,2.27029807011091,2.12097293634129,1.75028473659148,1.22066121657153,0.744465227628824,0.567762434301624,0.444564798973614,0.115644331314867,-0.240317871736438,-0.0736579059179627,0.268404934587104,0.314804079955935,0.121906414827609,0.0395950162424272,0.597538096790347,1.33005213203526,1.82971277958655,2.05469609825867,2.01128744955858,1.72261814848752,1.18559636123832,0.404637822974474,-0.555342503376662,-1.24544753696251,-0.507456120273068,0.562437286530738,1.34032036306059,1.73108775253291,1.7818351790326,1.5071312800059,1.01469759671434,0.711250120907128,0.852936436446217,"RIN3-RIN4",2175,"DG_s11",17.843,18.453,19.593,19.593,10,10,28,4,1.14,"Right",28,4,24,0,24,0,-24,0,0,24,"10-10",-18,6,28,10,4,10
"47",7,0.406956225465754,0.285251923707259,-0.0752695681466236,-0.616938581026387,-1.05755890937914,-1.02111999191077,-0.646612691013575,-0.310419537560957,-0.176817804135224,-0.209385757596348,-0.305121274038642,-0.359269354606941,-0.328339413866161,-0.271934994193007,-0.243829099410384,-0.201219469394609,-0.105709331965958,-0.0506299018665359,-0.155635566866479,-0.438201751633818,-0.852878896595969,-1.24385127597836,-1.36183469809501,-1.36713084171505,-1.64814349765052,-2.31631987270092,-2.75231197734361,-2.16572488626203,-1.4319370669462,-0.963350872381442,-0.732831029522181,-0.633560658279452,-0.613061956461786,-0.736650257589177,-0.9342422565213,-0.888711744209773,-0.540565602241813,-0.169733161457863,0.0175594619305475,-0.0567593352797022,-0.341163059313484,-0.672301357296677,-0.961665733606884,-1.12035981061817,"LIN1-LIN2",2175,"DG_s11",17.843,18.453,19.593,19.593,10,10,28,4,1.14,"Right",28,4,24,0,24,0,-24,0,0,24,"10-10",-18,6,28,10,4,10
"48",7,-0.246394737207879,0.0490146345284685,0.189204838714847,0.00817526396456536,-0.47865020929463,-0.920646595022021,-0.464960981835283,0.462871739078532,1.21350466290396,1.65833090831608,1.80280251600175,1.65177533703208,1.20062449793837,0.437652303154534,-0.519129887433913,-0.933188257015065,-0.542085885097489,-0.144654973232178,-0.102492614589801,-0.533337742950536,-1.4988659035897,-2.78359421120819,-1.95876796065055,-0.797461104972246,-0.153743344918437,0.118010981187918,0.0761153563557713,-0.216018650545871,-0.665434794182429,-1.14741658194768,-1.61059143056065,-1.67999545808711,-1.22384430935397,-0.780072156087137,-0.363836372858321,-0.0425770759680635,0.0934339112070539,0.0189231193097186,-0.205721244292695,-0.373360380001433,-0.0724785122151843,0.441321082698272,0.791058711188294,0.924972673132322,"RIN1-RIN2",2175,"DG_s11",17.843,18.453,19.593,19.593,10,10,28,4,1.14,"Right",28,4,24,0,24,0,-24,0,0,24,"10-10",-18,6,28,10,4,10
"49",7,0.298731402570215,0.14867720466605,-0.0935548538844877,-0.353853753351776,-0.598639173181354,-0.831584880665702,-0.978672973493273,-1.07000360106617,-1.29402595683943,-1.84210517214644,-2.5182039905478,-2.75909859106354,-2.81229177170742,-2.47300319848317,-1.87833369532424,-1.64969510412896,-1.76858419341408,-1.90881445007925,-1.77134046425046,-1.57437309759036,-1.57565912103293,-1.6806817329901,-1.59981374079136,-1.29466171845025,-1.10089962188095,-1.21068460081581,-1.54897117116726,-1.82562744055009,-1.79177896405542,-1.54915343672869,-1.31516839341324,-1.261459971706,-1.26349560452403,-1.08454450498868,-0.828920166544791,-0.726344444260327,-0.806086147150952,-0.928769049743364,-0.934088505280995,-0.938013273352192,-1.1073385873233,-1.31397901121107,-1.26945521031582,-1.14548237833165,"LIN2-LIN3",2175,"DG_s11",17.843,18.453,19.593,19.593,10,10,28,4,1.14,"Right",28,4,24,0,24,0,-24,0,0,24,"10-10",-18,6,28,10,4,10
"50",8,-0.787689673440735,-0.476446924436341,0.300430163798564,0.96370643407851,1.33283169957687,1.44789797239753,1.3000271450122,0.918625113924479,0.661551185354243,0.932975636713522,1.3190874816828,1.43555714109459,1.15152410238168,0.552098625954498,0.039919896238672,0.00756424200186778,0.316599705111569,0.791161279444166,1.06319611277334,0.998065536991572,0.79594943878157,0.920750674582038,1.17092528446974,1.07545802488451,0.469179292706787,-0.140544351071918,-0.254100992577248,-0.186054636494346,0.257352963086458,0.758807012610669,0.98901225576423,0.891495458618724,0.571920600787253,0.302993292780769,0.466388093900555,0.925486542053775,1.27148551153485,1.48791032859558,1.66677100350383,1.81528525325147,1.99124191766922,2.31786818274087,2.71858352160054,3.06157041593649,"RIN2-RIN3",2176,"DG_s11",20.593,21.203,22.312,22.312,10,10,4,4,1.109,"Left",4,4,0,0,0,0,0,0,0,0,"10-10",6,6,10,4,10,4
"51",8,0.237765954110808,0.12203164138897,-0.111788489913772,-0.248009105586004,-0.193658467402983,-0.0397781420355745,0.217957982636175,0.620384044885146,1.08654381568363,1.49328880694863,1.69314937704632,1.66014257849009,1.40695410844839,0.95214299705426,0.367589648017937,-0.147044966739649,-0.390405247568516,-0.522139681672115,-0.743448152768105,-0.616656054272788,-0.0302308599689898,0.48711298350757,0.772773105652474,0.847964773874089,0.968128805228007,1.19555224582805,1.34346084021614,1.27560441858254,0.953423992745947,0.548572657991864,0.36217748806736,0.28045025791959,0.0456919947155541,-0.0724715692320324,0.245856268623946,0.510452658691335,0.391382074669444,0.0436175741609546,-0.0554895518465415,0.217739915797825,0.610935155687214,0.851413602808083,0.772835701502389,0.335831865442293,"LIN4-LIN5",2176,"DG_s11",20.593,21.203,22.312,22.312,10,10,4,4,1.109,"Left",4,4,0,0,0,0,0,0,0,0,"10-10",6,6,10,4,10,4
"52",8,0.78521887110513,0.319147164531862,-0.22798936534584,-0.876376670291152,-1.39374401189584,-1.62623282740781,-1.35268680627254,-0.709595877957184,-0.127661533482981,0.360356554838306,0.766138254613709,1.06912274148498,1.21822203579356,1.16704080098548,1.00284590340236,0.985566855794008,1.09200522173501,1.15959339214326,1.07942354697035,0.6627554229001,-0.194144435340265,-1.38317510903945,-1.70130399088276,-0.910053406984989,-0.194557992945871,0.218121751517418,0.314398581952838,0.22373799092871,0.165444191393515,0.131735961035522,-0.173265044125796,-0.782276113620982,-0.951961669194629,-0.454523642548763,0.0405448658793715,0.414823664716372,0.680696020873603,0.740859868610425,0.549350513647108,0.157081484821979,-0.182727150337819,0.00662398511631235,0.449181322602041,0.801151605484646,"RIN3-RIN4",2176,"DG_s11",20.593,21.203,22.312,22.312,10,10,4,4,1.109,"Left",4,4,0,0,0,0,0,0,0,0,"10-10",6,6,10,4,10,4
"53",8,0.225668453813439,0.194138487359709,-0.0270722090311395,-0.392734732142008,-0.859806718717357,-1.1086859780052,-0.73049787435642,-0.275692882161,0.0856326085155903,0.801032598717001,1.50198011659096,1.85760820214684,1.83793231211721,1.50015878833955,0.8688804487198,0.146027769299678,0.0364373217910448,0.233074451413851,0.0985254353146754,-0.220999769293405,-0.197559110634565,0.256424304827709,0.63139435211737,0.740125971912024,0.58076416498313,0.185487446652916,-0.425793255364461,-1.09357196876099,-1.52688534992481,-1.75581076348122,-1.37348734211863,-0.833493672885336,-0.591930073009646,-0.737973239724942,-1.18812631827418,-1.54541424208039,-1.6322793056455,-1.49155277590177,-1.23612323146673,-1.35039295346931,-1.67943848024068,-1.45883089669497,-0.924175356996471,-0.542765114559561,"LIN3-LIN4",2176,"DG_s11",20.593,21.203,22.312,22.312,10,10,4,4,1.109,"Left",4,4,0,0,0,0,0,0,0,0,"10-10",6,6,10,4,10,4
"54",8,0.101910723487793,0.0558042142844641,-0.00347639785325171,-0.154238539919008,-0.261012456855296,-0.135212631400327,0.197302035261226,0.527453437667656,0.785939200130549,0.994879287075207,1.10928963825295,0.978887570842511,0.519843409436742,-0.0321836858010318,-0.0512318807717254,0.204636019201557,0.297623857457669,0.0624383406265956,-0.267983533254954,-0.050623176278954,0.440423957830577,0.734544156817634,0.705817772840685,0.310870261752616,-0.458843089579776,-1.45936849601692,-1.58010420154209,-0.567510066879981,0.192700769730626,0.505349355988262,0.409970829099967,-0.0259800380237802,-0.581380746047255,-0.596233794229681,-0.207520186363492,0.0912531180423741,0.248955396997129,0.263506263733193,0.151820793872062,0.175598796131293,0.590429705925695,1.11151292009618,1.49316674244439,1.66549284182774,"RIN1-RIN2",2176,"DG_s11",20.593,21.203,22.312,22.312,10,10,4,4,1.109,"Left",4,4,0,0,0,0,0,0,0,0,"10-10",6,6,10,4,10,4
"55",8,0.382610910627601,0.285207932790776,-0.0600549522484197,-0.607763891169958,-1.2970369101813,-1.98639129250255,-2.14649487970306,-1.90811267306137,-1.73996507702268,-1.3465073056556,-0.565983983222125,0.123916493423431,0.496543123036201,0.563294601256743,0.324052854993246,-0.217992609672621,-0.822543375662715,-0.896249391624249,-0.756730157093143,-0.97177007740225,-1.5275408159018,-1.92773525146876,-1.70090329692577,-1.17706368215563,-0.615996049616404,-0.16977237894003,0.0115481299108779,-0.139757469847551,-0.59565704469488,-1.1303367342903,-1.45104315599521,-1.62285939063727,-1.89955150048803,-2.40956558410926,-3.00283889089849,-3.08923647623776,-2.38837571488291,-1.67440058817859,-1.23644366140602,-1.08300137789782,-0.989405162421901,-0.759024226571348,-0.569295084856858,-0.640346266631972,"LIN1-LIN2",2176,"DG_s11",20.593,21.203,22.312,22.312,10,10,4,4,1.109,"Left",4,4,0,0,0,0,0,0,0,0,"10-10",6,6,10,4,10,4
"56",8,-0.323773207518856,-0.0577354829199468,0.112122629810049,0.269386060628751,0.410623044228094,0.408023596856781,0.178429269225271,-0.188099372847516,-0.491759729407203,-0.452535777120001,0.132358485749418,0.696142232790541,0.891667125320064,0.756904279787864,0.343701954604617,-0.256661643239768,-0.92711378520395,-1.6035970328012,-2.20624005265283,-2.03327771676222,-1.01912986119888,-0.115809069911901,0.469745558891312,0.714257471839822,0.638707401231816,0.267259405762967,-0.349591328665793,-1.10886020382528,-1.60446786757693,-1.53477143934267,-1.50854290215971,-1.875765991006,-2.42430996719037,-2.54130075088375,-2.58480184702528,-2.55036544773997,-2.27973656898317,-1.98148881400526,-1.79530195370818,-1.71180622859875,-1.86062227264814,-2.18298587857751,-2.11420933233488,-1.576820995156,"LIN2-LIN3",2176,"DG_s11",20.593,21.203,22.312,22.312,10,10,4,4,1.109,"Left",4,4,0,0,0,0,0,0,0,0,"10-10",6,6,10,4,10,4
"57",9,-0.5982859295029,-0.360002043557278,0.234233438185269,0.724054534874908,0.970222717211373,0.944872817315845,0.666957404566226,0.271317688398602,0.171288912691619,0.475223670132751,0.75456049754945,0.816929223318516,0.674061706392406,0.427396085163357,0.244547912004085,0.207971976467807,0.29875122340512,0.437261452969476,0.528899731609267,0.483176579139862,0.240517306892881,-0.13658805548606,-0.337051799377479,-0.225710233887181,-0.136347728640395,-0.189837733910766,-0.262236033335236,-0.331705955296359,-0.469964500148473,-0.664962508877059,-0.813972608058439,-0.813416760109929,-0.709831308820485,-0.606135113096187,-0.475936675866935,-0.269621692292439,-0.0051845712095151,0.279317890275374,0.497748669065436,0.571084770076478,0.457866232385157,0.107415600280449,-0.457297664119706,-0.886731069523183,"LIN3-LIN4",2177,"DG_s11",23.328,23.937,25.031,25.047,10,10,13,7,1.094,"Right",13,7,6,0,6,0,-6,0,0,6,"10-10",-3,3,13,10,7,10
"58",9,-0.533021167272643,-0.108996278426966,0.183146114683845,0.458871331015764,0.70253410724748,0.812397978922275,0.713112029379539,0.391682213128247,-0.114804330201032,-0.655341898094825,-0.994467409244828,-1.17011039837791,-1.3441270215746,-1.40563293682474,-0.99852803406878,-0.485322044286312,-0.24336813450774,-0.274721491675759,-0.454488445102204,-0.467348584563355,-0.20541157923503,0.0313145238450492,0.0344746570245764,-0.214028479974782,-0.581863791535353,-0.831926770741795,-0.881997124160145,-0.882967589736262,-1.01567633644495,-1.31836686990053,-1.81104346305735,-2.52946142960536,-3.51795527774108,-3.84315554233873,-2.75387367009709,-1.8805896988201,-1.39798781424706,-1.21095755207489,-1.23074041139321,-1.35517183910204,-1.39512104140361,-1.13252662666858,-0.629139081289637,-0.198760505456271,"LIN2-LIN3",2177,"DG_s11",23.328,23.937,25.031,25.047,10,10,13,7,1.094,"Right",13,7,6,0,6,0,-6,0,0,6,"10-10",-3,3,13,10,7,10
"59",9,-0.731369820395077,-0.301446900579389,0.282377253187509,0.750439467786961,1.03022326298489,1.15027746007317,1.16226865043933,1.10070823477374,0.952040304617716,0.671598937497764,0.295508210355296,0.00395342722058167,-0.0868456439220022,-0.0763704953029531,-0.116469107407928,-0.350230195932902,-0.813945340336192,-1.21115950588531,-0.874045712614565,-0.527138026843732,-0.636086836739779,-1.16097711805334,-1.53105722921676,-1.57197384361803,-1.66397357784625,-1.2817458671668,-0.659589909465012,-0.311595417089888,-0.209348371780436,-0.248256744650641,-0.312324267447533,-0.319117653499839,-0.189725506367811,-0.00613525145610794,0.150131213642251,0.341990986256535,0.521471075826136,0.547081686950161,0.359818258205522,0.0408842675898597,-0.172923677662318,-0.131713158895174,0.000827500626694899,0.104731549144741,"RIN1-RIN2",2177,"DG_s11",23.328,23.937,25.031,25.047,10,10,13,7,1.094,"Right",13,7,6,0,6,0,-6,0,0,6,"10-10",-3,3,13,10,7,10
"60",9,-0.456440778792507,0.0364026237891455,0.234401046036163,0.185637108967196,0.0577703573918829,-0.130158143251414,-0.468162267618784,-0.619152644763467,-0.198396012814998,0.294304067129866,0.557350478292097,0.590061347549273,0.461871493625791,0.246278289500662,0.0535471485894181,-0.0833040261518345,-0.207131269052708,-0.350368772531917,-0.49726955738589,-0.596315536593027,-0.64215934864578,-0.694033578060145,-0.862988043639723,-1.24194852430008,-1.71981975682339,-2.09393593488786,-2.42416982131865,-2.76717659944237,-2.47804753948859,-1.99368731810892,-1.66990967962384,-1.44914842521715,-1.32877438974108,-1.32760645768207,-1.45292153999403,-1.71015784591165,-2.11687455180476,-2.70816995352152,-3.23013261429703,-2.71861426081316,-1.8415496033183,-1.18300598866663,-0.731510730832579,-0.468868532214849,"LIN1-LIN2",2177,"DG_s11",23.328,23.937,25.031,25.047,10,10,13,7,1.094,"Right",13,7,6,0,6,0,-6,0,0,6,"10-10",-3,3,13,10,7,10
"61",9,-0.00627054717935493,0.0440354403793179,0.0479850849062586,-0.0857499781062199,-0.450383709601235,-1.03011459587458,-1.46477497922777,-1.05707370138153,-0.238401874257951,0.388426772171973,0.796270915207513,1.01911803544744,1.03767384881709,0.825081772216189,0.417802796221805,0.102448970789307,0.299954474542668,0.763653118400049,1.04789758004137,0.963195272945674,0.499502771160568,-0.0458789942607911,0.0527041584702523,0.385040330083982,0.42479167225259,0.0252436756056635,-0.777749739923719,-1.58783565558054,-1.90019555630737,-1.39372856138817,-0.738148742557938,-0.250875627287263,0.153010756830366,0.446920359494863,0.648986756161229,0.799332298281156,0.860732781559872,0.771384099081004,0.497093380258992,0.0653822274048359,-0.329236701525453,-0.34154859597975,-0.089819725993701,0.0670259442709398,"RIN2-RIN3",2177,"DG_s11",23.328,23.937,25.031,25.047,10,10,13,7,1.094,"Right",13,7,6,0,6,0,-6,0,0,6,"10-10",-3,3,13,10,7,10
"62",9,-0.568308773099764,-0.203526683925203,0.189118049673453,0.582717407351511,1.25006583111848,1.98602279382461,2.46844813595044,2.59313282788936,2.37850298532516,1.93677815924433,1.51703851933723,1.42891268987628,1.59452383781453,1.69072813703127,1.57981375059252,1.33320585509522,1.04144443429538,0.660414583516715,0.220937593186685,-0.135150980435585,-0.365566594526911,-0.367628521784125,0.114855385341691,0.577517048942008,0.700456109888831,0.62694362883966,0.879452011192734,1.33411593031769,1.56184119038417,1.590502514566,1.47068145432803,1.33351976770453,1.35574359429855,1.21407973084052,0.71559191450409,0.117813136216535,0.0792459758058719,0.402893062417958,0.651763475987108,0.823238025804073,0.92670413567056,0.936041885052717,0.858879058111535,0.653003940079683,"LIN4-LIN5",2177,"DG_s11",23.328,23.937,25.031,25.047,10,10,13,7,1.094,"Right",13,7,6,0,6,0,-6,0,0,6,"10-10",-3,3,13,10,7,10
"63",9,-0.371736657188242,0.0442448737957699,0.20403674334306,0.123455040049411,0.0525791023391635,0.306891730578631,0.721722535550688,1.01406766587942,1.15930057278462,1.19939230206474,1.19839513800225,1.23737115074416,1.29750344744975,1.25831149129093,1.01353867115058,0.517000377580448,-0.156660212911807,-0.67049874446697,-0.786397649239723,-0.841441223324276,-1.07349176643201,-1.24332453300052,-0.968641138974034,-0.446785238108173,-0.0288900608349314,0.153059307578598,0.077896910323453,-0.237895890528045,-0.672517049080843,-0.872862684752349,-0.681333844002514,-0.384817560032786,-0.183895149463313,-0.185092549537956,-0.356891994747422,-0.430574031742355,-0.233619590432617,-0.0469877626349913,-0.143726415540304,-0.613541205204702,-1.42276035493394,-1.77149864098943,-1.16704638273459,-0.556050812090344,"RIN3-RIN4",2177,"DG_s11",23.328,23.937,25.031,25.047,10,10,13,7,1.094,"Right",13,7,6,0,6,0,-6,0,0,6,"10-10",-3,3,13,10,7,10
"64",10,0.00490204118624327,-0.14829686191942,-0.0500649128711821,0.193459733604357,0.637196435511502,1.21982090768185,1.73547134226008,2.17307113701835,2.50494249733719,2.69926324853493,2.7316100866025,2.57371388920913,2.21415088174379,1.68958315528143,1.11813996308872,0.794354419333828,0.960254768651248,1.27258478191925,1.4179346024206,1.32399868551747,1.13093475042972,1.17742201139707,1.7316255900295,2.37691370518375,2.83280804877095,3.02528434704256,2.96142947195776,2.71654310003083,2.40213341833617,2.21293051897029,2.25210091048442,2.22057674616131,1.87504254014424,1.25293805044478,0.848156095799446,0.98753493566327,1.26349737995368,1.40353858693387,1.57634749711899,1.84452420607764,2.07102323294312,2.12300485715323,2.08656298770862,2.10858707568492,"RIN1-RIN2",2178,"DG_s11",26.047,26.656,27.703,27.718,10,10,10,26,1.047,"Left",10,26,16,0,16,16,0,0,0,-16,"10-10",0,-16,10,10,10,26
"65",10,-0.395280489751743,-0.100050437269639,0.200675091395022,0.294655835626363,0.159102010869683,-0.0367405095473252,0.151977147717757,0.713357673261017,1.20912379004039,1.42028129769241,1.34543004146274,1.11844033156106,0.928610207067221,0.861231067317542,0.785548891461811,0.659953490453564,0.601256937458372,0.526582145459557,0.34496705284193,0.210698468882878,0.162129519181775,0.184151701268938,0.508287061537452,0.908050870105802,1.07207412285021,0.906195744352818,0.449590377165228,-0.114432230446079,-0.489567684473853,-0.561956608976109,-0.61701208163346,-0.627496406901216,-0.358153548987605,0.0792318466097299,0.298587393009225,0.284400001217968,0.187104423878024,0.0815521260841159,-0.0712408887180835,-0.300829747478584,-0.5279845897635,-0.598321436603396,-0.534133917896867,-0.561318019932058,"LIN3-LIN4",2178,"DG_s11",26.047,26.656,27.703,27.718,10,10,10,26,1.047,"Left",10,26,16,0,16,16,0,0,0,-16,"10-10",0,-16,10,10,10,26
"66",10,0.45172295773683,0.0734424088064118,-0.161399150931877,-0.363766215611363,-0.717803306627371,-0.798994783748081,-0.249665711493238,0.27076687662001,0.498395109160501,0.381645411029945,-0.151124511107466,-0.863303773848579,-1.13057501945135,-0.938771140295254,-0.72288115050261,-0.825447059559209,-0.744864344879017,-0.0467531732553557,0.756498686384394,1.32052855641047,1.60291235419194,1.68139327235607,1.67897713136671,1.63410622119908,1.40100021565899,0.826788890413638,0.0696198510887616,-0.279415008068152,0.0197506934045739,0.505589855350987,0.754231073343598,0.692275643988426,0.29877900210571,-0.439102675428102,-1.14050861609673,-1.66712015622165,-1.50989988576614,-0.662271370656298,0.191314686352998,0.803645464810096,1.16917236816731,1.28290214040929,1.15889395324827,0.948883256436279,"RIN3-RIN4",2178,"DG_s11",26.047,26.656,27.703,27.718,10,10,10,26,1.047,"Left",10,26,16,0,16,16,0,0,0,-16,"10-10",0,-16,10,10,10,26
"67",10,0.0614535311983335,-0.211727498752538,-0.295422432970549,0.445696400524754,1.33259860408348,1.97871994181041,2.39267839127578,2.59950781069207,2.66984999209384,2.68783835464069,2.63192967340592,2.44170748130014,2.1621923202901,2.02592886590151,2.06378896965521,1.98679032499187,1.6100256445069,0.896351665144692,-0.126555685937801,-0.941744409693844,-0.500394915089566,0.18131508935707,0.643795637740751,0.969339567008245,1.08188850725027,0.972960643269564,0.773481125466079,0.638189285457247,0.632879032383977,0.637781804093881,0.399526270052092,0.041854825610268,0.127472295351503,0.547415366876582,0.727235582362784,0.666624936298419,0.724399124538092,1.25447319570633,1.80404563105286,2.03956530310499,1.94318910323844,1.54953011871978,1.05082598702667,1.03374643124351,"LIN1-LIN2",2178,"DG_s11",26.047,26.656,27.703,27.718,10,10,10,26,1.047,"Left",10,26,16,0,16,16,0,0,0,-16,"10-10",0,-16,10,10,10,26
"68",10,0.0736857532865471,-0.0191418855458902,-0.0782865309827887,0.0237426632421283,0.147415280005481,0.0936330741676823,-0.260091697648342,-0.952316363088807,-1.60460112957351,-1.82465741792531,-1.88574867927496,-1.85855896960099,-1.64753723632216,-1.44329428393434,-1.36275161315243,-1.42789329550788,-1.64470594872376,-1.94896668960894,-2.36409437311047,-2.60747342242499,-2.19148605492997,-1.53367165183898,-0.987696441528747,-0.68055589277639,-0.61112034327272,-0.620322032014545,-0.490467865188384,-0.287975438578306,-0.114457033319235,0.00825037516471738,-0.0449578871109839,-0.394390997222214,-1.07579337783081,-1.85506366285609,-2.0546238294575,-1.69044251763381,-1.4241203184977,-1.29328281860374,-1.18602163234761,-1.09987628951469,-1.09178403793224,-1.0831374925429,-0.901584058686378,-0.670881024456579,"LIN2-LIN3",2178,"DG_s11",26.047,26.656,27.703,27.718,10,10,10,26,1.047,"Left",10,26,16,0,16,16,0,0,0,-16,"10-10",0,-16,10,10,10,26
"69",10,0.12608731427159,0.094673925121155,0.0169610902679533,-0.237722329660697,-0.678519593607762,-0.737986358766605,-0.00259318646895501,0.780442208545693,1.29563615745563,1.49346946373767,1.43984956869254,1.32137296131814,1.27577650365882,1.23619066518526,1.03047573489663,0.527833799446892,-0.290015204307803,-1.36978069288434,-2.70367534346784,-3.48316277259464,-2.86499065355294,-1.88342102732781,-1.00382400968698,-0.438806508047254,-0.243127954000375,-0.41722326677832,-0.977227554665808,-1.79876788636777,-2.34160594584211,-2.42714145803803,-1.88204413141996,-1.12806191201243,-0.556978394711861,-0.29627525685383,-0.390772628037872,-0.534895005702738,-0.236963316341527,0.0770385278185604,0.160324799101492,-0.0205800453487353,-0.452642383618011,-0.992292666422422,-1.37225690483976,-1.38408545945585,"LIN4-LIN5",2178,"DG_s11",26.047,26.656,27.703,27.718,10,10,10,26,1.047,"Left",10,26,16,0,16,16,0,0,0,-16,"10-10",0,-16,10,10,10,26
"70",10,-0.119518941402816,0.2105551655819,0.163658941372539,-0.254695165551624,-0.852351512500045,-1.33467751584677,-1.37068992875356,-1.1935267927602,-1.11060843274852,-0.929274140325408,-0.543493136312367,-0.198661044951779,-0.0215143599013885,-0.0434100308379382,-0.265101060398306,-0.712472267022482,-1.15120842704587,-1.11268281488221,-0.863526354594084,-0.692279897730566,-0.570241251539525,-0.621490980693578,-1.0345633208921,-1.36011024447184,-1.17532853737355,-1.21166927820636,-1.42379556536068,-1.09445773665858,-0.671475337506035,-0.42822052471168,-0.147508690993938,0.165974140025341,0.298369274535073,0.206359964115002,0.0128553029542644,-0.0667856180866249,-0.0156539011119463,0.0354115768946208,0.0458034693178675,0.0607787907730444,0.123716113252355,0.287018745224456,0.491699324700987,0.547760602089319,"RIN2-RIN3",2178,"DG_s11",26.047,26.656,27.703,27.718,10,10,10,26,1.047,"Left",10,26,16,0,16,16,0,0,0,-16,"10-10",0,-16,10,10,10,26
"71",11,0.646526306307987,0.169510757032596,-0.303448653910449,-0.512588409430137,-0.661749916024375,-0.784521099988099,-0.652653775990531,-0.177898202918479,0.599300392719563,1.4590845593862,2.11430699032221,2.51287141667425,2.70510600285644,2.76932842360282,2.76676926087101,2.69759113558583,2.58923386110365,2.49823925808103,2.38165689050349,2.15080378025755,1.76576313252864,1.26213599971133,0.76301072592331,0.516099355231015,0.70072892252553,1.12463311064734,1.52454303394916,1.731757292879,1.72442997468057,1.52505612856223,1.23718167648072,1.08342759069954,1.090482936296,1.07474741534499,0.935622351615697,0.762827525409838,0.737241902441813,0.908237292980516,1.13121448723664,1.1970969363092,1.00010668053345,0.679075430273135,0.540422296192119,0.513663586393099,"RIN1-RIN2",2179,"DG_s11",28.718,29.328,30.156,30.172,10,10,13,22,0.828,"Left",13,22,9,0,9,9,0,0,0,-9,"10-10",-3,-12,10,13,10,22
"72",11,-0.206947768316777,0.0173048561819691,0.130682263747746,0.0589606483870639,-0.121950490698849,-0.261452050309876,-0.454454357246261,-0.755095212163248,-0.633579154856104,-0.137130084143521,0.191890140038263,0.260782074860158,0.0967027073137352,-0.26706949849576,-0.663831331475622,-0.59959976096655,-0.253946963605287,0.0302782204414402,0.174555106914099,0.181318477854306,0.173263628408513,0.324874101864575,0.54529857383762,0.557238843666745,0.249798439726193,-0.112918818668501,-0.000143304742740824,0.264708357373662,0.339807712723832,0.252189770367817,0.0691437043200942,-0.128355366799354,-0.397534593947121,-0.891075325110993,-1.43367615632123,-1.17191663478444,-0.575424817993374,-0.199294669739061,-0.0955328173581655,-0.207801739333663,-0.461035905723676,-0.6723403752738,-0.706365828785898,-0.848883360162214,"LIN4-LIN5",2179,"DG_s11",28.718,29.328,30.156,30.172,10,10,13,22,0.828,"Left",13,22,9,0,9,9,0,0,0,-9,"10-10",-3,-12,10,13,10,22
"73",11,0.468080831980941,0.200413177516418,-0.150422805583238,-0.518071203914119,-0.820549220115594,-1.0456997386943,-0.996535495914419,-0.33491221705091,0.530425107243066,1.19832084013126,1.61731875392891,1.81837613668587,1.78643583393516,1.46278901989848,0.852445248449599,0.173896182041593,-0.17126231983558,-0.199245195072107,-0.212689554362938,-0.492401279699916,-1.09225832192856,-1.75271094978837,-1.81979811362341,-1.6524913938342,-1.61162000257165,-1.74696833026783,-2.07210364811205,-2.13933877191215,-1.57253181118668,-0.876858343457036,-0.407888030414641,-0.222754208820625,-0.276847091184835,-0.601309820233235,-0.934926489929722,-0.834843031372738,-0.668464110855819,-0.733271950810784,-0.842110194548241,-0.717997482468444,-0.432591759736249,-0.327499055688802,-0.585120009833107,-1.26712766094642,"RIN3-RIN4",2179,"DG_s11",28.718,29.328,30.156,30.172,10,10,13,22,0.828,"Left",13,22,9,0,9,9,0,0,0,-9,"10-10",-3,-12,10,13,10,22
"74",11,-0.776001097591324,-0.126621759847595,0.308776129425219,0.593846728013704,0.755156188534579,0.689686335166492,0.287994093780238,-0.182703167659906,0.0554935709152478,0.686417059005223,1.14806656927674,1.36026241613157,1.31216000602135,1.01287637826241,0.504166302430777,-0.0315510723207879,0.0639570390988098,0.672604069255618,1.06330409157865,1.0976770679469,0.843509307306073,0.435044469651,-0.0889464734766197,-0.821046895853032,-1.6149297532716,-2.09733203645224,-2.05671339904353,-1.47140470897766,-0.942277563741312,-0.611648269859922,-0.543193578365017,-0.73494839278029,-0.846176184654936,-0.471349563734563,-0.0953084312767043,-0.040921640221983,-0.260130346674883,-0.628678999377243,-0.998600426008962,-1.01544556395561,-0.660057668361715,-0.299837392121317,-0.135984579730374,-0.164092727559453,"RIN2-RIN3",2179,"DG_s11",28.718,29.328,30.156,30.172,10,10,13,22,0.828,"Left",13,22,9,0,9,9,0,0,0,-9,"10-10",-3,-12,10,13,10,22
"75",11,-0.330309359507961,-0.394737412984828,0.0712816723612804,0.653765100131508,1.14990363483582,1.52358573026931,1.71307726203639,1.68059161209605,1.39808645229901,0.950022364342768,0.696517762588352,0.753750992510749,0.879953373112786,0.977023873680936,0.998685986278561,0.961646306423869,1.0021390574656,1.22699629008493,1.54139475895072,1.8199769600858,1.99324615113739,1.99249692374305,1.78069538487339,1.37917862599761,0.814895368153055,0.127288928128952,-0.61413230628652,-1.23204747771082,-1.29918569002699,-0.964730769379478,-0.758790665906815,-0.688031924759116,-0.7654652097277,-0.88822169156409,-0.456637404193525,-0.0405739472711577,0.0310486742854295,-0.223850021390483,-0.718994436983375,-0.914965175378666,-0.363354154285419,0.295772208934437,0.766644448203362,0.99411976829898,"LIN2-LIN3",2179,"DG_s11",28.718,29.328,30.156,30.172,10,10,13,22,0.828,"Left",13,22,9,0,9,9,0,0,0,-9,"10-10",-3,-12,10,13,10,22
"76",11,-0.502098391745026,-0.219213233713898,0.214422751360962,0.506888874097964,0.536084789593353,0.419771069276537,0.237380737705212,-0.0696065322826556,-0.522017605028195,-0.805082705497831,-0.533114754631601,-0.29700626348108,-0.452552841741809,-0.746317686691578,-0.502036646198404,-0.0529970989158812,0.182615676270981,0.225102639276416,0.255895999567537,0.270088785282667,0.388841282963599,0.717363589623371,1.0214984149084,1.13442236470838,1.03796727146528,0.778286436786665,0.444563121351774,0.145636673029895,0.0375153929578804,0.0967075744227532,0.159242325085673,0.128036322997872,-0.0691258400766355,-0.380730830754056,-0.426304372090973,-0.112336882870929,0.115196117464402,0.108579551972273,-0.163995588250851,-0.584849301727978,-0.766478889359362,-0.532108916868628,-0.325867176357022,-0.466601324449156,"LIN3-LIN4",2179,"DG_s11",28.718,29.328,30.156,30.172,10,10,13,22,0.828,"Left",13,22,9,0,9,9,0,0,0,-9,"10-10",-3,-12,10,13,10,22
"77",11,0.638990424605779,0.0854814909590615,-0.280655475301514,-0.443816440263325,-0.546284582009443,-0.312176977666035,0.385473754083346,1.26102526163766,1.9774726234721,2.44838131314955,2.67505008844075,2.68422025269027,2.46550045230925,1.98284885147013,1.15936924314336,-0.0567663799587725,-1.41839640456967,-0.773542204793505,0.286619319552492,0.955548594692941,1.37039781878544,1.54404083178765,1.37634196151024,0.824412001444038,0.255328650910076,0.171944699641977,0.131341054922628,0.035489487551656,0.392332216725682,0.873430850296405,1.14048569598141,1.29863785495807,1.32264050736743,1.29340498064141,1.58142087126077,1.9333642843994,2.10895634069642,2.06737971478832,1.84254100527541,1.58950568068007,1.47436626899027,1.45775139123825,1.37436450387555,1.26926787527559,"LIN1-LIN2",2179,"DG_s11",28.718,29.328,30.156,30.172,10,10,13,22,0.828,"Left",13,22,9,0,9,9,0,0,0,-9,"10-10",-3,-12,10,13,10,22
"78",12,0.34533050652743,0.000332932593368085,-0.211966422481082,-0.133697016639717,-0.0572294159735725,-0.0111565675419456,0.0753850685794211,0.32442887372849,1.01521285390573,1.76364815362293,2.1588643884576,2.13085319865295,1.76181302489041,1.38236950837525,1.33441541269915,1.5519104072104,1.83926447882433,2.02163076934081,1.99794227483637,1.80550791884273,1.68096275998512,1.61453158250042,1.36644755536466,0.866354635791793,0.560125567982246,0.962123054053783,1.51833161025935,1.98402807103114,2.43054428504894,2.78407893266801,2.93324346223922,2.79404613752283,2.39464066566862,1.99411788590096,1.83244157777136,1.72237573762926,1.68016584693229,1.83926447882433,1.93150358577988,1.73038860101462,1.28582088929832,1.00827442231234,1.30361874037911,1.57996699306758,"RIN2-RIN3",2180,"DG_s11",31.172,31.781,33.125,33.14,10,10,16,4,1.344,"Right",16,4,12,0,12,0,-12,0,0,12,"10-10",-6,6,16,10,4,10
"79",12,-0.353427556760518,-0.499860488361908,-0.0419363145851719,0.895224359707599,1.73564728779917,2.17366343993765,2.2304076369577,2.06682882131707,2.36532982108235,2.78579100407617,2.90148780903565,2.91949784538089,3.47497331757569,4.2442838839399,4.75981555730796,4.95724472907997,4.82928341793735,4.39044973200337,3.67482527414825,2.846155065173,2.31220391502162,2.08381970062549,1.90190825603226,1.77664357715202,1.98180676759884,2.54404573046107,3.0273177522101,3.22840137346464,3.16317028413637,3.04650258656582,3.08783614230598,3.12597996659972,2.89082474014392,2.31259246070005,1.57439297423615,1.26215969662072,1.2807002427888,1.46942972108377,2.08864250865815,2.90234974802064,3.4871451758733,3.76358436030348,3.78599854857715,3.64569435488416,"LIN2-LIN3",2180,"DG_s11",31.172,31.781,33.125,33.14,10,10,16,4,1.344,"Right",16,4,12,0,12,0,-12,0,0,12,"10-10",-6,6,16,10,4,10
"80",12,0.388974883911789,0.28996669205215,-0.0909974208919806,-0.587944155071963,-1.0183603408289,-1.15573780363882,-0.748636435654831,-0.19538199977889,0.171032870803405,0.21914621389476,-0.0175324747651437,-0.086370766112525,0.487285963382762,1.01370182779417,1.17834071989156,0.945029616870722,0.376355795988554,-0.1405258140762,0.0363928667640252,0.334488271015335,0.349158057743626,0.0879834641311295,-0.118258177469482,-0.126035047824237,-0.18425571043997,-0.218325602162944,0.0064568564969214,0.397533876731622,0.733335895061234,0.97084324420663,1.07986576358405,1.00524750098315,0.778719851684704,0.54360278218221,0.448947985407623,0.312892422079946,-0.117910071380637,-0.756515015595385,-1.16109479437529,-1.36593130324486,-1.4600979377072,-1.28126537882987,-0.95505036014247,-0.83744040103381,"RIN1-RIN2",2180,"DG_s11",31.172,31.781,33.125,33.14,10,10,16,4,1.344,"Right",16,4,12,0,12,0,-12,0,0,12,"10-10",-6,6,16,10,4,10
"81",12,-0.0131221837782114,0.166045679552042,0.0971055214885759,-0.250029017262408,-0.826632088488921,-1.20949246944238,-0.862627567922706,-0.341096698797653,-0.0320753103108764,0.0201023098359574,-0.175249979207203,-0.439311419497274,-0.356575354613778,0.0851744204424616,0.431150060062894,0.480631939399034,0.230261270324434,-0.179341950100552,-0.194043979126411,0.149576236407864,0.295238028832213,0.107749218772973,-0.410439771653968,-1.14649079704506,-1.64232329164513,-1.80270639714398,-1.99625351615775,-2.03897303091807,-1.6194163172719,-1.14364304046553,-0.77495119513932,-0.445277808557822,-0.244302178510019,-0.260526226947052,-0.532676669012115,-0.977409592115073,-1.23315323654579,-1.26536442388932,-1.53243183103857,-2.02281544517314,-2.2294318541278,-2.16094301490958,-2.09528651546402,-1.68892477908975,"LIN3-LIN4",2180,"DG_s11",31.172,31.781,33.125,33.14,10,10,16,4,1.344,"Right",16,4,12,0,12,0,-12,0,0,12,"10-10",-6,6,16,10,4,10
"82",12,-0.463379553199152,-0.160126114741425,0.200738615614284,0.422767052326293,0.529016012084643,0.639318264779712,0.721804302024958,0.688581472996352,0.616808342832623,0.663781762125955,0.747447436694328,0.762272487925282,0.715807157092923,0.594790995749264,0.466895904394349,0.505022915339859,0.779745730511147,1.19014140628462,1.56168515070904,1.77243259794821,1.8015701777507,1.62250046005346,1.19358273337383,0.521331348596611,-0.29467528006804,-1.05312774762997,-1.16919764705013,-0.565974206295277,-0.180210926144451,-0.169439808307247,-0.475553059444382,-0.908314313740352,-1.26669012821207,-1.38482364273283,-1.37470175349767,-1.49634517403407,-1.72756577993149,-1.74294970009995,-1.35675882252819,-1.00285963933698,-0.750697790827926,-0.705198501651717,-0.888537851360528,-0.901171072599166,"LIN4-LIN5",2180,"DG_s11",31.172,31.781,33.125,33.14,10,10,16,4,1.344,"Right",16,4,12,0,12,0,-12,0,0,12,"10-10",-6,6,16,10,4,10
"83",12,0.285941081490726,-0.194883605119741,-0.22452918019088,0.133471703819896,0.573181551668993,0.844466198364884,0.856968255429519,0.654675238142794,0.468451440115508,0.719281452239532,1.18600679796955,1.50817275047896,1.63857055774823,1.59965650903582,1.39474197908188,0.974311954101099,0.374592178347507,-0.167821159835861,-0.605210959435939,-1.17114234338658,-1.64044807601854,-1.55655239456199,-1.19611539586879,-0.706517963260583,-0.33481802262118,-0.250967889685254,-0.433574501069092,-0.749969115171274,-0.817357121462486,-0.505479580181685,-0.246985633882143,-0.332960091821046,-0.776705877390865,-1.42248742817663,-1.85231571726126,-1.72965359133636,-1.23926189920636,-0.463649344750497,0.218615255570094,0.650379619528218,0.805439130446514,0.693835677440019,0.308476875247157,-0.38209990255706,"RIN3-RIN4",2180,"DG_s11",31.172,31.781,33.125,33.14,10,10,16,4,1.344,"Right",16,4,12,0,12,0,-12,0,0,12,"10-10",-6,6,16,10,4,10
"84",12,-0.243677458220384,-0.153387491179385,0.0702541244859782,0.32681082491379,0.582753237414323,0.670243530797018,0.546530195947771,0.306144838199056,0.151719997986255,0.322880443660971,0.662562311924239,0.867332616454625,0.905261054734119,0.774408360228461,0.535902622772349,0.303029291980751,0.090863249589372,-0.231177680311554,-0.671637953964505,-0.95369582125331,-0.668221742632991,-0.324965338428509,-0.340748900635192,-0.637163055910145,-1.02207222678048,-1.00696445935379,-0.641765420440456,-0.495912884432157,-0.46745631880436,-0.327118336636211,-0.156733208667053,0.131956592152399,0.557713492997157,0.921488947013207,1.06570481031443,0.975776844866576,0.709796709183038,0.258135619012695,-0.383575725644242,-0.65869920803525,-0.241511146600438,0.023313681237676,-0.163801584445022,-0.689767077406761,"LIN1-LIN2",2180,"DG_s11",31.172,31.781,33.125,33.14,10,10,16,4,1.344,"Right",16,4,12,0,12,0,-12,0,0,12,"10-10",-6,6,16,10,4,10
"85",13,-0.863149129824841,-0.154747660093813,0.385295612395492,0.632601177523162,0.647352547044449,0.617365032700423,0.589621404134903,0.660696632870938,0.859253721880652,0.981068418772738,0.987246421230006,1.16150255694329,1.58849137277935,1.96793131324782,2.14599499273482,2.11305889995446,1.89190141401253,1.43679003216214,0.696310751565644,0.0301940501256812,0.104371733833746,0.19242145731433,-0.111669809569861,-0.649329655385754,-0.668985533106698,0.104934900313291,0.801686172665379,1.12590051189109,1.09890807860879,0.831162446223274,0.641916006182713,0.979905782108471,1.54942611672577,1.94124971736826,2.0690581158802,2.00869099816379,1.94716321110253,2.03358286922865,2.19027670408941,2.26794162362442,2.20531140342269,1.98054096386621,1.60506618575106,1.14225632321036,"LIN2-LIN3",2181,"DG_s11",34.14,34.75,35.468,35.484,10,10,8,11,0.718,"Left",8,11,3,0,3,3,0,0,0,-3,"10-10",2,-1,10,8,10,11
"86",13,0.750301786593522,0.223244510494613,-0.404485603741987,-0.569060693346148,-0.275565182978371,-0.124376319995042,-0.337098124671837,-0.154818859222964,0.716790529595273,1.4883862558079,1.97925800337715,2.15355839026575,1.95859730996431,1.36154288926334,0.432985772808982,-0.540723561950191,-0.852566557817985,-0.170060114336362,0.697405088937901,1.2381947575649,1.47101518895614,1.41315832485526,1.11351130843955,0.631631565051268,0.100816338264234,0.044975075378642,0.657358614535525,1.26215329905005,1.60838760829579,1.69207635040508,1.51538927265671,1.02778104349037,0.275870760813047,-0.251163245720596,-0.194880297360627,-0.126465907246735,-0.169252125301254,-0.0570724953068948,0.346872340966891,0.823248257871398,1.13955228816229,1.22171950987646,1.08068182867245,0.914600263832027,"LIN1-LIN2",2181,"DG_s11",34.14,34.75,35.468,35.484,10,10,8,11,0.718,"Left",8,11,3,0,3,3,0,0,0,-3,"10-10",2,-1,10,8,10,11
"87",13,-0.0773041155170819,0.154502212766221,0.124085928015679,-0.201284025264817,-0.785326374087683,-1.21259093989662,-0.950658773797155,-0.303439313679812,0.410033976819429,1.00357051102534,1.35968866207663,1.39128302749485,1.13950531243339,0.71356642016155,0.455266786982627,0.622641873173306,0.72023929014885,0.609658227615189,0.40793234097379,0.207276606081187,0.00828215403479327,-0.211097249897744,-0.278956587404577,0.188243641171944,0.786531307190474,1.12436927086214,1.20029902837016,0.999945803306565,0.491058089530414,-0.224755568970602,-0.745127336032258,-1.07181580747647,-1.63513434337548,-1.63916739379104,-0.823165974976634,-0.17838103459445,0.102357118872273,-0.0909172587173916,-0.749428647749319,-1.62698792216755,-2.06973974873726,-1.93553435728238,-1.58988694378756,-1.27885547890456,"LIN3-LIN4",2181,"DG_s11",34.14,34.75,35.468,35.484,10,10,8,11,0.718,"Left",8,11,3,0,3,3,0,0,0,-3,"10-10",2,-1,10,8,10,11
"88",13,-1.0082779364213,-0.137779277871436,0.449128715069287,0.696928499223453,0.597637355256795,0.23735282203144,-0.137722206760817,-0.0303320785980343,0.345674005296726,0.51578528288835,0.349818288262632,-0.117665037212745,-0.720970746823022,-0.827536383252452,-0.134161710227215,0.502305290980598,0.820036565716112,0.84526266103475,0.597637355256795,0.0375837868612781,-0.793098411381999,-1.46112014185385,-1.22973625187183,-0.642431603509372,-0.272342588670364,-0.131832891475691,-0.161369567557845,-0.346769544499598,-0.602222388872799,-0.947084242457613,-1.48943802089722,-1.83139192847872,-1.62101971940255,-1.2938269893891,-0.873214393891158,-0.531965030831767,-0.491933969916865,-0.851599252758604,-1.60483952946179,-2.66021028059973,-3.57444106004777,-3.27072274464949,-2.48449968922901,-2.01488757711715,"RIN3-RIN4",2181,"DG_s11",34.14,34.75,35.468,35.484,10,10,8,11,0.718,"Left",8,11,3,0,3,3,0,0,0,-3,"10-10",2,-1,10,8,10,11
"89",13,0.708838622529866,0.213542649634919,-0.309275527728273,-0.613105744436512,-0.617599512585004,-0.291365203601323,0.305678943301752,0.918927902488015,1.46213647022172,1.84957415164247,2.00000669836405,1.92391299942451,1.63766675568334,1.14892268817884,0.459487490696826,-0.319508936722062,-0.981766021363484,-1.17521135078957,-0.764042537518613,-0.083366510419614,0.531389861892295,0.90610115537541,0.971115171546224,0.681525980813261,0.0881138912060422,-0.323063900665861,-0.137393120079023,0.418344886582878,0.938778462425981,1.20040842206326,1.12532648499484,0.750321008793779,0.271580913705712,0.157337100983419,0.23551171514165,0.151606242800836,0.268986064875236,0.893260692363924,1.43359195988893,1.62604848901164,1.50634349880776,1.06387541371728,0.309908556858014,-0.519534111532273,"RIN1-RIN2",2181,"DG_s11",34.14,34.75,35.468,35.484,10,10,8,11,0.718,"Left",8,11,3,0,3,3,0,0,0,-3,"10-10",2,-1,10,8,10,11
"90",13,0.992706928751121,0.345156021144247,-0.429001617841221,-0.908861332054149,-0.851876487892014,-0.826263629378181,-0.802050518115626,-0.440384249751039,-0.117214082107857,-0.0991394965017136,-0.139473500907204,0.0197707636728879,0.461855112997632,1.03150140515709,1.48330802653452,1.73263363588525,1.91407755366498,2.11703300103312,2.2695043056265,2.27740254765075,2.06864533234104,1.6126802312848,1.08066547099474,1.01467210183999,1.3414537450031,1.53979015633917,1.49563871191613,1.26101950975259,1.18555858771908,1.4996568428814,1.82075738581987,1.89834730835398,1.72553637401449,1.42123002834023,1.18680005280714,1.10510839704897,1.04025134462749,0.843855301680311,0.481816508769207,-0.0484886129076081,-0.36671868464812,-0.0214643453912569,0.35320230733007,0.410222539184124,"LIN4-LIN5",2181,"DG_s11",34.14,34.75,35.468,35.484,10,10,8,11,0.718,"Left",8,11,3,0,3,3,0,0,0,-3,"10-10",2,-1,10,8,10,11
"91",13,-0.102182867205303,0.176391457615329,0.140389535909025,-0.214598126319049,-0.6361055522568,-0.687979170718027,0.00361389297037462,0.867698768629987,1.54319625580436,1.99675413796987,2.15307232122908,2.04295298196788,1.76680034754707,1.56293503215665,1.54399015867235,1.52670004572612,1.34400700290304,1.06151321851835,0.92425008004699,1.09761129324327,1.38846297969983,1.58419931565634,1.60060614041877,1.42924788842209,1.18045554879107,1.13885036864482,1.32551784818662,1.46680688825819,1.36842297952684,0.998403349808637,0.569263454485668,0.505967946813431,0.598857175962191,0.420664227115758,0.218547266387695,0.318979141395449,0.576911394876012,0.925443986842994,1.32877084528854,1.7408081483219,2.03132156267002,2.06171203424464,1.81931542795673,1.37342369759528,"RIN2-RIN3",2181,"DG_s11",34.14,34.75,35.468,35.484,10,10,8,11,0.718,"Left",8,11,3,0,3,3,0,0,0,-3,"10-10",2,-1,10,8,10,11
"92",14,-0.171777814608015,0.0329482401527645,0.0693971034489538,0.069432471006297,0.403831067394272,0.97076484436476,1.4043870012191,1.6014296516743,1.58780934185121,1.40009635010722,1.03291046631658,0.454953474083105,-0.15167954668513,-0.233418595122707,0.00335312296822199,0.0972987530082463,-0.0607346238498074,-0.431305682317174,-0.836391566080426,-1.08421597268253,-1.03690186375572,-0.65975886412019,-0.250804458260845,-0.0709379676942055,-0.028352918143896,0.0579074261405106,0.272521267752202,0.594270861594181,0.867457292037919,0.927284519072192,0.74606921180083,0.423309516854475,0.157757455804923,0.177759404773296,0.452352379193982,0.62667586259505,0.507658879811412,0.153604572021845,-0.116737329595261,-0.0572360780072945,0.0431665613090475,-0.14828814525361,-0.390373989665062,-0.0713043053394955,"RIN3-RIN4",2182,"DG_s11",36.484,37.093,37.922,37.922,18,18,10,10,0.829,"Left",18,18,0,0,0,0,0,0,0,0,"Equal",8,8,18,10,18,10
"93",14,0.171272732072287,0.0827950148421035,-0.13918280873178,-0.114884938182614,0.138505868989393,0.273708462244667,0.355732384075459,0.548216597786908,0.697454880987674,0.61550356703534,0.316097660456007,-0.0546643579867627,-0.372873486547261,-0.73995666916071,-1.20186824652983,-1.39057913660257,-0.960153870389299,-0.433071246377844,-0.199866154477254,-0.339491666891517,-0.799974678886963,-1.29701528778989,-1.37393379643518,-1.15997606530119,-1.03470725895996,-1.06196706991648,-1.20859819584033,-1.4744971096092,-1.81333881787915,-2.00611950546324,-1.69101582826969,-1.07508201199431,-0.571822466896826,-0.311197501350751,-0.299193265456486,-0.512353251087859,-0.910130718915183,-1.53620366571186,-2.36005466359546,-2.73235637552932,-2.22774821423885,-1.44671210955256,-0.843689810765773,-0.531456262659134,"LIN1-LIN2",2182,"DG_s11",36.484,37.093,37.922,37.922,18,18,10,10,0.829,"Left",18,18,0,0,0,0,0,0,0,0,"Equal",8,8,18,10,18,10
"94",14,0.498382360407385,0.401064949422217,-0.0800261288921185,-0.819421180937483,-1.16346762333499,-0.690608197520445,0.00380798963892026,0.515198796608047,0.785761554346081,0.859519937263592,0.775785358076266,0.532817997288561,0.0540907961164088,-0.743768093350381,-1.8755978535467,-2.72301247498255,-1.96174622822614,-1.35563719885561,-1.29279956411477,-1.57629974639391,-2.0982911684792,-1.90943901692561,-0.835631493444539,0.0150816208443061,0.561918702304073,0.868955798652035,1.00541773158928,1.10734343083133,1.176508605146,1.06653410664792,0.688716210455285,0.0492988851153875,-0.713197888476579,-1.40409422401971,-1.95026101144587,-2.04926048488191,-1.85956494862484,-1.8300654293841,-1.87594817760003,-1.67722697807287,-1.19296358387476,-0.661033353799199,-0.227073953456319,0.148036845461194,"RIN2-RIN3",2182,"DG_s11",36.484,37.093,37.922,37.922,18,18,10,10,0.829,"Left",18,18,0,0,0,0,0,0,0,0,"Equal",8,8,18,10,18,10
"95",14,-0.183120785662036,-0.0345189322792407,0.0517013791535863,0.165938338787692,0.198093520518265,0.00884249852932406,-0.366463094960256,-0.707526005290068,-0.883150783526334,-1.06420790500053,-1.39596135142157,-1.97453447342053,-2.70476532639013,-2.50861899300988,-1.91489666199787,-1.36989267445286,-0.811842930686721,-0.407432232949988,-0.291727224317581,-0.454300959260765,-0.749311109928465,-0.962949276487985,-1.08129034568016,-1.39011465312062,-2.00909191922264,-2.51441542492498,-2.36794205658755,-1.93621171000915,-1.52571298782123,-1.31139217556654,-1.3317257596129,-1.51038198233289,-1.6639532459058,-1.62524194159337,-1.5438077386815,-1.57792435849683,-1.69411727434138,-1.70871895444883,-1.46481577148744,-1.12341628674046,-0.848023440588213,-0.686209399160841,-0.596506684289322,-0.602691482455802,"LIN4-LIN5",2182,"DG_s11",36.484,37.093,37.922,37.922,18,18,10,10,0.829,"Left",18,18,0,0,0,0,0,0,0,0,"Equal",8,8,18,10,18,10
"96",14,0.288207837899272,0.165174645858743,-0.219108875040412,-0.234273608717602,0.103819136473042,0.233245352772315,0.0730570577726635,-0.203014752301383,-0.445703398074913,-0.503390204505797,-0.373153707778126,-0.142338885967265,0.0507523806999419,0.139018082981218,0.0868854181784116,-0.124094426644131,-0.365059213423152,-0.401087912699015,-0.426527676018203,-0.562599660171426,-0.671481742245158,-0.767000705794157,-0.759340628214627,-0.643350366105672,-0.620176345788758,-0.782600599449765,-1.16254547551314,-1.69521268523561,-1.80428565875163,-1.59924429344796,-1.71219967430249,-2.07559087355835,-2.21247354605712,-1.62481717094008,-0.856469320976913,-0.310667368382527,-0.0330222101622066,0.0173903078703983,-0.0470044013809741,-0.156953674444564,-0.524087815577772,-1.33177273559868,-2.47536205545084,-2.55523787457722,"RIN1-RIN2",2182,"DG_s11",36.484,37.093,37.922,37.922,18,18,10,10,0.829,"Left",18,18,0,0,0,0,0,0,0,0,"Equal",8,8,18,10,18,10
"97",14,-0.548852336654718,-0.446504658301411,0.199331720086374,0.796025274869759,1.04838256826838,1.11370739346019,1.26051696398222,1.45636752886287,1.49466262985811,1.28116094930492,0.898948495205195,0.48755367023041,0.142401995910104,-0.190730802267954,-0.38982600092884,-0.139929895636584,0.297855364465542,0.49618288481342,0.353861446571761,0.35555218314923,0.835614506769176,1.21500326586949,1.24805261923203,0.987790950659985,0.541363572623952,0.119582125039605,-0.0581912715177371,0.0752569462215611,0.305321550737112,0.34926796123257,0.115854400547478,-0.274121659413678,-0.222498124938586,0.317075896157291,0.712573727112369,0.773514830868981,0.510979084729913,0.081965187201126,-0.286819187496977,-0.263575013924109,0.223015780481013,0.73861961958662,1.06132433686724,1.15505361364687,"LIN2-LIN3",2182,"DG_s11",36.484,37.093,37.922,37.922,18,18,10,10,0.829,"Left",18,18,0,0,0,0,0,0,0,0,"Equal",8,8,18,10,18,10
"98",14,-0.301972873803907,-0.15902250842268,0.040425678811312,0.420569703415277,0.653640470897729,0.559239380350489,0.18609438248464,-0.248569545684138,-0.35104520328728,-0.269105499149743,-0.399616375719553,-0.860669110170454,-1.52551674399449,-1.95020374142513,-2.09976591498072,-2.31833665358683,-2.70128222675307,-2.88498837585441,-2.49869220614688,-1.80910433826386,-1.17606284568937,-0.842140618187443,-0.858184423975903,-1.1747466539935,-1.59466688078117,-1.71595682698227,-1.54842636451923,-1.56286456651762,-1.7222313891217,-1.79677833975925,-1.88046815703055,-2.15448822315573,-2.53358808354841,-2.7653380337309,-2.91974805339565,-3.27016959529399,-4.05983819009994,-4.2974318881421,-2.9466689554007,-1.73943400047487,-0.83861001599948,-0.174840400434315,0.245549077660289,0.401668094635692,"LIN3-LIN4",2182,"DG_s11",36.484,37.093,37.922,37.922,18,18,10,10,0.829,"Left",18,18,0,0,0,0,0,0,0,0,"Equal",8,8,18,10,18,10
"99",15,0.695541424297651,0.0976166918900097,-0.317965920260827,-0.475192195926833,-0.269126889898128,0.412493043013769,1.15396378214055,1.62570270361947,1.75384324760912,1.58369175260945,1.14567639735192,0.472956404567689,-0.0212636393319388,0.101242667653943,0.418317954187278,0.680840293170049,0.859978366957058,1.07065803237062,1.40652509708127,1.701931294454,1.8017377055103,1.69715475858985,1.53040588110255,1.49754748897801,1.59242967228261,1.80078513770791,2.13824994613192,2.39023975589572,2.43463473907476,2.30330186779093,1.96235620249427,1.42039815194952,1.17966393387526,1.33187968313747,1.35569560227061,1.1408508537711,0.754416750992594,0.312773750520535,0.0413271067065528,0.349358589711671,0.916356093896604,1.34168717972383,1.47131824237677,1.33661712216537,"LIN2-LIN3",2183,"DG_s11",38.922,39.531,40.687,40.687,10,10,8,16,1.156,"Right",8,16,8,0,8,8,0,0,0,-8,"10-10",2,-6,8,10,16,10
"100",15,-0.28935322028407,-0.0521281676096521,0.131287062844097,0.210194325049628,0.108048088094028,-0.225652085766724,-0.706970217263274,-1.05006830933319,-1.12129716674622,-1.09679431809324,-0.914393250152479,-0.64008268981371,-0.460609123552816,-0.366744919256689,-0.275617338202983,-0.24211092631314,-0.402188879892446,-0.839459637861642,-1.42332261466475,-1.79763243566592,-1.92925872753504,-2.10665678159948,-2.5193513492195,-2.79880292253477,-2.53655115099958,-2.26195089867191,-2.00259526027113,-1.44693971611968,-0.948090811272296,-0.744535137422483,-0.952733215716695,-1.48111393665858,-1.68198843825829,-1.27160618692315,-1.05120722346829,-1.08600603440108,-1.0876175711275,-1.05997324449764,-1.29174545754757,-1.75492082488061,-1.7151301725141,-0.93651247492574,-0.30258259301787,-0.00455407788116879,"RIN2-RIN3",2183,"DG_s11",38.922,39.531,40.687,40.687,10,10,8,16,1.156,"Right",8,16,8,0,8,8,0,0,0,-8,"10-10",2,-6,8,10,16,10
"101",15,0.716638012781315,-0.15339164003298,-0.577938453817703,0.0146920810693665,0.644574883091078,0.994737048275677,1.09472922150332,1.04976577876726,1.03377428415691,1.01298081243873,0.843835364341135,0.466281897942221,-0.0855264259364539,-0.675039941422048,-1.07152496443498,-1.33007068061362,-1.68390411319422,-1.95627214803118,-1.83547171989148,-1.50522531070489,-1.13528477528378,-0.70157446047036,0.00513188150299371,0.783469910596645,1.33003680241353,1.58025255147973,1.54112119540235,1.18363465293897,0.468623377164485,-0.668244417288623,-2.03168608745884,-1.57272974059419,-0.781961655438762,-0.463924783650615,-0.398194841797654,-0.228575758562091,0.252434087501491,0.749131532552497,1.04756936816938,1.08874142192425,0.980368985008758,0.927913464732791,0.954299475219788,0.831210646608058,"LIN3-LIN4",2183,"DG_s11",38.922,39.531,40.687,40.687,10,10,8,16,1.156,"Right",8,16,8,0,8,8,0,0,0,-8,"10-10",2,-6,8,10,16,10
"102",15,0.0918324082398811,-0.148809442318798,-0.122505397931601,0.179482432010516,0.364595792119513,0.29215928952785,-0.077453864929323,-0.678413607518523,-1.24118156360171,-1.49164462779031,-1.65973161271091,-1.98251993246368,-2.56077884701592,-3.28210530546834,-2.98419296476574,-1.97320456050754,-1.18521890089318,-0.869851735527125,-1.02349437991645,-1.40260908938258,-1.45156433129766,-0.974542451234417,-0.539476664368808,-0.230786833077025,0.0925314464435978,0.427131085714342,0.762215911540086,1.02412964795458,1.08796062414788,0.918876742916332,0.554482788417788,0.11947004800162,-0.0410665001987791,0.116265361879137,0.249392285111421,0.149547503238898,-0.229536006475045,-0.756164979347298,-0.979142240666491,-0.397200688925902,0.31307313767147,0.723246345904439,0.80270506491895,0.604681313360308,"RIN3-RIN4",2183,"DG_s11",38.922,39.531,40.687,40.687,10,10,8,16,1.156,"Right",8,16,8,0,8,8,0,0,0,-8,"10-10",2,-6,8,10,16,10
"103",15,-0.763271333947076,-0.201172319129666,0.288583266673786,0.675860386402958,0.904557735311322,0.947871511994151,0.841800485182494,0.594956399304696,0.135101810314918,-0.454045650366945,-0.469553641390304,-0.0110969604020266,0.204754886489294,0.0786000718149893,-0.351098563313188,-1.00706043389379,-1.57895641788925,-1.62515270878256,-1.29749302144598,-0.972638830840737,-0.682295145623936,-0.530317374717203,-0.670616417560145,-1.11259028322402,-1.66352556951604,-1.9804299030945,-2.16640317456332,-1.74175182854836,-1.14542505745507,-1.01178429530525,-1.37636049684448,-1.96899271938012,-1.69250510539717,-0.893210824191163,-0.484636232173687,-0.521804458064791,-0.888011440421511,-1.40960904057924,-1.8640088807705,-1.77282321736828,-1.31296832125006,-0.714311638898662,-0.0669447110849895,0.409571076240416,"RIN1-RIN2",2183,"DG_s11",38.922,39.531,40.687,40.687,10,10,8,16,1.156,"Right",8,16,8,0,8,8,0,0,0,-8,"10-10",2,-6,8,10,16,10
"104",15,1.32724864656815,0.455951146361711,-0.590185438394577,-1.19301435453528,-0.619401590243107,-0.107974059404059,0.448368777782274,0.742514490404695,0.618995836006045,0.134724318992079,-0.615598147349776,-1.15336976215263,-1.1900431861668,-1.09719402865217,-0.826226386507143,-0.327764237667214,0.227106602226479,0.697265491308032,1.15672686004057,1.62226112683193,1.9152649659018,1.99861877737319,2.00410766094565,2.0960393656027,2.3261438808558,2.57127766242262,2.71673379919892,2.70744546940867,2.55628681990307,2.31844124742027,2.04024325184395,1.6990616527589,1.27819461687611,0.922164252575481,0.910679302708584,1.26600845699007,1.73044459519738,2.10978881522991,2.3025480321214,2.24001907312898,1.87601162085978,1.15711385694943,0.0488009644174969,-0.679554750926112,"LIN4-LIN5",2183,"DG_s11",38.922,39.531,40.687,40.687,10,10,8,16,1.156,"Right",8,16,8,0,8,8,0,0,0,-8,"10-10",2,-6,8,10,16,10
"105",15,-0.427712360977845,-0.0190836337381093,0.219587625370504,0.227208369345451,0.0348969358246212,-0.336658761189877,-0.831546476025544,-1.38407681888294,-2.04947797909347,-2.669881836634,-2.63813991757444,-2.57975536336042,-2.53452172448364,-2.30670913935434,-2.20343911724651,-2.00526715746157,-1.52469365658549,-1.00225961082618,-0.714799292450042,-0.761499671835235,-1.16296421265596,-1.83239924809279,-2.50016133555243,-2.94777754617116,-2.59954246205729,-1.59949207755835,-0.766364684320214,-0.170797596339071,0.221766614559504,0.41914371420582,0.444027092721958,0.340102289080464,0.116624516887708,-0.248413566942146,-0.81644764909246,-1.69639653566924,-2.85193587552254,-3.44622829123988,-2.61895559202921,-1.82359685435393,-1.25408097784173,-0.802802185772691,-0.525901491348627,-0.483632331440207,"LIN1-LIN2",2183,"DG_s11",38.922,39.531,40.687,40.687,10,10,8,16,1.156,"Right",8,16,8,0,8,8,0,0,0,-8,"10-10",2,-6,8,10,16,10
"106",16,0.57253198108589,0.216232690496939,-0.218049826646963,-0.570714844935866,-0.883031684330104,-1.1634011178042,-1.25532577982204,-0.975824397484729,-0.610273215847766,-0.346604478065924,-0.270733189989524,-0.376218610017604,-0.117144702728021,0.463837181320686,0.820522235750232,0.85536541226195,0.651944297116478,0.315522320310597,0.044919221782461,0.197054975828276,0.589943529896056,0.848805163812345,0.935057547798174,0.925587820095423,0.835112487661677,0.598433825990659,0.290988009629659,0.35454455692105,0.695571389493452,0.938166336824919,0.959086473018925,0.721794961968774,0.298849026547776,-0.200804032679763,-0.492314803130252,-0.152653568965112,0.505262929915753,1.0295392517115,1.29436089023258,1.26521047660116,0.920392228909146,0.397589642452104,0.125698688027548,0.221829157813856,"LIN4-LIN5",2184,"DG_s11",41.687,42.297,43,43,10,10,3,17,0.703,"Left",3,17,14,0,14,14,0,0,0,-14,"10-10",7,-7,10,3,10,17
