"","trial","electrodes","pre_13","pre_12","pre_11","pre_10","pre_9","pre_8","pre_7","pre_6","pre_5","pre_4","pre_3","pre_2","pre_1","post_1","post_2","post_3","post_4","post_5","post_6","post_7","post_8","post_9","post_10","post_11","post_12","post_13","post_14","post_15","post_16","post_17","post_18","post_19","post_20","post_21","post_22","post_23","post_24","post_25","post_26","post_27","post_28","post_29","X","SID","newround_time","choice_time","buttonpress_time","reveal_time","self_payoff","other_payoff","self_foregone","other_foregone","RT","side_chosen","self_var_payoff","other_var_payoff","ineq_var_abs","ineq_choice_abs","ineq_foregone_abs","ineq_disadvent","ineq_advent","ineq_disadvent_choice","ineq_advent_choice","ineq_choice","chose_equality","self_diff","other_diff","L_self","R_self","L_other","R_other"
"1",2,"POL LAM3-Ref-POL LAM4-Ref",0.0316328908333333,0.00946055950000001,0.0444454208333333,0.0729851605,-0.0163628468333333,-0.0665411441666667,-0.0169480448333333,0.1532497965,0.2420777325,0.205250105833333,0.0500440365,0.0679752365,-0.0242020175,-0.0828019548333333,-0.1914168365,-0.114592861166667,-0.0181351818333333,0.0834883798333333,0.172996691833333,0.0723403991666667,-0.0536048861666667,-0.1511802835,-0.0124509261666667,-0.0362840315,-0.0738251341666667,-0.226185960833333,-0.142886604166667,-0.159444504166667,-0.174306614833333,-0.1841053075,-0.2890292075,-0.204034252166667,-0.207252472833333,-0.0695987235,-0.0763672595,-0.116295034833333,-0.0923341935,-0.1038526841,-0.0125602461,-0.111134820766667,-0.0345073029,-0.1729676049,1030,"DG_s06",5,5.703,9.531,9.531,12,12,10,10,3.828,"Left",12,12,0,0,0,0,0,0,0,0,"Equal",2,2,12,10,12,10
"2",2,"POL LAM4-Ref-POL LAM5-Ref",0.18342402705,0.108944480983333,0.0619850123166667,-0.07423398235,-0.129905149016667,-0.00116898835,0.0423213649833333,0.204456778316667,0.199784998316667,0.231143980983333,0.117384932116667,-0.00936537255,-0.02415286655,0.05431351565,0.0816823269833333,0.141219664983333,0.20438432765,0.166897666983333,0.110736350316667,-0.03689589035,0.12703656365,0.133682488983333,0.22892049365,0.0605950583166667,0.108584496316667,0.0818068143166667,0.133999864983333,0.04536746165,-0.02439423795,0.0360600667166667,0.0865520073833333,0.08840695273,0.16083226473,0.167732875396667,0.15492247165,7.86347666666826e-06,-0.0576142505233333,-0.0700252278566667,-0.136401645016667,-0.119478812096667,0.0580377719033333,0.168192833236667,1030,"DG_s06",5,5.703,9.531,9.531,12,12,10,10,3.828,"Left",12,12,0,0,0,0,0,0,0,0,"Equal",2,2,12,10,12,10
"3",3,"POL LAM4-Ref-POL LAM5-Ref",-0.11568140095,0.0129276743833333,0.0803144077166667,0.169852983916667,0.11788287725,0.0659805865833333,0.0165273803833333,0.04424962705,-0.0200470822833333,-0.0440592162833333,-0.168054605016667,-0.0436185250166667,0.0666410569833333,0.160406596383333,0.0777678755833333,0.0645587735833333,0.0805503841833333,0.165791220316667,0.124710762316667,0.0568315917166667,-0.0605850838833333,-0.0984095758833333,-0.0730159152166667,-0.05885166895,0.0182940783833333,-0.0795316510166667,-0.104686737016667,-0.209894497016667,-0.05691734495,-0.09262392495,0.000382461716666664,-0.0935028122833333,-0.06688644095,-0.11559139495,-0.09944424295,-0.11425316495,-0.0986266422833333,-0.131625789616667,0.0236605543833333,0.0668489717166667,0.13064573705,0.0366325423833333,1031,"DG_s06",10.531,11.235,13.188,13.188,10,10,8,8,1.953,"Left",8,8,0,0,0,0,0,0,0,0,"10-10",2,2,10,8,10,8
"4",3,"POL LAM3-Ref-POL LAM4-Ref",0.12967637335,0.197169510016667,0.12552679935,0.16161606015,0.0473099934833333,0.202245083483333,0.266315201483333,0.24097243615,0.0692867428166667,-0.07853135585,-0.0352169631833333,0.00920560748333333,0.01542090595,-0.105337321383333,-0.0165852733833333,-0.04349294585,0.07430028235,0.0841488276833333,0.0879542470166667,0.134036665483333,0.218155266816667,0.297310763483333,0.149396976816667,-0.06715952585,-0.09499152385,-0.0990701871166667,-0.0584088057833333,-0.00318840178333333,0.124804521483333,0.11984311415,-0.00716253518333333,-0.00929989718333333,-0.01119418165,0.15339194035,0.149857171016667,0.121255094816667,-0.0444426871833333,-0.0766812271833333,-0.0141723895833333,0.0160738944166667,0.00220636375,0.0824029534833333,1031,"DG_s06",10.531,11.235,13.188,13.188,10,10,8,8,1.953,"Left",8,8,0,0,0,0,0,0,0,0,"10-10",2,2,10,8,10,8
"5",4,"POL LAM4-Ref-POL LAM5-Ref",-0.107112194833333,-0.0934449108333333,-0.0521930255,-0.0183062308333333,-0.0886540301666667,-0.144756488166667,-0.0713134315,0.0312892451666667,0.0557111098333333,0.0422072571666667,0.0388330351666667,-0.00758699083333333,0.0142455818333333,-0.0843592541,-0.0581001854333333,-0.158128558766667,-0.0208165181666667,0.0229461718333333,0.103074448166667,0.00800917283333333,0.0501054041666667,0.0896545678333333,0.128327985166667,0.178010075166667,0.236717361833333,0.154929453833333,0.0853764437,0.0259069877,0.0574605757,-0.0625283681666667,-0.146323292833333,-0.1563209967,-0.0443123493666667,0.0179503639666667,0.0564864298333333,0.0301357861,0.0856014694333333,0.107904428966667,0.0744703720333333,-0.0347011233,-0.00397153249999999,-0.0617762725,1032,"DG_s06",14.188,14.891,16.531,16.531,28,4,10,10,1.64,"Left",28,4,24,24,0,0,-24,0,-24,24,"Advent",18,-6,28,10,4,10
"6",4,"POL LAM3-Ref-POL LAM4-Ref",-0.110887225333333,0.0753675813333333,0.244808168666667,0.108651978666667,0.034273474,-0.017391794,-0.0689598793333333,-0.0362138340666667,-0.121156570066667,-0.0759836620666667,-0.132537567333333,-0.0805713286666667,0.05400061,0.052085112,0.0828387046666667,-0.0623965086666667,-0.0244795893333333,0.134137162666667,0.190566396,0.1350508328,-0.101006220533333,-0.0666591872,-0.0344969306666667,0.0797468493333333,0.0921274493333333,0.142299833,0.108004646333333,0.146912711,0.0923399106666667,0.0270044046666667,-0.01901608,-0.01131104,-0.0106204861333333,0.0474980472,0.0686043338666667,0.270904752666667,0.169802292,0.211927745333333,0.0393534186666667,0.015300904,-0.068900694,-0.0933160413333333,1032,"DG_s06",14.188,14.891,16.531,16.531,28,4,10,10,1.64,"Left",28,4,24,24,0,0,-24,0,-24,24,"Advent",18,-6,28,10,4,10
"7",5,"POL LAM4-Ref-POL LAM5-Ref",0.0258288266666667,-0.0231664973333333,0.113096977333333,0.135788162,0.187874778,0.100723538666667,0.101665160666667,0.182610282,0.232867154933333,0.226185488266667,0.0867879009333333,-0.0582998353333333,-0.020854636,0.0384132553333333,0.190968564666667,0.153701352266667,0.0834803916,0.0516159016,0.103978788,0.281734147333333,0.281274430666667,0.256505330666667,0.0596688946666667,0.0764615204066667,0.0861981280733333,0.11991231074,0.141710002333333,0.2093235712,0.289744782533333,0.203975267866667,0.190635462666667,0.269320264666667,0.334222130533333,0.2891392652,0.233555329866667,0.228031885333333,0.160422062666667,0.112746488666667,0.107047495466667,0.179697259466667,0.1297725588,0.109688072666667,1033,"DG_s06",17.531,18.235,19.25,19.25,22,6,10,10,1.015,"Right",22,6,16,16,0,0,-16,0,-16,16,"Advent",12,-4,10,22,10,6
"8",5,"POL LAM3-Ref-POL LAM4-Ref",-0.134022448473333,-0.2087935025,-0.0917257725,0.0725924168333333,0.2077683575,0.223247140833333,0.0613352288333333,-0.0822673985,-0.101043447833333,-0.0700652998333333,0.0233582741666667,0.0842357435,0.0342537081666667,-0.0677333385,-0.1806400265,-0.152789255833333,-0.153408771833333,-0.0670692238333333,-0.1180284285,-0.0622318517866667,-0.19256013112,-0.0658675044533333,0.000399030833333328,-0.0127903291666667,-0.0661547888333333,-0.113483148166667,-0.0942527955,-0.1386065625,-0.101570311166667,-0.0391727551666667,-0.00290354783333334,-0.0417150643666667,-0.1062053397,-0.0548785190333333,-0.000532033966666665,0.0217034689,0.0211185789,0.0530377023666667,0.0909321855,0.0568463141666667,-0.0479702964333333,-0.0507859371,1033,"DG_s06",17.531,18.235,19.25,19.25,22,6,10,10,1.015,"Right",22,6,16,16,0,0,-16,0,-16,16,"Advent",12,-4,10,22,10,6
"9",6,"POL LAM3-Ref-POL LAM4-Ref",-0.1418072875,-0.100480120833333,-0.0633757695,-0.0672937255,-0.1066174079,-0.0779407159,-0.0571066359,-0.0140271508333333,0.0573355565,-0.00586300150000001,0.00920544249999999,-0.0519006695,0.0256246551666667,0.0255508651,0.0317242297666667,-0.0910201264666667,-0.2358147564,-0.1640356024,-0.0820707261666667,0.130080041833333,-0.0149599435,-0.0195873339666667,-0.157808646633333,-0.0941095103,-0.0962236178333333,0.00505006243333334,0.1331212381,0.132940089433333,0.0667090351666667,-0.0742005868333333,-0.156332198166667,-0.1770769475,-0.210369078833333,-0.204092312166667,-0.179222728833333,-0.0626213481666667,0.0689001338333333,0.1539451201,0.214413932766667,0.0811211790333333,-0.0371196205666667,-0.157762020566667,1034,"DG_s06",20.25,20.953,22.453,22.453,30,15,10,10,1.5,"Left",30,15,15,15,0,0,-15,0,-15,15,"Advent",20,5,30,10,15,10
"10",6,"POL LAM4-Ref-POL LAM5-Ref",-0.210241817833333,-0.138044152166667,0.0912264345,0.216260171166667,0.2393696515,0.0753436484333334,-0.0615006929,-0.126972947566667,-0.159821357166667,-0.0563562758333333,0.0796841655,0.0224839268333333,-0.0410027971666667,-0.230334183833333,-0.240250347833333,-0.3640532305,-0.299141485166667,-0.2501386285,-0.131810953166667,-0.1062516085,-0.1299910485,-0.127405433833333,-0.1346037105,-0.0275008325,0.0206609108333334,-0.0151371025,-0.0804267331666667,-0.172345915833333,-0.0938388551666667,-0.1399017663,-0.146003184966667,-0.202346632966667,-0.2719685705,-0.271196691833333,-0.261789267833333,-0.1622741345,-0.0830094451666667,-0.0917591551666667,-0.0709758938333333,-0.106801687166667,-0.1215582545,-0.00411882249999998,1034,"DG_s06",20.25,20.953,22.453,22.453,30,15,10,10,1.5,"Left",30,15,15,15,0,0,-15,0,-15,15,"Advent",20,5,30,10,15,10
"11",7,"POL LAM4-Ref-POL LAM5-Ref",-0.0057164312,-0.074908507,-0.164936347,-0.099791023,-0.0637024639733333,0.0984372026933333,0.0523947606933333,0.0995794516666667,-0.0198620936666667,-0.00604173966666666,-0.0353556343333333,0.0440005783333333,-0.00775780166666666,-0.092062145,-0.251160965666667,-0.192420619,-0.120758533,0.0639737336666667,0.109234349,0.136405929666667,0.008748323,-0.118524324066667,-0.0820986460666667,0.00806879326666667,0.0160462663333333,-0.0475571158533333,-0.150623619853333,-0.20893162652,-0.289385280333333,-0.220046860333333,-0.160218117,-0.172859839,-0.204544661,-0.109760581666667,0.131616849,0.127454093666667,-0.00742695566666667,-0.198842257666667,-0.141444295666667,-0.0170885023333333,-0.0552902556666667,-0.151411205,1035,"DG_s06",23.453,24.156,25.125,25.141,10,10,28,4,0.969,"Right",28,4,24,0,24,0,-24,0,0,24,"10-10",-18,6,28,10,4,10
"12",7,"POL LAM3-Ref-POL LAM4-Ref",-0.137646281783333,0.00741059221666667,0.13235774355,0.14628819915,0.102971414483333,0.05347146915,0.202464194216667,0.19495106241,0.281157023743333,0.109170375076667,0.134322254883333,0.0102250994833333,0.0408201434833333,-0.0511284705166667,-0.03557099845,0.00513372488333333,0.109802948216667,0.0895383968833333,0.05748506555,-0.0295343451166667,-0.000986517383333333,-0.0172248847166667,-0.0387127939166667,-0.119593254983333,0.0215033196833333,0.08824049955,0.119712616883333,-0.0558746697833333,-0.0645356851166667,-0.0154777751166667,0.0454024122166667,0.04526625355,0.02686591955,-0.05658691845,-0.0388306657833333,-0.07287827245,0.04736097955,0.01370258355,0.0728667788833333,0.09019397755,0.258005288216667,0.29534532755,1035,"DG_s06",23.453,24.156,25.125,25.141,10,10,28,4,0.969,"Right",28,4,24,0,24,0,-24,0,0,24,"10-10",-18,6,28,10,4,10
"13",8,"POL LAM4-Ref-POL LAM5-Ref",0.00219622083333333,0.0615309927666667,0.0713966627666667,0.190838062766667,0.2427502975,0.192420992833333,0.237063523166667,0.2821304765,0.3153024605,0.0938007441666667,-0.0087101625,-0.0373770558333333,0.0381220035,-0.0479253231666667,-0.0236239358333333,0.00478225083333333,0.1716706975,0.2011295875,0.246210500833333,0.0966830848333333,0.138705320166667,0.1168617135,0.172911956166667,0.2286918475,0.238124214166667,0.337552186833333,0.170149013233333,0.115621793233333,0.0023987279,0.0206290988333333,-0.0906242742333333,-0.1193614569,-0.0306389209,0.0111850288333333,-0.00218369116666667,-0.0911622238333333,-0.0393395765,0.0526197455,0.101620744833333,0.0737574808333333,0.00869763003333333,-0.0194502473,1036,"DG_s06",26.141,26.844,28.36,28.36,4,4,10,10,1.516,"Right",4,4,0,0,0,0,0,0,0,0,"Equal",-6,-6,10,4,10,4
"14",8,"POL LAM3-Ref-POL LAM4-Ref",-0.176272486833333,-0.1616625835,-0.321231152833333,-0.3455620175,-0.3382820595,-0.204714582833333,-0.180458288833333,-0.2156662175,-0.269885940833333,-0.242750274833333,-0.154721294166667,-0.0105742608333333,-0.00151754083333333,-0.0616957428333333,-0.120262396166667,-0.2166711175,-0.0600679088333333,-0.1356817655,-0.163597972166667,-0.369193352166667,-0.418923822833333,-0.4496124495,-0.368393396833333,-0.419045336166667,-0.299210646633333,-0.275710162366667,-0.2478879957,-0.281085566966667,-0.281808733166667,-0.186264691166667,-0.2343143921,-0.190481812833333,-0.219917148166667,-0.217649290833333,-0.3366778795,-0.3208243915,-0.276727980166667,-0.199322884833333,-0.196929184833333,-0.372404854833333,-0.416241748833333,-0.242794876833333,1036,"DG_s06",26.141,26.844,28.36,28.36,4,4,10,10,1.516,"Right",4,4,0,0,0,0,0,0,0,0,"Equal",-6,-6,10,4,10,4
"15",9,"POL LAM4-Ref-POL LAM5-Ref",-0.10853576225,-0.114047919583333,-0.145600700916667,-0.10341137345,-0.09810150145,0.03211675855,0.0698988852166667,-0.04131458145,-0.0553461281166667,-0.0597114861166667,-0.0329027321166667,-0.03769377285,-0.0255982681833333,0.07092370515,0.0927948912166666,0.13299220455,0.127514923883333,0.132368591216667,0.131739437883333,0.0906780812166667,0.0297295818833333,-0.09188911145,-0.0231817947833333,0.00228073581666667,0.104744275816667,0.0853343424833333,0.01967789855,-0.06544610205,-0.09802744405,-0.116743881383333,-0.02213808945,-0.04119724945,0.0601401812166667,0.0468500552166667,0.09162659795,0.0746095746166667,-0.04632774805,-0.144907208783333,-0.118640732116667,0.0527539912166667,0.08343400455,0.02196879255,1037,"DG_s06",29.36,30.063,31.797,31.797,10,10,13,7,1.734,"Right",13,7,6,0,6,0,-6,0,0,6,"10-10",-3,3,13,10,7,10
"16",9,"POL LAM3-Ref-POL LAM4-Ref",-0.137929011333333,-0.120045494533333,-0.0758347598666667,-0.0731448265333333,0.0184034726666667,-0.0133095613333333,0.0513712453333333,-0.0469446633333333,0.114847896,0.0488694313333333,0.041667122,-0.0970517306666667,-0.00595585933333334,0.0482945593333333,-0.003032746,-0.0923391133333333,-0.12804315,0.00312044933333333,0.0413299333333333,0.146883872666667,0.0166271986666667,-0.131817094,-0.24814415,-0.219341783333333,-0.11678976,-0.0804263014533333,-0.0100797854533333,-0.0472136407866667,-0.0365908326666667,-0.088829636,-0.0580804833333333,-0.117687422666667,-0.119296828666667,-0.236543727333333,-0.244949974666667,-0.259331564133333,-0.1228775208,-0.0807545584666667,0.079285857,0.0430805783333333,0.0179675926666667,-0.102178612,1037,"DG_s06",29.36,30.063,31.797,31.797,10,10,13,7,1.734,"Right",13,7,6,0,6,0,-6,0,0,6,"10-10",-3,3,13,10,7,10
"17",10,"POL LAM3-Ref-POL LAM4-Ref",-0.0422673065333333,0.0325131216666667,0.0473727863333333,-0.0702626193333333,0.056652578,0.121407588866667,0.1587077512,0.0300794398666667,-0.131576772333333,-0.098361161,-0.0287975996666667,0.000358020333333334,-0.027138101,-0.022714589,0.014613067,0.0705534223333333,0.119915075666667,0.167856774333333,-0.0158857143333333,-0.0588412876666667,-0.148075867666667,-0.00989845166666667,-0.0233246916666667,0.156852581666667,0.060064903,-0.0378403436666667,-0.196470258666667,-0.0609997506666667,0.00258193666666667,0.0811371583333333,-0.0271240723333333,0.121615527,0.127070220333333,0.310044226333333,0.1528644862,0.0529965882,-0.0374419191333333,-0.0174193463333333,0.123446751,0.00669034233333334,0.052068833,-0.081707023,1038,"DG_s06",32.797,33.5,35.516,35.516,10,26,10,10,2.016,"Right",10,26,16,16,0,16,0,16,0,-16,"Disadvent",0,16,10,10,10,26
"18",10,"POL LAM4-Ref-POL LAM5-Ref",0.119358553666667,0.0643131803333333,0.00261880506666667,0.102863306133333,0.188805707333333,0.2597443406,0.209501219533333,0.101758517,0.056315117,0.078301337,0.100427768333333,-0.0271856463333333,-0.0343309856666667,-0.1226184058,-0.1362390578,-0.242279085133333,-0.150644083,0.019919059,0.151802939,0.111861473666667,-0.0109252732666667,-0.0808912992666667,-0.0140152339333333,0.0469809683333333,0.092283661,0.095417281,0.003916233,0.0175723796666667,-0.0311380823333333,0.177279566333333,0.139584767666667,0.184517171666667,0.0307320063333333,0.0546863916666667,0.0740991723333333,0.132677828333333,0.151854903,0.0748767576666667,0.121233635666667,0.0400266896666667,0.0299335676666667,-0.0759550843333333,1038,"DG_s06",32.797,33.5,35.516,35.516,10,26,10,10,2.016,"Right",10,26,16,16,0,16,0,16,0,-16,"Disadvent",0,16,10,10,10,26
"19",11,"POL LAM4-Ref-POL LAM5-Ref",0.318422161133333,0.252207014333333,0.221330035666667,0.0787928723333333,0.188538278333333,0.126314949,0.136797440333333,0.0845479236666667,0.087509257,0.0428003623333333,0.022773997,0.0512614136666667,0.00371133366666666,0.050359937,0.203711527,0.248419821666667,0.176232213866667,0.000757027866666662,0.0695417672,0.00102193366666666,-0.003225909,-0.0363593636666667,0.0204606103333333,0.0977259656666667,0.0777444456666667,0.0901642236666667,0.0412800836666667,0.0318577743333333,-0.0182965576666667,-0.0883445176666667,-0.0627075696666667,-0.028752449,0.0361525196666667,0.146157075,0.0985753443333333,0.243582462333333,0.196276797,0.339183367066667,0.254278580886667,0.249002254886667,0.15741410082,0.161241881666667,1039,"DG_s06",36.516,37.219,39.297,39.297,13,22,10,10,2.078,"Right",13,22,9,9,0,9,0,9,0,-9,"Disadvent",3,12,10,13,10,22
"20",11,"POL LAM3-Ref-POL LAM4-Ref",-0.0419360641666667,-0.0347171075,-0.0832039788333333,-0.0957901588333333,0.0329005118333333,0.126005385833333,0.0493593551666667,-0.0847492368333333,-0.138785418833333,-0.1073406735,-0.0857771841666667,-0.104408252833333,0.0424836391666667,0.0570244565,0.113910727166667,-0.0571978861666667,-0.0741835075,-0.0961361608333333,-0.0451472101666667,-0.115901746166667,-0.2154532535,-0.3481770775,-0.2487483075,-0.249724060833333,-0.140062870166667,-0.2024767453,-0.142106728633333,-0.0899784946333333,0.0117624831666667,0.0349047798333333,0.0622719191666667,-0.0311190801666667,0.0515220931666667,-0.0223594621666667,0.0496229091666667,-0.0613187159,-0.0829062119,0.0400284727666667,0.0324439525,0.1538993265,-0.0143642968333333,0.00370078916666666,1039,"DG_s06",36.516,37.219,39.297,39.297,13,22,10,10,2.078,"Right",13,22,9,9,0,9,0,9,0,-9,"Disadvent",3,12,10,13,10,22
"21",12,"POL LAM4-Ref-POL LAM5-Ref",-0.0190178771666667,-0.0105701105,-0.0342492024333333,-0.1501362551,-0.0037124551,-0.0009038465,0.1059364375,0.100920784166667,-0.0464196351666667,-0.184447665166667,-0.173081751833333,-0.00978476783333333,0.1082740675,-0.0230928405,0.0143633981666667,-0.0933813158333333,-0.0300414545,0.00943816636666667,0.0721814163666667,0.0559188438333333,-0.100024678366667,-0.0149393643666667,0.0929026928333333,0.0902925188333333,-0.0178854745,-0.200365509633333,-0.174579040966667,-0.0512673876333333,0.0649274681666667,0.113926626833333,0.2336665275,0.147739920966667,0.1265920063,-0.0587448277,-0.0542585152333333,-0.139034986566667,-0.0890831939,-0.0114521385,0.1646841195,0.1296710646,0.1641868486,0.1402217266,1040,"DG_s06",40.297,41,42.844,42.844,16,4,10,10,1.844,"Left",16,4,12,12,0,0,-12,0,-12,12,"Advent",6,-6,16,10,4,10
"22",12,"POL LAM3-Ref-POL LAM4-Ref",0.188118447,0.227411057,0.0924478816666667,0.105486532266667,0.0953800356,0.0698009996,0.126036060066667,0.0810469554,0.0412230734,-0.0575269763333333,-0.070807671,0.0389283116666667,0.0188129136666667,0.0111188863333333,-0.0159968123333333,0.0380301403333333,-0.031772633,-0.0831369903333333,0.077365497,0.111694921666667,0.177041850333333,0.0540846285333333,0.2878247572,0.338044994333333,0.332476324133333,0.143292307466667,0.160456655,0.174031368333333,0.100773211666667,0.0553687123333333,0.039688249,0.0407531396666667,0.0253747916666667,-0.0286252876666667,-0.0260642583333333,-0.0152382463333333,0.0699063943333333,0.254729627666667,0.281552049,0.263261444333333,0.147889375666667,0.129413639666667,1040,"DG_s06",40.297,41,42.844,42.844,16,4,10,10,1.844,"Left",16,4,12,12,0,0,-12,0,-12,12,"Advent",6,-6,16,10,4,10
"23",13,"POL LAM4-Ref-POL LAM5-Ref",-0.0306816780666667,-0.1088290054,-0.0824678014666667,-0.0350719746666667,0.0152149053333333,0.00617839866666667,-0.0307934706666667,0.0490765433333333,0.080500008,0.0388922813333333,0.00362496799999999,0.0138572146666667,0.076317764,0.0226571224666667,-0.0425445842,-0.0955041255333333,-0.172374890666667,-0.181896077333333,-0.172835950666667,-0.198240710666667,-0.134665297333333,-0.0805735173333333,-0.016740504,-0.0621720646666667,-0.146984584,-0.114762632,-0.171814636666667,-0.114198005333333,-0.0437795306666667,0.056365988,0.175412956,0.077073468,-0.0402141176666667,-0.225829892333333,-0.277228070333333,-0.300436651333333,-0.282339348666667,-0.279003200666667,-0.241940971873333,-0.272893807873333,-0.250152049873333,-0.144387525333333,1041,"DG_s06",43.844,44.547,46.641,46.641,8,11,10,10,2.094,"Right",8,11,3,3,0,3,0,3,0,-3,"Disadvent",-2,1,10,8,10,11
"24",13,"POL LAM3-Ref-POL LAM4-Ref",-0.132361374215,-0.095673532215,0.0134007173183333,0.0524633892383333,0.183173123238333,0.333754227238333,0.375164648651667,0.223288421985,-0.0567332146816667,-0.137307848015,-0.114849477328333,-0.111476387328333,0.0474337993383333,0.00512853398499999,0.151732729318333,0.093782059985,0.097651481985,-0.0155443266816667,-0.0875767046816667,-0.135188245348333,-0.113972041148333,0.147761792851667,0.285270652851667,0.336971875318333,0.124951419985,0.035282937985,-0.006315692015,-0.0213493866816667,-0.0507570866816667,-0.058863342015,-0.137497428015,-0.113356610015,-0.175390506681667,-0.171722294681667,-0.167808065348333,-0.0860039493483333,0.0333546346516667,-0.032453972015,-0.104907256681667,-0.228392490015,-0.271548948681667,-0.324612458015,1041,"DG_s06",43.844,44.547,46.641,46.641,8,11,10,10,2.094,"Right",8,11,3,3,0,3,0,3,0,-3,"Disadvent",-2,1,10,8,10,11
"25",14,"POL LAM3-Ref-POL LAM4-Ref",0.0295579697333333,0.0358300730666667,0.0663873762666667,0.0366605529333333,0.1552039276,0.0795547836,0.2162884536,0.143598972266667,0.1177124156,-0.0935246865333333,-0.0671263852,-0.0235275552,0.0378222309333333,-0.0723647037333333,-0.055716538,-0.0964053366666667,-0.095881222,-0.184957707733333,-0.247027573066667,-0.157245383933333,-0.0958068692666667,-0.109867215933333,-0.129970079733333,-0.0865646770666667,-0.0804174970666667,-0.179130035733333,-0.158400719733333,-0.125933299733333,-0.0852147304,0.00652276226666668,0.174982828933333,0.21807416508,0.0569671237466667,-0.130977107406667,-0.0603339435533333,-0.00303313335333333,0.145473233133333,0.0660595238,0.109663986266667,0.0467547588666667,-0.0803767811333333,-0.1462794658,1042,"DG_s06",47.656,48.36,50.594,50.594,10,10,18,18,2.234,"Right",18,18,0,0,0,0,0,0,0,0,"10-10",-8,-8,18,10,18,10
"26",14,"POL LAM4-Ref-POL LAM5-Ref",0.0156085859666667,-0.0514650224333333,-0.207117313766667,-0.166744679766667,-0.0387399247,-0.0046541207,0.115584730633333,0.0303021926333333,0.03782697006,-0.03069141794,-0.10572113994,-0.0483957264333333,-0.0287359037666667,0.0241345029,0.0799546053,-0.0402333427,0.0691496506333333,0.0706052786333333,0.190215053966667,0.0727930129666667,-0.0566969537666667,-0.139421103766667,-0.0296423630333333,0.145780327033333,0.0766074817,0.122036921966667,0.0273256553,0.159708927966667,0.139135894633333,0.177277834633333,0.1337834013,0.0492899093,-0.0825736813666667,-0.0584346720333333,-0.101288813366667,0.0572021926333333,0.198505865966667,0.223154227833333,0.215238405833333,0.0165494638333333,-0.00603663323333333,-0.167360573233333,1042,"DG_s06",47.656,48.36,50.594,50.594,10,10,18,18,2.234,"Right",18,18,0,0,0,0,0,0,0,0,"10-10",-8,-8,18,10,18,10
"27",15,"POL LAM3-Ref-POL LAM4-Ref",0.187366312266667,0.141587904733333,0.139498416733333,0.277799086066667,0.3300611896,0.2895436276,0.208218566266667,0.233159732266667,0.281435972933333,0.2625982516,0.0604012589333333,-0.0449510710666667,-0.0035507472,0.1103433538,0.0932906218,0.0722674779333333,0.102549236933333,0.334225614933333,0.463915868266667,0.3969080336,0.268413386933333,0.183736846933333,0.216700092266667,0.128255946933333,0.161206024266667,0.154734748266667,0.278427902266667,0.2646917216,0.193475382266667,0.0794624622666667,0.0796173522666667,0.1715348276,0.249870662933333,0.143220120266667,0.115257340933333,0.0010752956,-0.0047956084,-0.107264293066667,-0.0708110677333333,-0.0695253290666667,0.0101081856,0.00987507560000001,1043,"DG_s06",51.61,52.313,55,55,10,10,8,16,2.687,"Right",8,16,8,0,8,8,0,0,0,-8,"10-10",2,-6,8,10,16,10
"28",15,"POL LAM4-Ref-POL LAM5-Ref",0.261401551,-0.024061393,0.0222300003333333,0.0529533963333333,0.032497265,-0.114106596333333,-0.113414247666667,-0.022843437,0.023971291,-0.041117461,-0.069641877,-0.047971745,0.020869837,0.0105267276666667,0.0670439003333333,0.0677724116666667,0.114360308333333,0.0743302223333333,-0.00123331766666667,-0.015919225,0.0334208383333333,0.131284448333333,0.1215938627,0.144911972033333,0.1036109907,0.159876253666667,0.180888961,0.268505635666667,0.238725926333333,0.270834631,0.210806479666667,0.319562599,0.199835894333333,0.124023368933333,-0.0915453377333333,-0.118917077733333,-0.108918971,-0.0537099443333333,0.00704574233333333,-0.009011953,-0.020287161,0.105109839,1043,"DG_s06",51.61,52.313,55,55,10,10,8,16,2.687,"Right",8,16,8,0,8,8,0,0,0,-8,"10-10",2,-6,8,10,16,10
"29",16,"POL LAM4-Ref-POL LAM5-Ref",0.0939259404,0.1911200264,0.2054610724,0.1750911524,0.0771841410666667,0.0621577617333333,-0.0871726516,-0.118087268266667,-0.0549934042666667,0.0531034181333333,0.0644660945333333,0.0675212538666667,3.29248000000004e-05,0.0694199310666667,-0.0439266216,-0.0185541816,-0.0516712269333333,0.00527877506666666,0.0037090164,-0.0371381622666667,-0.1102995976,-0.0569073482666667,-0.07998101242,0.0332794929133333,0.00954290304666667,0.0832230578666667,0.0354695932,0.0791079736,0.0616253036,0.206445902933333,0.286095021733333,0.1782338824,0.0499409190666667,-0.0565708802666667,0.0127272824,-0.0317821749333333,-0.0799115242666667,-0.120324642266667,-0.00297219493333333,0.0290482870666667,0.0877742384,0.0854659826,1044,"DG_s06",56.016,56.719,58.391,58.391,10,10,3,17,1.672,"Left",3,17,14,0,14,14,0,0,0,-14,"10-10",7,-7,10,3,10,17
"30",16,"POL LAM3-Ref-POL LAM4-Ref",-0.107362284333333,-0.175621549,-0.235219647,-0.0753071676666667,0.0475927356666667,0.0854474176666667,-0.0437184963333333,-0.072174911,-0.0411501163333333,0.0813009076666667,0.144083267666667,0.0695579716666667,-0.0595500303333333,-0.124448941,-0.148923503333333,-0.242645571333333,-0.336740154,-0.358269267,-0.254401247,-0.262850232333333,-0.225519657666667,-0.242756071,-0.187516079666667,-0.0600574956666667,0.038309145,0.0105826896666667,-0.0583459294,-0.118270650066667,-0.149533747466667,-0.0639233057333333,-0.1274904904,-0.124797733,-0.159190913,-0.137123754333333,-0.137891648866667,-0.199532310866667,-0.162273981533333,-0.007061231,0.0465199456666667,-0.0191452607333333,-0.0873335074,-0.1577790734,1044,"DG_s06",56.016,56.719,58.391,58.391,10,10,3,17,1.672,"Left",3,17,14,0,14,14,0,0,0,-14,"10-10",7,-7,10,3,10,17
"31",17,"POL LAM4-Ref-POL LAM5-Ref",0.111041927666667,0.0618974386,-0.0251069767333333,0.1155694626,0.230435351666667,0.283675299666667,0.105397451466667,0.0546661128,-0.0843545338666667,-0.064942809,-0.068824805,0.0501231883333333,0.0146843323333333,-0.00881454806666666,-0.0388989986666667,0.0322312273333333,-0.0999836109333333,-0.222462611666667,-0.304219513,-0.159962713,-0.0343593088,-0.00257534013333333,-0.00286293673333333,-0.0227493654,0.0371204737333333,0.0853924388,0.0651552839333333,-0.0218050829333333,0.0192912079333333,-0.0396542444,0.264430674666667,0.266080922,0.225012411666667,-0.0467703216666667,-0.0815209923333333,0.0659915106666667,0.144799490666667,0.061318698,-0.00291542566666667,-0.114449243,-0.105042111666667,-0.0404012376666667,1045,"DG_s06",59.391,60.094,62.391,62.391,10,10,6,6,2.297,"Left",6,6,0,0,0,0,0,0,0,0,"10-10",4,4,10,6,10,6
"32",17,"POL LAM3-Ref-POL LAM4-Ref",-0.0781007705,-0.0539054595,-0.123550474833333,-0.160958402833333,-0.214040496166667,-0.126699929873333,-0.11357138854,-0.109969249206667,-0.237339946166667,-0.199353452166667,-0.0711524648333333,0.0572369378333333,-0.00408712283333335,-0.120586556166667,-0.1381014605,-0.0720591838333333,-0.0826171705,-0.187337502833333,-0.345075252166667,-0.3724171295,-0.290965020166667,-0.207427742166667,-0.229964544833333,-0.2275056535,-0.2189665599,-0.104915146566667,-0.128468743766667,-0.139317519366667,-0.137338570033333,-0.145422438166667,-0.0742238035,-0.0489530595,0.102364919166667,0.0797165245,0.0984887218333333,0.00336832916666666,-0.0471920408333333,-0.1563488415,-0.198720228833333,-0.192191280166667,-0.223517630166667,-0.2014061235,1045,"DG_s06",59.391,60.094,62.391,62.391,10,10,6,6,2.297,"Left",6,6,0,0,0,0,0,0,0,0,"10-10",4,4,10,6,10,6
"33",18,"POL LAM4-Ref-POL LAM5-Ref",0.135381982666667,0.254343353333333,0.219138580666667,0.139399906666667,0.105853554733333,-0.0502914519333333,-0.0972514246,-0.164441848,-0.0115970413333333,0.045372998,0.041317058,-0.037625112,-0.01634183,0.0905339886666667,0.210482438666667,0.16242077,0.152686757333333,0.0854647226666667,0.208185125333333,0.211155232,0.186061533333333,0.0134195006666667,0.0197695746666667,0.0486808166666667,0.0655732866666667,-0.0539481266666667,-0.055049706,-0.0537938686666667,0.134413838,0.225593415333333,0.258659922533333,0.143660955,-0.0137270396666667,0.00419040513333333,0.0937999993333333,0.133269797333333,0.114878938,0.021900992,0.0772573165333333,0.184693188533333,0.2596813656,0.162796067066667,1046,"DG_s06",63.391,64.094,66.86,66.86,10,10,14,26,2.766,"Left",14,26,12,0,12,12,0,0,0,-12,"10-10",-4,-16,10,14,10,26
"34",18,"POL LAM3-Ref-POL LAM4-Ref",0.103480662066667,-0.0935172379333333,-0.0953565746,-0.0883651766,0.0861566474,0.123798594733333,0.2222115014,0.252544042066667,0.217243855733333,0.1258732464,-0.0364337628,-0.0696797878,0.0156803415333333,0.0103502060666667,0.0258270260666667,-0.0051092866,0.0262660400666667,0.119978242733333,0.0748649447333333,0.1275024114,-0.0488112286,-0.0364366615333333,-0.148526621533333,-0.0459354055333333,-0.0221134146,0.138462742733333,0.232661312066667,0.169557322066667,0.136952034733333,0.013398617,0.136245094746667,0.0222532914133333,-0.0375599761866667,-0.0412500252666667,0.0299779147333333,0.1103776694,-0.0046358768,-0.0080691648,0.0630585925333333,0.0828896834,0.0636459540666667,0.0603840675333333,1046,"DG_s06",63.391,64.094,66.86,66.86,10,10,14,26,2.766,"Left",14,26,12,0,12,12,0,0,0,-12,"10-10",-4,-16,10,14,10,26
"35",19,"POL LAM4-Ref-POL LAM5-Ref",-0.0148377743666667,-0.00104641703333333,0.0304907489666667,-0.0667491810333333,-0.0743167849666667,-0.0709277476333333,-0.0352241923,-0.0579243277,-0.148459302366667,-0.205878456766667,-0.218183918766667,-0.144362787433333,0.0501564136333333,0.103070380966667,0.0248403443,-0.211949464766667,-0.253482914766667,-0.287495349366667,-0.179672987633333,-0.106579522966667,0.0187349736333333,0.0884289929666667,0.0535556949666667,0.274330829633333,0.2451135023,0.212717692966667,0.0361345703,-0.0394201143666667,-0.00998192236666667,-0.147301553033333,-0.104264167033333,-0.130007259033333,-0.0446931257,0.109333461633333,0.1904867243,0.142415830966667,-0.0279567090333333,-0.0338886030333333,-0.0813175230333333,-0.1199803097,-0.119135606366667,-0.0316204063666667,1047,"DG_s06",67.86,68.563,70.922,70.922,11,7,10,10,2.359,"Left",11,7,4,4,0,0,-4,0,-4,4,"Advent",1,-3,11,10,7,10
"36",19,"POL LAM3-Ref-POL LAM4-Ref",-0.025087491,-0.0538579636666667,-0.0588079956666667,-0.0698426143333333,-0.0898608847333333,-0.0678665947333333,-0.0047599314,0.0652306503333333,0.152839185666667,0.0681783156666667,0.098774457,-0.0549069236666667,0.050138383,-0.00648912566666667,0.0558300816666667,-0.026964095,-0.115199685666667,-0.210297513666667,-0.174696310333333,0.00590147633333334,0.107635157666667,0.113467679333333,0.095843622,0.0508750946666667,0.093048343,0.100334701,0.0534017436666667,-0.022305847,-0.0805044676666667,-0.0520678303333333,-0.163730366333333,-0.198164693,-0.1794036134,-0.0331472687333333,-0.00742848326666667,-0.0975381968666667,-0.124896359866667,-0.066552862,0.019130166,0.0675309896666667,0.032609947,0.017913153,1047,"DG_s06",67.86,68.563,70.922,70.922,11,7,10,10,2.359,"Left",11,7,4,4,0,0,-4,0,-4,4,"Advent",1,-3,11,10,7,10
"37",20,"POL LAM4-Ref-POL LAM5-Ref",-0.162002903233333,-0.114799422833333,-0.1442950959,-0.266980635233333,-0.364677915233333,-0.335336047166667,-0.2119329405,-0.107041577833333,0.0169024818333333,-0.0347279575,-0.0157278375,0.0616207171666667,0.0725555605,-0.00340249483333332,-0.192638986833333,-0.2464311075,-0.1484281535,-0.1933740475,-0.1186535635,-0.283919348833333,-0.162390862833333,-0.184277898833333,-0.113519090833333,-0.110777674166667,-0.0104076101666667,-0.0297379055,-0.1478892115,-0.283252392166667,-0.218722846833333,-0.146532716833333,-0.169650212033333,-0.141686383366667,-0.114471411033333,-0.141789423833333,-0.272908777166667,-0.219598296833333,-0.135849090833333,-0.0163778953,-0.0845033299666667,0.0177281887,-0.0617236595,-0.1311146215,1048,"DG_s06",71.938,72.641,76.031,76.031,16,4,10,10,3.39,"Left",16,4,12,12,0,0,-12,0,-12,12,"Advent",6,-6,16,10,4,10
"38",20,"POL LAM3-Ref-POL LAM4-Ref",0.0128823386666667,0.074872018,0.135230528,0.123226422,0.148920068666667,0.094047488,0.078547122,0.020299978,0.0768426186666667,0.0563028713333333,0.113071268666667,0.0640007806666667,0.0108367633333333,-0.0416253633333333,-0.030291086,-0.004239606,0.0357298833333333,0.0514407053333333,0.0458667226666667,0.039162722,0.0360579706666667,0.093588574,0.0486266453333333,0.0241188100666667,0.0101216274,0.0709862007333333,-0.014374516,-0.0221093473333333,-0.00526807533333333,0.0999872446666667,0.112375619333333,0.038457036,0.010875126,0.00214305466666667,0.049729246,0.024495772,0.117091788666667,0.0582904426666667,0.0525501853333333,0.0409864993333333,0.095697132,0.0593874186666667,1048,"DG_s06",71.938,72.641,76.031,76.031,16,4,10,10,3.39,"Left",16,4,12,12,0,0,-12,0,-12,12,"Advent",6,-6,16,10,4,10
"39",21,"POL LAM4-Ref-POL LAM5-Ref",0.143259429883333,0.118840711883333,-0.01248491345,-0.0192106865833333,0.03856870675,0.04801685675,0.13540376255,0.0989822478833333,0.12117941655,0.0195013132166667,0.0346380478833333,0.00290625515,0.03026331515,-0.02883196685,-0.04843910745,-0.0135299741166667,0.0802452078833333,0.04182388055,0.00888511668333333,-0.0720842699833333,-0.0370830913166667,-0.00728181745,0.0383408972166667,0.01529169455,-0.0265096881166667,0.0804527318833333,0.113139835883333,0.0786762288833333,-0.0326839657833333,0.03029571955,0.178505839216667,0.165689113216667,0.145876181883333,0.0500368078833333,0.104025733883333,0.129991461616667,0.276571100283333,0.311071167616667,0.193823515216667,0.0333357292166667,-0.0129787701166667,0.0295972472166667,1049,"DG_s06",77.031,77.735,80.156,80.156,13,1,10,10,2.421,"Right",13,1,12,12,0,0,-12,0,-12,12,"Advent",3,-9,10,13,10,1
"40",21,"POL LAM3-Ref-POL LAM4-Ref",0.1689893097,0.1403084777,0.172534744833333,0.2597787695,0.2710018255,0.1987509455,0.0893655188333333,0.190978210166667,0.175384830166667,0.0978100708333333,-0.130319809166667,-0.0681025811666667,0.00856366483333333,0.149456466166667,0.1805684715,0.163952190833333,0.166202728166667,0.223496574833333,0.237350612166667,0.228460686833333,0.0980784311,0.0113383717666667,-0.0410969029,-0.0040103005,0.0933867955,0.169531809366667,0.18235890616,0.258389008826667,0.206376724293333,0.1927916995,0.0680655028333333,0.0985793021666667,-0.0106295698333333,-0.107344575833333,-0.1100955965,-0.0660804965,0.0276166721666667,0.100086634833333,0.295216868166667,0.300486772833333,0.1855355115,0.161249438166667,1049,"DG_s06",77.031,77.735,80.156,80.156,13,1,10,10,2.421,"Right",13,1,12,12,0,0,-12,0,-12,12,"Advent",3,-9,10,13,10,1
"41",22,"POL LAM4-Ref-POL LAM5-Ref",-0.201143096539167,-0.2050715818725,-0.236934428539167,-0.211941429205833,-0.0012862038725,0.0600109994608333,-0.0180679990725,-0.1806688190725,-0.115157530405833,0.0730751206241667,0.1171682519575,0.0563277452908333,-0.0785363018725,-0.2245663198725,-0.214130908539167,-0.218473787205833,-0.0778678918725,-0.0820186192058333,-0.138446871205833,-0.219533880539167,-0.221783760539167,-0.172054691205833,-0.168904556539167,-0.1547851138725,0.0166323287941667,-0.0278640785391667,-0.0870090492058333,-0.1674148818725,-0.194238246539167,-0.1820487758725,-0.188557839405833,-0.1183031386725,-0.0708934520058333,-0.210725275805833,-0.2351171898725,-0.264494194539167,-0.0509553278725,0.0865161167941667,0.108752768794167,-0.0644473918725,-0.248003885205833,-0.282627592539167,1050,"DG_s06",81.156,81.86,84.219,84.219,11,7,10,10,2.359,"Left",11,7,4,4,0,0,-4,0,-4,4,"Advent",1,-3,11,10,7,10
"42",22,"POL LAM3-Ref-POL LAM4-Ref",-0.0863211313833333,-0.112252697716667,-0.122004319716667,-0.0371738847833333,0.0751423424833333,0.121268029816667,0.0149185428833333,-0.0767302623833333,-0.02289091705,0.02395292975,0.0464044490166667,-0.0463221809833333,-0.00491492578333333,0.126688094283333,0.251147705616667,0.195402100016667,0.0151436308833333,-0.176727071116667,-0.165137394183333,-0.105518471716667,-0.00251474705,0.0209261022833333,-0.0439333497166667,-0.153533565716667,-0.194623809716667,-0.09145147305,0.0810108536166667,0.122726195616667,0.05932413095,0.00990670161666667,0.10596544095,0.132248299616667,0.0594498022833333,-0.0160195903833333,-0.0555909617166667,0.00764262161666667,0.04224604095,0.22247102695,0.25015638495,0.27725282495,0.135784270263333,0.103175766179333,1050,"DG_s06",81.156,81.86,84.219,84.219,11,7,10,10,2.359,"Left",11,7,4,4,0,0,-4,0,-4,4,"Advent",1,-3,11,10,7,10
"43",23,"POL LAM4-Ref-POL LAM5-Ref",-0.0220324562966667,0.03749188137,0.0451667060366667,0.112044584703333,0.184157277636667,0.12146140297,0.17564621897,-0.00943554169666666,0.135573852303333,0.0798375556766667,0.19216318301,0.0338612763433333,-0.0210447416966667,-0.06142188983,0.19241030417,0.233586667503333,0.15385778897,0.0218586376366667,0.04157584997,0.0758533026366667,0.0837035393033333,0.0197529716366667,0.07322383497,0.0903038816366667,0.175584458303333,0.257182955636667,0.23733397897,0.240067757636667,0.20374403097,0.261446480303333,0.284236918303333,0.223016578303333,0.206782597636667,0.114639789636667,0.04008168297,0.0635765576366667,0.21771773097,0.253186670303333,0.0947493816366667,-0.12502605703,-0.0875054436966667,0.01224516097,1051,"DG_s06",85.219,85.922,87.422,87.422,10,10,6,11,1.5,"Right",6,11,5,0,5,5,0,0,0,-5,"10-10",4,-1,6,10,11,10
"44",23,"POL LAM3-Ref-POL LAM4-Ref",-0.06612406105,-0.01761231705,0.106943302283333,0.203131055616667,0.125598004283333,0.06427258495,-0.05700891705,0.0935583456166667,0.01019729895,0.03046889695,-0.0146468209833333,0.0314818716833333,-0.0303743243166667,-0.09869711105,0.0419092496166667,0.09126357495,0.0669756442833333,-0.0538914177166667,-0.0998831237166667,0.00435545461666666,0.0334338966166667,-0.00128906938333333,-0.02384577505,-0.0749260817166667,-0.05253893565,-0.115900220316667,-0.07114896765,-0.123227353716667,-0.14988032965,-0.15905420365,-0.03724693965,0.0792714616166667,0.01915161295,-0.0678103577166667,-0.00953841171666667,0.15313329095,0.161446731883333,-0.0173893829166667,-0.0934448481166667,-0.03296207505,0.05676050575,-0.0294586945166667,1051,"DG_s06",85.219,85.922,87.422,87.422,10,10,6,11,1.5,"Right",6,11,5,0,5,5,0,0,0,-5,"10-10",4,-1,6,10,11,10
"45",24,"POL LAM4-Ref-POL LAM5-Ref",-0.0566935107,-0.0870129413,-0.0568045739666667,0.0176574509666667,0.1128353409,0.228626214233333,0.4018189209,0.410785408233333,0.438363359566667,0.2255079117,0.1132929117,-0.0281097596333333,0.0125888962333333,0.0586786102333333,0.143009940233333,0.124909585566667,0.1813867829,0.199998966233333,0.2241629069,0.284545642233333,0.268701035566667,0.375888221566667,0.241333285833333,0.259890551833333,0.255783991833333,0.229413179566667,0.1037438569,0.0177242542333333,0.0464761129,0.1533418569,0.188691132233333,0.272358161566667,0.267833207566667,0.203365406233333,0.1162070129,0.0765882942333333,0.0972349328333333,0.0533122221666667,0.1034007875,0.0752775442333333,0.117205321566667,0.0702603143666667,1052,"DG_s06",88.422,89.125,90.5,90.516,15,30,10,10,1.375,"Left",15,30,15,15,0,15,0,15,0,-15,"Disadvent",5,20,15,10,30,10
"46",24,"POL LAM3-Ref-POL LAM4-Ref",-0.138757206333333,-0.0583593703333334,0.0178684243333333,-0.0362574663333333,-0.016713723,-0.169042919,-0.0938592723333333,-0.262632362528667,-0.181118699862,-0.0857867511953333,0.0193498283333333,0.078688281,-0.0715477063333333,-0.151739322333333,-0.2824943522,-0.343290257666667,-0.2632337116,-0.0995907944,0.0373762537333333,0.0456846043333333,-0.0963396816666667,-0.185936010333333,-0.206997060333333,-0.239659345,-0.242018115,-0.165407288333333,-0.199484077666667,-0.176686914333333,-0.231187815,-0.200005797,-0.216145659666667,-0.321275748373333,-0.35650021304,-0.397320527706667,-0.356613177,-0.241342181,-0.217715949066667,-0.231221296133333,-0.254679292133333,-0.145234812066667,-0.125874888333333,-0.0147878596666667,1052,"DG_s06",88.422,89.125,90.5,90.516,15,30,10,10,1.375,"Left",15,30,15,15,0,15,0,15,0,-15,"Disadvent",5,20,15,10,30,10
"47",25,"POL LAM4-Ref-POL LAM5-Ref",-0.0217131578333333,0.00450129483333334,0.110013700166667,0.232405202833333,0.184222170833333,0.0231736815,0.0819575481666667,0.127214698833333,0.0966642321666667,-0.0864827738333333,-0.111302891166667,-0.0426476225,0.0378815601666667,0.118737726833333,0.0752052768333333,0.164978480166667,0.132187324166667,0.158646026833333,0.0445249675,0.00470216083333334,0.0190986012333333,0.0643068605666667,0.0702928399,0.0454648808333333,0.0109510408333333,0.00289076723333334,0.0246302232333333,0.0264009525666667,-0.00214191716666666,-0.0805385718333333,-0.1320502345,-0.1189642725,-0.0888118918333333,0.00677831750000001,0.0379973208333333,0.0800984305,0.0833814025,0.0643029145,0.0624272361666667,-0.0489998365,-0.126632687166667,-0.246183273833333,1053,"DG_s06",91.516,92.219,93.922,93.922,18,10,10,10,1.703,"Left",18,10,8,8,0,0,-8,0,-8,8,"Advent",8,0,18,10,10,10
"48",25,"POL LAM3-Ref-POL LAM4-Ref",-0.201444191833333,-0.195164235833333,-0.270749982966667,-0.1775324043,-0.210108577633333,-0.226062893166667,-0.2349602985,-0.219217371833333,-0.137171377833333,-0.160786367833333,-0.1049735065,-0.0346916285,0.0647064068333333,-0.0551371882333333,-0.164592345566667,-0.195232989566667,-0.0643819418333333,-0.0888901025,-0.1600163945,-0.107560979833333,-0.0737478771666667,-0.0285280345,-0.1109636725,-0.187066597166667,-0.170481381166667,-0.170926933833333,-0.1038051825,-0.0679138185,-0.0879465831666667,-0.0965738187,-0.154630892033333,-0.211238425366667,-0.240095801166667,-0.267957681166667,-0.149887537833333,-0.0623716378333333,-0.0332768351666667,-0.127328602033333,-0.179999643366667,-0.147653145033333,-0.0237070928333333,0.0376333951666667,1053,"DG_s06",91.516,92.219,93.922,93.922,18,10,10,10,1.703,"Left",18,10,8,8,0,0,-8,0,-8,8,"Advent",8,0,18,10,10,10
"49",26,"POL LAM4-Ref-POL LAM5-Ref",0.111410210466667,-0.0431956708666667,-0.0666566652,-0.0266525796666667,0.096430177,0.280814857,0.274227057666667,0.187445733666667,0.0343659496666667,0.0109594696666667,0.074142057,0.0720037463333333,-0.00176212033333334,-0.0640105136666667,-0.0830501976666667,0.0759599983333333,0.140412811,0.184650269666667,0.180663247666667,0.213708419,0.307371086333333,0.279551499,0.163289975,0.073277199,0.277538079,0.344414884333333,0.326880897066667,0.0675876784,0.0604306330666667,0.0531126499333333,0.0847321679333333,0.164517307933333,0.256498753666667,0.285376727666667,0.175759892333333,0.0669911469466667,0.0406512936133333,-0.00262658505333334,-0.0066386034,0.0681931966,0.107670723933333,0.161238018333333,1054,"DG_s06",94.922,95.625,97.203,97.203,6,14,10,10,1.578,"Right",6,14,8,8,0,8,0,8,0,-8,"Disadvent",-4,4,10,6,10,14
"50",26,"POL LAM3-Ref-POL LAM4-Ref",0.2091608625,0.1572831825,0.0120770765666667,-0.06627465964,0.0370564510266667,0.108200206293333,0.183868203833333,0.1015378385,0.125704837833333,0.0467162891666667,0.0764173198333333,-0.0723112681666667,0.0106505305,0.0778394411666667,0.1593616259,0.139088807233333,0.0163018939,0.131457489166667,0.1390423425,0.2924005225,0.1564716065,0.188767153166667,0.173753041833333,0.118691163833333,0.187365277166667,0.1731718701,0.251986710766667,0.185826530766667,0.1373009275,0.0931719428333333,0.0588988628333333,0.174133097833333,0.180512673166667,0.118507233833333,0.00200590716666667,0.0017831485,0.0465926438333333,0.0854688238333333,0.2052005445,0.1645036645,0.177124447166667,0.105793801833333,1054,"DG_s06",94.922,95.625,97.203,97.203,6,14,10,10,1.578,"Right",6,14,8,8,0,8,0,8,0,-8,"Disadvent",-4,4,10,6,10,14
"51",27,"POL LAM4-Ref-POL LAM5-Ref",0.17256442281,0.0360682961433333,-0.02678448879,-0.14826142879,-0.100126530123333,-0.00433727079,0.0530523998766667,0.0433148478766667,0.00778490787666667,0.0567436817433333,0.0260973150766667,0.000282035276666669,-0.01232571027,0.127928178396667,0.101536206196667,0.11348879541,-0.0612976472566667,-0.0975115952566667,-0.0220407894566667,0.0226663838766667,0.07236462521,0.0453192798766667,0.253949340543333,0.24952979321,0.212001244543333,0.0546230658766667,0.10958986521,0.04709420521,0.103300343876667,0.117729216543333,0.20345468321,0.202522038543333,0.111148832543333,0.0411290344633333,-0.131774387536667,-0.00833282753666667,-0.02460376279,0.07505826121,0.0500003145433333,0.0930331338766667,0.15222328121,0.12727074921,1055,"DG_s06",98.203,98.906,101.75,101.75,10,10,10,22,2.844,"Left",10,22,12,0,12,12,0,0,0,-12,"10-10",0,-12,10,10,10,22
"52",27,"POL LAM3-Ref-POL LAM4-Ref",-0.0161621153,0.142809992033333,0.0307911767,-0.0386687586333333,-0.195864998633333,-0.140476473966667,0.0393798140333333,0.1460093767,0.134280613366667,0.00564655336666667,-0.0170832093,0.0123674473666667,0.0422922731,-0.0227999675,-0.0367464228333333,-0.0237212888333333,0.00376801310000001,-0.0975439082333333,-0.0815763819666667,-0.0777398953,-0.0435763866333333,-0.0966649359666667,-0.0447920639666667,0.109193748033333,0.1150272647,0.109258451366667,0.0104786873666667,-0.00793453596666666,-0.0129230286333333,0.0571985313666667,0.0956772803,-0.0739183470333333,-0.169208840366667,-0.135166046633333,-0.00405683463333333,0.0350277565,-0.0666179521666667,-0.119330984833333,-0.114347160633333,-0.0149281913,0.1619528827,0.105269317366667,1055,"DG_s06",98.203,98.906,101.75,101.75,10,10,10,22,2.844,"Left",10,22,12,0,12,12,0,0,0,-12,"10-10",0,-12,10,10,10,22
"53",28,"POL LAM3-Ref-POL LAM4-Ref",-0.0402251136833333,-0.101951973683333,-0.0925376596833333,-0.0641553869689333,-0.0932678003022667,-0.145785030968933,-0.137676843016667,-0.11957381035,-0.141369833016667,-0.11454466635,0.00879803431666665,0.05125411765,-0.0170658392166667,-0.171367513216667,-0.152009153216667,-0.16687618035,-0.11873759595,-0.0579501292833333,-0.08211676995,-0.0573614870166667,-0.13401322035,-0.0184689956833334,0.126741190983333,0.174434590983333,0.08495423365,-0.107605057016667,-0.145273459016667,-0.00371511521666668,-0.02476856855,-0.09092706655,-0.219423819016667,-0.185641511016667,-0.0960645710166667,-0.11377160035,-0.01989339835,-0.0900584526166667,-0.0749884432833333,-0.15953251595,-0.16673934835,-0.143485389016667,-0.11541247635,-0.12843771175,1056,"DG_s06",102.75,103.453,105.438,105.438,30,10,10,10,1.985,"Right",30,10,20,20,0,0,-20,0,-20,20,"Advent",20,0,10,30,10,10
"54",28,"POL LAM4-Ref-POL LAM5-Ref",0.2994917558,0.2746784798,0.0897824631333333,0.0618685924666667,0.247333111133333,0.379466721133333,0.321470163733333,0.1323727504,0.109187283733333,0.0749717978,0.0504640884666667,0.0146940284666667,0.00926441673333332,0.1118725814,0.126582000733333,0.1186414278,0.0850125991333333,0.0254419798,0.0132932071333333,0.0675639624666667,0.119344261133333,0.184851606466667,0.1806466798,0.2446726878,0.185181719133333,0.112820863133333,0.0316109031333333,0.0466410091333333,0.0102827098,0.0301363091333333,0.188502625133333,0.232969818466667,0.181412571633333,0.0859264616333333,0.156320260966667,0.120829228466667,0.0996772258,0.0795918838,0.132319473133333,0.2250904318,0.191367185133333,0.136161817133333,1056,"DG_s06",102.75,103.453,105.438,105.438,30,10,10,10,1.985,"Right",30,10,20,20,0,0,-20,0,-20,20,"Advent",20,0,10,30,10,10
"55",29,"POL LAM4-Ref-POL LAM5-Ref",0.0387027793333333,-0.0985884793333333,-0.149844021333333,-0.0512613113333333,-0.04698939,0.0697655566666667,0.17686603,0.228932115266667,0.0949509235333333,-0.00892330313333334,-0.0463885164,-0.0514376506666667,-0.0519629106666667,-0.0939311473333333,-0.102595714666667,-0.283844761333333,-0.324823581333333,-0.192060968,-0.027519254,0.216832858,0.0155377513333333,-0.012362926,-0.113114831333333,-0.00303814666666667,-0.0259888166666667,0.000223216666666665,0.0293870606666667,0.0179895666666667,0.0414167486666667,0.042132122,0.0230619361333333,-0.00774491586666667,-0.00486348786666668,0.0633734293333333,0.0871915726666666,0.201731822666667,0.284942396666667,0.155561053333333,0.090266762,0.0205806504666667,0.1239489478,0.138252392466667,1057,"DG_s06",106.438,107.141,109,109,18,12,10,10,1.859,"Left",18,12,6,6,0,0,-6,0,-6,6,"Advent",8,2,18,10,12,10
"56",29,"POL LAM3-Ref-POL LAM4-Ref",-0.05887211825,0.00636991908333333,-0.0846690945166667,-0.126030081183333,-0.135365877183333,-0.03336082985,0.0525814634833333,0.07304580615,0.0402687928166667,0.0719562672833333,0.0560593566166667,-0.0303109707166667,-0.0869108185166667,-0.141755554516667,-0.04744089585,-0.06112909585,-0.0626309091833333,0.01506361215,0.06485493815,0.0155339828166667,0.00461841615,-0.12760403385,0.04336987775,-0.0394240135833333,0.0543041870833333,-0.0376643325166667,-0.0613584351833333,-0.19277854585,-0.249398249183333,-0.159998539183333,-0.176283218516667,-0.09294586185,-0.09842967785,-0.0459647571833333,-0.0522448205166667,-0.17598471385,-0.11381165185,-0.125745827183333,-0.0815516411833333,-0.07671022185,0.0272521162166667,0.00457561821666667,1057,"DG_s06",106.438,107.141,109,109,18,12,10,10,1.859,"Left",18,12,6,6,0,0,-6,0,-6,6,"Advent",8,2,18,10,12,10
"57",30,"POL LAM4-Ref-POL LAM5-Ref",-0.203626402,-0.238587693333333,-0.218842018,-0.155752444666667,-0.171929761333333,-0.174556246666667,-0.219668446666667,-0.0604236818666667,0.0216553074666667,0.0646356874666666,-0.04736134,-0.00908467333333335,-0.03204768,-0.0397093,-0.120830387333333,-0.145558719133333,-0.157553809133333,-0.214085303133333,-0.227717773933333,-0.184365491466667,-0.135475850133333,-0.221742930866667,-0.207080946666667,-0.270594928,-0.25741828538,-0.284609140046667,-0.202510188046667,-0.160667707333333,-0.185603849333333,-0.2279869822,-0.191262855533333,-0.150693088866667,-0.116736637333333,-0.132793024,-0.0901043506666667,-0.133050173333333,-0.096485368,-0.108067922666667,-0.130638144,-0.253489695333333,-0.367175614866667,-0.2544960402,1058,"DG_s06",110,110.703,112.328,112.328,18,10,10,10,1.625,"Left",18,10,8,8,0,0,-8,0,-8,8,"Advent",8,0,18,10,10,10
"58",30,"POL LAM3-Ref-POL LAM4-Ref",0.205846227,0.232948279666667,-0.004734765,0.0998662456666667,0.118003106333333,0.217901994866667,0.241972494866667,0.153091518866667,0.093898149,-0.0384480376666667,-0.034376379,0.0660045623333333,0.0245068596666667,0.0482889436666667,-0.0564192156666667,0.0318621203333333,0.077742851,0.0614747703333333,-0.029317795,-0.199645172333333,-0.187339636333333,-0.149859609666667,-0.0901925104666667,-0.127406533133333,-0.1425710678,-0.0828339154,-0.0300397754,-0.0303781154,-0.0261485838,-0.0731269791333333,-0.0406810871333333,-0.0792072423333333,-0.0190197696666667,-0.124786961666667,-0.0579956616666667,-0.090995259,0.011822493,-0.057564999,-0.0986496316666667,-0.139584083,-0.0961586443333333,0.018772075,1058,"DG_s06",110,110.703,112.328,112.328,18,10,10,10,1.625,"Left",18,10,8,8,0,0,-8,0,-8,8,"Advent",8,0,18,10,10,10
"59",31,"POL LAM4-Ref-POL LAM5-Ref",-0.0789210815,-0.0518161515,0.00605526050000001,0.1116623531,0.0852120604333333,-0.0439913705666667,-0.1111872405,-0.0568905778333333,-0.0486281801666667,0.0132707551666667,0.00800068850000001,0.0772078991666667,-0.0113985535,-0.0821081146533333,-0.13771295332,-0.0513473066533333,-0.136363052166667,-0.2209258775,-0.151889910166667,0.0225867565,0.275881469833333,0.229289195833333,0.145316761366667,-0.0175909593,-0.144535845966667,-0.126856022166667,-0.0437822148333333,0.0410663978333333,-0.0773664581666667,-0.1539377435,-0.165369250166667,-0.112021142166667,-0.119987982166667,-0.116977698166667,-0.0931849361666667,-0.0753684395,-0.0649887443,0.0163890877,0.1132268497,0.0933208617666667,0.0310085024333333,-0.0745170375666667,1059,"DG_s06",113.344,114.047,115.594,115.594,13,1,10,10,1.547,"Right",13,1,12,12,0,0,-12,0,-12,12,"Advent",3,-9,10,13,10,1
"60",31,"POL LAM3-Ref-POL LAM4-Ref",0.0218667056666667,-0.0872111907333333,-0.0798779620666667,-0.0575518647333333,-0.002744615,0.00390800166666667,0.191446733,0.346517139666667,0.408072698333333,0.249117685,0.0614622183333333,0.0641477763333333,-0.0219428076666667,-0.0559902476666667,-0.126000035066667,-0.0548207770666667,0.0968722096,0.143545820333333,0.224826413,0.063664173,0.032361403,-0.0216268063333333,0.004235735,-0.0699733724,-0.0797775673333333,-0.022032818,-0.0335978272666667,-0.0373936563333333,-0.0472684583333333,-0.0648907416666667,-0.158992840333333,-0.0616422623333333,0.0416650550666667,0.147501953066667,0.0618271187333333,0.00673933066666667,-0.0247597901333333,-0.00478524113333333,0.2018862562,0.333248651,0.337627398333333,0.152183380333333,1059,"DG_s06",113.344,114.047,115.594,115.594,13,1,10,10,1.547,"Right",13,1,12,12,0,0,-12,0,-12,12,"Advent",3,-9,10,13,10,1
"61",32,"POL LAM4-Ref-POL LAM5-Ref",-0.050124698,0.0519487904666667,-0.0203451428666667,0.125722850466667,0.228154775333333,0.297793439333333,0.215376072666667,0.0810260726666667,0.03494295,-0.101843130666667,0.030179702,0.040318602,0.0863045306666667,-0.109986748666667,-0.160138448666667,-0.138604173333333,-0.051682914,-0.0939504426666667,-0.0192114726666667,0.00965562133333334,0.08975799,0.031980112,0.100262011333333,0.179981598,0.121920549333333,0.0322224286666667,-0.142866569333333,-0.162712592,-0.098176894,0.0634456173333333,0.104040189866667,0.135987988,0.153814788,0.130876131466667,0.136648976666667,-0.0704268073333333,-0.127920830666667,-0.274532015333333,-0.193067482333333,-0.0715536002666667,-0.0699737822666667,-0.0809569179333333,1060,"DG_s06",116.594,117.297,120.391,120.406,16,8,10,10,3.094,"Left",16,8,8,8,0,0,-8,0,-8,8,"Advent",6,-2,16,10,8,10
"62",32,"POL LAM3-Ref-POL LAM4-Ref",-0.204437950166667,-0.00166309016666666,0.00354010516666667,0.0588408778333333,-0.0391109381666667,-0.00517227749999999,-0.0416195648333333,-0.0823463622333333,-0.0769305769,-0.0599506729,-0.0254314735,-0.00349567416666666,-0.0072547015,-0.0417180035,-0.0234725761666667,0.0094318525,0.0808495285,-0.0725553828333333,0.00350896716666667,0.114481841166667,0.201866065833333,0.1466832625,0.00175334983333333,0.0713865411666667,-0.0209788448333333,0.0256472185,-0.0343941001666667,-0.0310584408333333,-0.0736482921666667,-0.126448440633333,-0.167025880633333,-0.2260137267,-0.105483220233333,-0.0906288023666667,-0.1152824763,-0.140306326966667,-0.0834150448333333,0.0317887061,0.142691199433333,0.0886961053,-0.0341463856333333,-0.159253468966667,1060,"DG_s06",116.594,117.297,120.391,120.406,16,8,10,10,3.094,"Left",16,8,8,8,0,0,-8,0,-8,8,"Advent",6,-2,16,10,8,10
"63",33,"POL LAM4-Ref-POL LAM5-Ref",-0.23928411936,-0.13289953736,-0.156097273,-0.088330301,-0.210128771666667,-0.140141302333333,-0.0873327083333333,-0.138111497666667,-0.170719833666667,-0.121091187666667,0.0512670723333333,0.0488270656666667,-0.047292253,-0.0906893523333333,-0.168125112333333,-0.128810737666667,-0.214902345,-0.158551486333333,-0.188265173066667,-0.124225533066667,-0.0594957884,0.083181315,0.0254384916666667,0.087318195,-0.089373711,-0.089170941,-0.099978477,-0.0871169143333333,-0.0461755456666667,-0.130565377666667,-0.0871346754533333,0.0257377625466667,0.03815356588,-0.124172459,-0.306784850333333,-0.355852920333333,-0.196287289666667,-0.182054065666667,-0.200627097666667,-0.249702516733333,-0.1487747914,-0.0535064774,1061,"DG_s06",121.406,122.11,124.891,124.891,26,10,10,10,2.781,"Left",26,10,16,16,0,0,-16,0,-16,16,"Advent",16,0,26,10,10,10
"64",33,"POL LAM3-Ref-POL LAM4-Ref",0.2128600154,0.343231353333333,0.370402584666667,0.41416708,0.398851796666667,0.246296274666667,0.1571036656,0.0113114196,0.0942845438666667,0.0617161922666667,0.0915073049333333,-0.00929684333333333,-0.0129581233333333,0.0204325113333333,0.212767464666667,0.342105438,0.36453897188,0.235216509213333,0.149161728546667,0.0233786466666667,0.0698733735733333,0.0740838949066667,0.06794663024,0.044497238,0.024791484,0.150854315333333,0.2205265164,0.202535875733333,0.0998121090666667,-0.072256324,-0.0597153186666667,0.097939028,0.2363740776,0.194666626266667,0.129847514333333,0.0464230247333333,0.173597562733333,0.314683845333333,0.564883938666667,0.498308682,0.347962388666667,0.122793492666667,1061,"DG_s06",121.406,122.11,124.891,124.891,26,10,10,10,2.781,"Left",26,10,16,16,0,0,-16,0,-16,16,"Advent",16,0,26,10,10,10
"65",34,"POL LAM4-Ref-POL LAM5-Ref",0.05451673525,0.0558609165833333,0.06807098725,0.0846528559166667,-0.00140758808333333,-0.03535491275,-0.00369895141666667,0.133146288583333,0.17614375125,0.172449495916667,0.235583602583333,0.0791086129166667,-0.0330312350833333,-0.126742048416667,-0.12997363875,-0.0748982260833333,-0.00731751008333333,0.0781893665833333,0.09894864325,0.0162316539166667,0.01128691225,-0.00614526175,-0.00762944175,-0.03195064675,0.0505171579166667,0.07274353965,0.08723931365,0.10495571365,0.108454046583333,0.121855462583333,-0.05909127075,-0.02885287075,0.01943666925,0.0978592159166667,0.0770720065833333,0.0167908503833333,-0.000521345616666669,0.01777086705,0.0225604571166667,0.08233568845,0.0917183737833333,0.18089391325,1062,"DG_s06",125.891,126.594,129.266,129.266,22,13,10,10,2.672,"Right",22,13,9,9,0,0,-9,0,-9,9,"Advent",12,3,10,22,10,13
"66",34,"POL LAM3-Ref-POL LAM4-Ref",-0.118878212266667,-0.0893782469333333,0.0684463344,0.0608409797333333,0.0274970204,-0.1731446596,-0.0684648489333333,-0.0862033816,-0.0926597949333333,-0.0802954108,-0.0758343514666667,0.00282186853333333,-0.0384789502666667,-0.1188070176,-0.231040490933333,-0.363774960266667,-0.363913730933333,-0.406693064266667,-0.371366370933333,-0.208979920266667,-0.0772350536,-0.117317680266667,-0.1490914936,-0.0626495802666667,0.077078511,0.00404685099999999,-0.195481462333333,-0.143743458266667,-0.211255240266667,-0.1108047776,-0.1997704376,-0.139428521933333,-0.0822780051333333,-0.0319907098,-0.0263157528,-0.0944900589333333,-0.200520976266667,-0.1437902456,-0.00100709226666666,0.1424091144,0.1016468684,-0.0832144956,1062,"DG_s06",125.891,126.594,129.266,129.266,22,13,10,10,2.672,"Right",22,13,9,9,0,0,-9,0,-9,9,"Advent",12,3,10,22,10,13
"67",35,"POL LAM4-Ref-POL LAM5-Ref",-0.275080155666667,-0.199650843866667,-0.212383099866667,-0.179191383866667,-0.247964573666667,-0.266102929,-0.185109083666667,-0.105611821666667,-0.088236685,-0.0732834436666667,-0.0434683063333333,-0.0180257963333333,-0.000645389666666663,-0.111405535666667,-0.165700992333333,-0.155487745666667,-0.175389183,-0.0257044691333333,-0.112694560466667,-0.0696933164666667,-0.295293662333333,-0.245196907,-0.252488675666667,-0.170675236333333,-0.226238005,-0.129372256333333,-0.119774377666667,-0.0571520638666667,-0.194889230666667,-0.102167795333333,-0.0940988738,-0.0453167803333333,-0.0835076127333333,-0.0906738234,-0.1185756754,-0.202102721466667,-0.3040147208,-0.277257142666667,-0.2118619562,-0.2193212722,-0.255514210333333,-0.234201025,1063,"DG_s06",130.266,130.969,133.703,133.703,10,10,8,16,2.734,"Left",8,16,8,0,8,8,0,0,0,-8,"10-10",2,-6,10,8,10,16
"68",35,"POL LAM3-Ref-POL LAM4-Ref",-0.0213274135333333,-0.0090130242,-0.0749492268666667,-0.0378448928666667,0.0472326918,0.0571401464666667,0.0979728604666667,0.277402841133333,0.263753942466667,0.201282754466667,-0.0569063428666667,0.00797617713333333,0.0226097694,0.0559143054,0.0587775594,0.0299877498,-0.0431945342,-0.0689079121333333,0.000647774533333333,0.0252404945333333,0.0954030498,0.135043089133333,0.2284140358,0.2095052258,0.2036297638,0.182590164466667,0.101927039133333,0.0947486458,0.0884370831333333,0.0690986058,0.182784892466667,0.192967292466667,0.375493463133333,0.220755244466667,0.0954604598,-0.0207324868666667,0.0195521704666667,0.172156230466667,0.0961672878,0.108475201133333,0.0565551344666667,0.0767479504666667,1063,"DG_s06",130.266,130.969,133.703,133.703,10,10,8,16,2.734,"Left",8,16,8,0,8,8,0,0,0,-8,"10-10",2,-6,10,8,10,16
"69",36,"POL LAM4-Ref-POL LAM5-Ref",0.132846758166667,0.00769309016666667,-0.152534961166667,-0.145373173833333,-0.0249713805,-0.0254032317666667,-0.1038091731,-0.1789801631,-0.0861144438333333,0.0477983095,0.0792664015,-0.0631539405,-0.0727761138333333,-0.150137289833333,-0.182218595833333,-0.3287794028,-0.262197117466667,-0.184676544133333,-0.1385198265,-0.2247326865,-0.1771386085,-0.2772633925,-0.264739119833333,-0.2107659325,-0.177950525833333,-0.193862579833333,-0.260279803833333,-0.2576593925,-0.1843813983,-0.204081655633333,-0.0439708269666667,-0.0519667185,-0.1255838005,-0.2136662585,-0.121837701166667,0.0186889835,-0.00270932383333333,-0.1187631233,-0.239053155966667,-0.320511803966667,-0.320365387833333,-0.3186806457,1064,"DG_s06",134.703,135.406,137.563,137.563,10,10,12,18,2.157,"Right",12,18,6,0,6,6,0,0,0,-6,"10-10",-2,-8,12,10,18,10
"70",36,"POL LAM3-Ref-POL LAM4-Ref",0.20632020566,0.33415708118,0.29162003118,0.133051153666667,-0.0144713816666667,-0.0583579983333333,-0.069834477,-0.175346033133333,-0.133903894466667,-0.125021147133333,0.031909383,0.0268509376666667,0.0144751523333333,0.122296285666667,0.143662340333333,0.179736562333333,0.00741547433333333,-0.0422976736666667,-0.023403675,0.0498028576666667,0.119781491,0.0571207123333333,-0.116564364333333,-0.119907184333333,-0.080332209,-0.045912735,0.0218560225333333,0.0952992618666667,0.176485437866667,0.0935430803333333,0.0801051616666667,0.126636111666667,0.181659093666667,0.172041679,0.191671805666667,0.319900582333333,0.332117795666667,0.242247247666667,0.0961381523333333,0.036720675,-0.0469342436666667,-0.0479932996666667,1064,"DG_s06",134.703,135.406,137.563,137.563,10,10,12,18,2.157,"Right",12,18,6,0,6,6,0,0,0,-6,"10-10",-2,-8,12,10,18,10
"71",37,"POL LAM4-Ref-POL LAM5-Ref",-0.228085166895,-0.189892540228333,-0.118353736228333,-0.155580098228333,-0.0202810022283333,0.007635867105,0.0888242724383333,-0.0581898722283333,-0.00332343222833331,0.0191038576316667,0.065916936965,-0.072075253035,0.028686457105,-0.0386594362283333,-0.007365892895,-0.137751695561667,-0.054100360895,-0.122730400228333,-0.077505916895,-0.143037840895,-0.053721062895,-0.0468787015616667,-0.0424353602283333,-0.0409258875616667,-0.121835679095,-0.023286439095,-0.144386217095,-0.096978266895,-0.198835203561667,0.015021543105,-0.0524957885616667,-0.081233365895,-0.230235026961667,-0.0922491286283333,-0.147712111295,-0.0909533235616667,-0.125661237561667,0.0331549724383333,0.048984957105,0.084035577105,0.074001577105,0.0364106337716667,1065,"DG_s06",138.563,139.266,140.047,140.063,12,4,10,10,0.781,"Left",12,4,8,8,0,0,-8,0,-8,8,"Advent",2,-6,12,10,4,10
"72",37,"POL LAM3-Ref-POL LAM4-Ref",-0.00318795286666667,-0.147312858866667,-0.0659927102,-0.0265553823333333,0.172740817,0.129874428333333,0.206065015,0.107504787,0.174517080333333,0.046558379,0.136506529666667,0.0437216836666667,0.015759459,-0.167179337,-0.213140524333333,-0.138362025,-0.0948144996666667,-0.0527863336666667,0.0376785596666667,0.0230123662,-0.00415043646666667,-0.1460782848,-0.143483130666667,-0.0549038438,-0.00890262213333334,0.0131152438666667,-0.018601109,-0.118810109,-0.111090543666667,-0.105641997666667,-0.0877407161333333,-0.0657849092666667,-0.0860319152666667,-0.0510760908,-0.121646206333333,-0.0727654503333333,-0.094156913,0.00231931966666666,-0.0428508843333333,0.0279926476666667,-0.0668054333333333,-0.0535753893333333,1065,"DG_s06",138.563,139.266,140.047,140.063,12,4,10,10,0.781,"Left",12,4,8,8,0,0,-8,0,-8,8,"Advent",2,-6,12,10,4,10
"73",38,"POL LAM4-Ref-POL LAM5-Ref",0.00582884133333334,0.162792328,0.214726294666667,0.189774174,0.253340100666667,0.164131504,0.252381424666667,0.0432114313333333,0.0627843286666667,0.00223081666666667,0.046592262,0.0262433013333333,-0.0299281306666667,-0.073616596,-0.1767439072,-0.116150507066667,-0.0525188890666667,0.0120854621333333,-0.0377728506666667,-0.0803897086666667,-0.109591461333333,-0.0429318093333333,0.119034497333333,0.187005312666667,0.0858489033333333,-0.0177738486666667,-0.160193896,-0.19743249102,-0.21809673102,-0.146639731153333,-0.0327722261333333,0.0361391792,0.0909749753333333,-0.0520622633333333,-0.200146743333333,-0.290140654666667,-0.22482145,-0.230062916666667,-0.224239210666667,-0.183505599333333,-0.125855374666667,-0.054641454,1066,"DG_s06",141.063,141.766,143.735,143.75,10,10,14,26,1.969,"Right",14,26,12,0,12,12,0,0,0,-12,"10-10",-4,-16,14,10,26,10
"74",38,"POL LAM3-Ref-POL LAM4-Ref",0.0631118025333333,0.0460954545333333,0.115914740533333,0.1326262994,0.167850478733333,0.271764606066667,0.261207824866667,0.101609858866667,-0.0949258458,-0.068390496,-0.03544522,0.0473548113333333,-0.0288164273333333,-0.0504466073333333,0.075912866,0.135329272266667,0.2656063056,0.0594273862666667,-0.00434103466666667,-0.096025192,-0.125202778,-0.0959465313333333,0.0965989993333333,0.116010378,0.102738606666667,-0.01473506,-0.039884,-0.0731929691333333,-0.1935017178,-0.000315967133333331,0.10153446,0.0701572086666667,-0.104079059333333,-0.207547491333333,-0.111514618,0.00268683933333333,0.0851584226666666,-0.00294517733333333,-0.145454897333333,-0.1665871598,-0.1527347398,-0.0688664711333333,1066,"DG_s06",141.063,141.766,143.735,143.75,10,10,14,26,1.969,"Right",14,26,12,0,12,12,0,0,0,-12,"10-10",-4,-16,14,10,26,10
"75",39,"POL LAM4-Ref-POL LAM5-Ref",0.161036174,-0.0793613193333333,-0.019070788,0.0126618086666667,0.084383184,0.580390919333333,0.668494942666667,0.68175219,0.148905644666667,0.0977046573333333,0.0752531213333333,0.0791928,-0.0366751533333333,-0.107624206666667,-0.118043016666667,0.0444872966666667,0.117083223333333,0.0186102466666667,-0.14596998,-0.0580356233333333,0.0297825253333333,0.138317898666667,0.032454066,0.0729593946,0.0449953539333333,0.0267625206,0.0668243381333333,0.0585447254666667,0.075641017,0.0699984942,0.0360129928666667,-0.0339187626666667,-0.0570262825333333,0.0784430988,0.2224051588,0.193911826666667,0.109132129333333,-0.0100931639333333,0.0436896340666667,0.0145991394,0.003146124,-0.0976156473333333,1067,"DG_s06",144.75,145.453,147.61,147.61,10,10,10,30,2.157,"Left",10,30,20,0,20,20,0,0,0,-20,"10-10",0,-20,10,10,10,30
"76",39,"POL LAM3-Ref-POL LAM4-Ref",0.2760680552,0.204833289133333,0.211893162466667,0.301180782466667,0.492349212533333,1.0767845392,1.1468211392,1.10280270586667,0.5145544992,0.333240130533333,0.106593910533333,0.00883000386666667,-0.0727476444,-0.0807981577333333,-0.0661125377333333,-0.0604770518666667,-0.0353863345333333,-0.0230173385333333,-0.0471264977333333,-0.101895681733333,-0.0349690764,0.00966371386666666,0.1380675172,0.139102162533333,0.126904883866667,0.0860784472,0.0966931738666667,0.1158189212,0.200314196066667,0.1529583694,0.1703635874,0.1020435652,0.199695038533333,0.265151138866667,0.235284186046667,0.0731463927133333,-0.0262143489533333,-0.0959753154666667,-0.00924664213333334,0.109049191866667,0.1199904472,0.2571903272,1067,"DG_s06",144.75,145.453,147.61,147.61,10,10,10,30,2.157,"Left",10,30,20,0,20,20,0,0,0,-20,"10-10",0,-20,10,10,10,30
"77",40,"POL LAM4-Ref-POL LAM5-Ref",0.00696663748333334,-0.158042576516667,-0.267984040516667,-0.24600636805,-0.211416261383333,-0.194299368716667,-0.108657361383333,0.0250038732833333,0.0562018206166667,0.0792543372833333,0.116901402616667,0.127976278016667,-0.07014691865,-0.142037335316667,-0.0762637147166667,-0.00715021738333333,0.05843885595,0.13612883995,0.116958309283333,0.04600282635,-0.10601578565,-0.04859278565,-0.15179690605,0.0361619192833333,0.15520020595,0.213321549283333,0.01646289595,-0.06311068605,-0.0775685167166667,-0.02844729205,-0.11299577005,-0.13783329605,-0.13454847405,0.04891772595,0.0911608546166667,0.0685000572833333,-0.0326452693833333,-0.0148966567166667,-0.04505548425,-0.06124866521,-0.0434094958766667,0.0200497623233333,1068,"DG_s06",148.61,149.313,151.391,151.406,14,14,10,10,2.078,"Right",14,14,0,0,0,0,0,0,0,0,"Equal",4,4,10,14,10,14
"78",40,"POL LAM3-Ref-POL LAM4-Ref",-0.152494114833333,-0.105715776833333,-0.0140616455,0.0416778578333333,0.0433570485,0.0158379271666667,0.00884957449999998,-0.00132857216666668,0.0341713158333333,-0.0365256655,0.0254893611666667,0.00920175916666666,0.00642922716666666,-0.107025154166667,-0.0907007255,-0.0120188921666667,0.0723187691666667,0.0395556425666667,0.00933419189999998,-0.0357930914333333,-0.0340363688333333,-0.0809917715,-0.0814098508333333,-0.0253007475,-0.0534813208333333,0.0638853551666667,-0.123760060833333,-0.0553271141666667,-0.222032394166667,-0.137447092166667,-0.206369614166667,-0.147964534166667,-0.1258187689,-0.166184392353333,-0.14995709902,-0.213335042953333,-0.202612650833333,-0.163013230833333,0.00996344916666667,0.00942747516666667,-0.104151640833333,-0.131039450166667,1068,"DG_s06",148.61,149.313,151.391,151.406,14,14,10,10,2.078,"Right",14,14,0,0,0,0,0,0,0,0,"Equal",4,4,10,14,10,14
"79",41,"POL LAM3-Ref-POL LAM4-Ref",0.0650142878333333,0.00574691183333334,0.0344323649,0.0650363249,0.1097310389,0.0732554525,-0.0157422821666667,0.0185670991666667,0.0313072325,0.0501093505,-0.0334829161666667,0.00871970450000001,0.00611142183333332,0.0311653411666667,0.111485367166667,0.248458181166667,0.1606900685,0.191274115966667,0.0569121188333333,0.139939272833333,0.0562892213666667,0.1377406325,0.0782496818333333,0.0700061265,0.0637446318333333,0.0794790718333333,0.0860926980333333,0.149288485366667,0.243219675366667,0.2952896085,0.209243005833333,0.1274531665,0.0962843798333333,0.155237681833333,0.239531967945333,0.252418957945333,0.203509900612,0.1813581855,0.2101383215,0.2877345351,0.258641181433333,0.1715774121,1069,"DG_s06",152.406,153.11,154.672,154.672,10,10,6,14,1.562,"Left",6,14,8,0,8,8,0,0,0,-8,"10-10",4,-4,10,6,10,14
"80",41,"POL LAM4-Ref-POL LAM5-Ref",0.23153064105,0.11858850425,0.152143116916667,0.13623102225,0.116973599116667,0.13769166045,0.170645213116667,0.225061072383333,0.0469552043833333,-0.02480992095,-0.07244799975,-0.00721931041666668,-0.03065321435,-0.0266526528833333,0.118065297783333,0.34233402105,0.37543918705,0.416193413716667,0.212677109716667,0.189251654383333,0.0674301477166667,0.09490621245,0.144617326516667,0.13782540585,0.0547483111166667,0.0381254383833333,-0.0214298476166667,0.204374266383333,0.242542870716667,0.38779782205,0.167819871383333,0.143221402383333,0.0620565843833333,0.211213996383333,0.209965922383333,0.183625787716667,0.0744760597166667,0.0796119103833333,0.0636943003833333,0.0721056803833333,0.0667686497166667,0.0455372663833333,1069,"DG_s06",152.406,153.11,154.672,154.672,10,10,6,14,1.562,"Left",6,14,8,0,8,8,0,0,0,-8,"10-10",4,-4,10,6,10,14
"81",42,"POL LAM3-Ref-POL LAM4-Ref",-0.00442937433333333,0.0662534963333333,0.175061426333333,0.0810938603333333,0.189267701,0.197125625666667,0.213080518,0.00248498466666668,0.0963565733333333,0.127199056333333,0.261020714333333,0.0289032176666667,-0.0383765776666667,-0.017549389,0.0772944963333333,0.1109313296,0.0876126529333333,0.0722542816,0.0587961263333333,0.061849223,0.0974625303333333,0.126866261,0.142875544333333,0.189714266866667,0.1507581282,0.1369481782,0.186598511,0.168994709666667,0.181623369666667,0.021967819,0.0431408036666667,-0.00877136299999999,0.099631499,0.1426681578,0.0982621178,0.0470946504666667,0.125867770333333,0.119835573666667,0.1320130858,-0.00602407753333332,-0.0216501742,-0.0509162536666666,1070,"DG_s06",155.672,156.375,157.969,157.969,10,10,6,11,1.594,"Left",6,11,5,0,5,5,0,0,0,-5,"10-10",4,-1,10,6,10,11
"82",42,"POL LAM4-Ref-POL LAM5-Ref",0.12418199345,0.0902398381166667,0.03911822745,0.0388411341166667,0.0297473767833333,0.0162768307833333,0.0538860647166667,0.07700671265,0.0699416699833333,0.0507796827166667,-0.00628716381666667,-0.00394320915,0.0162153861833333,-0.00709201855,0.09621175905,0.11604852705,0.23525352105,0.149845798116667,0.15603248145,0.255250254783333,0.245535408116667,0.31559820145,0.0852911507833333,0.104773410783333,0.0558767487833333,0.218670136383333,0.287753284383333,0.29883111705,0.140306200116667,0.143485932116667,0.12598528745,0.16020903145,0.103536840116667,0.05246028945,0.06576000545,-0.0469297498833333,0.00418392878333333,0.03495700345,0.172724956783333,0.03475366945,0.03228596145,-0.06446019855,1070,"DG_s06",155.672,156.375,157.969,157.969,10,10,6,11,1.594,"Left",6,11,5,0,5,5,0,0,0,-5,"10-10",4,-1,10,6,10,11
"83",43,"POL LAM4-Ref-POL LAM5-Ref",-0.491998386151667,-0.388689316818333,-0.255307342418333,-0.0814632744183333,-0.109984014418333,-0.143690967751667,-0.254371903751667,-0.227435550418333,-0.286015095751667,-0.152801877085,-0.111045869751667,0.0262339770283333,-0.010720732305,-0.126444294971667,-0.215886648151667,-0.369879989151667,-0.385418390485,-0.310792622085,-0.157061119751667,-0.0208014944183333,-0.215629561085,-0.284573815751667,-0.464958637285,-0.345491684618333,-0.450775171285,-0.435259651085,-0.491418695885,-0.423073148551667,-0.526041349218333,-0.501005751085,-0.437877682418333,-0.237307802418333,-0.164392768418333,-0.228412431085,-0.304194499518333,-0.493199906185,-0.412870574185,-0.372032405751667,-0.245346959085,-0.235254685085,-0.212671378418333,-0.201540054418333,1071,"DG_s06",158.985,159.688,161.047,161.063,30,15,10,10,1.359,"Left",30,15,15,15,0,0,-15,0,-15,15,"Advent",20,5,30,10,15,10
"84",43,"POL LAM3-Ref-POL LAM4-Ref",-0.144162327333333,-0.161396292,-0.116743557933333,-0.0974590026,-0.0710013492666667,-0.0400023626666667,0.0417070193333333,0.02033318,-0.0203372202666667,-0.0159528136,0.104167055066667,0.068155622,-0.0959868866666667,-0.054323382,-0.0352392086666667,0.00459593600000001,-0.0310985686666667,0.105412406,0.258178063333333,0.187335083333333,0.140226426666667,-0.000949270039999991,0.107412241293333,0.0991042586266667,0.128719694,-0.069590846,-0.186668882666667,-0.263291034666667,-0.213038282666667,-0.185669838666667,-0.132617354,-0.0273739326666667,0.037882022,0.00552736333333334,-0.04806923,0.029377446,0.0728520433333333,-0.04584035,-0.187790970666667,-0.149187382,-0.0722243246666667,0.020221644,1071,"DG_s06",158.985,159.688,161.047,161.063,30,15,10,10,1.359,"Left",30,15,15,15,0,0,-15,0,-15,15,"Advent",20,5,30,10,15,10
"85",44,"POL LAM4-Ref-POL LAM5-Ref",-0.0802756735833333,0.0789240184166667,0.169841914416667,0.0687336490833333,-0.0878078549166666,-0.143675469583333,-0.105662123583333,-0.07723300625,-0.09063893625,-0.0629106089166667,-0.04056984325,-0.0182030419166667,0.00575401075000001,-0.137450134916667,-0.188460476916667,-0.326906196916667,-0.292242843583333,-0.309006617583333,-0.29164198425,-0.299115720916667,-0.312201337583333,-0.239345924916667,-0.101011694916667,0.0233106690833333,-0.02418349025,-0.0345785889166667,0.01266853375,0.00947480841666667,-0.100091337583333,-0.25563522365,-0.229725620316667,-0.230663658983333,-0.175779447583333,-0.110212914916667,-0.0582383929166667,0.0792383150833333,0.0130701320166667,-0.00775468064999998,-0.173096015983333,-0.0993250169166666,0.00443207708333335,0.07753816575,1072,"DG_s06",162.063,162.766,165.25,165.25,10,10,3,17,2.484,"Left",3,17,14,0,14,14,0,0,0,-14,"10-10",7,-7,10,3,10,17
"86",44,"POL LAM3-Ref-POL LAM4-Ref",0.103602037333333,0.0877880846666667,0.170013402,0.176742402,0.114636630666667,0.0646611913333333,-0.0973114353333333,-0.0320865806666667,-0.00147944800000001,0.00984237199999999,0.0722449353333333,-0.069564578,0.0572992853333333,-0.0150119026666667,0.201599357333333,0.179291954,0.265098162,0.166154898666667,0.217232182666667,0.125281968666667,0.180524532,0.104810332133333,0.1521466348,0.028071749,0.102330240866667,0.0798630275333333,0.122657004,0.0481133513333333,0.109936098,0.077400362,0.188315978666667,0.208998102,0.208318240666667,0.15396004,0.128613674666667,0.282080568,0.178785917333333,0.229289308,0.131195706,0.232900084733333,0.122817962733333,0.0758544754,1072,"DG_s06",162.063,162.766,165.25,165.25,10,10,3,17,2.484,"Left",3,17,14,0,14,14,0,0,0,-14,"10-10",7,-7,10,3,10,17
"87",45,"POL LAM4-Ref-POL LAM5-Ref",-0.246110261833333,-0.0930899485,-0.0675745827,0.0359933726333333,-0.0157796873666667,-0.0567764918333333,-0.0997469718333333,-0.0764545671666667,0.470098166166667,0.422875002833333,0.369130008833333,-0.1165288705,0.0518028628333333,0.1730772455,0.0901378315,-0.0249556791666667,-0.0874186011666667,0.0772914321666667,0.0698809361666667,-0.00144247383333333,-0.116697289166667,-0.1743755349,-0.0452706362333333,0.0114139888733333,-0.0338096253933333,-0.118159165393333,-0.156887395166667,-0.0862268618333333,0.1093407315,0.1378795855,0.1636288255,-0.0734597165,-0.0451543971666667,-0.102084517166667,-0.0651888618333333,-0.0860359590333333,-0.0101552790333333,0.0122584889666667,-0.0446114833666667,0.1443181833,0.337559408633333,0.4585244315,1073,"DG_s06",166.25,166.953,168.969,168.969,13,7,10,10,2.016,"Left",13,7,6,6,0,0,-6,0,-6,6,"Advent",3,-3,13,10,7,10
"88",45,"POL LAM3-Ref-POL LAM4-Ref",-0.0507824403333333,-0.188269808333333,-0.237725920333333,-0.158626461,-0.0152604076666667,-0.0323692783333333,0.052534779,-0.009327235,0.104978719666667,0.130155766333333,0.187683542333333,0.101354851666667,-0.123854108333333,-0.266980457,-0.224154738333333,-0.131484946333333,-0.0977414063333333,-0.142054104333333,-0.156235343,-0.238704363,-0.154893624333333,-0.100988408333333,0.060597935,0.0479235963333333,-0.0591519403333333,-0.115365991666667,-0.177333847,-0.0943313156666667,-0.050087169,-0.0589216136666667,-0.013379631,-0.0487610907333333,-0.0104298160666667,-0.156658982733333,-0.167338888333333,-0.149754846066667,0.0268305259333333,0.0436713199333333,0.00304392033333334,0.196172948333333,0.186748687666667,0.371392285,1073,"DG_s06",166.25,166.953,168.969,168.969,13,7,10,10,2.016,"Left",13,7,6,6,0,0,-6,0,-6,6,"Advent",3,-3,13,10,7,10
"89",46,"POL LAM3-Ref-POL LAM4-Ref",-0.0379196738333333,0.0438090328333333,0.0960714041666667,0.157022234833333,0.0876264935,0.0183433956333333,0.0164261623,0.0339571869666667,0.211688146833333,0.125563386833333,0.0682594281666667,-0.0679967698333333,0.0335340568333333,0.0901899168333333,0.158056014833333,0.140721070833333,0.0586571869,0.0709335202333333,0.0072235689,0.0916072768333333,0.1215799035,0.249120618833333,0.187938216166667,0.0851094688333333,-0.0200408845,0.0417294868333333,0.104774826833333,0.131988448166667,0.0798431851666667,-0.0396494175,-0.111747786533333,-0.1801087482,-0.211515211533333,-0.1270471805,0.0059879301,0.0917012227666667,0.108097132766667,0.121394614833333,0.0397345421666667,-0.0394686578333333,-0.0795836611666667,-0.0169110295666667,1074,"DG_s06",169.985,170.688,173.156,173.172,12,18,10,10,2.468,"Right",12,18,6,6,0,6,0,6,0,-6,"Disadvent",2,8,10,12,10,18
"90",46,"POL LAM4-Ref-POL LAM5-Ref",0.316240565383333,0.110524170716667,-0.02032074415,0.0196969811833333,0.00482933785,-0.0192060206166667,-0.06128936795,-0.0597603792833333,0.02567949205,-0.05145086995,9.60519833333347e-05,-0.00284304335,0.05768209665,0.0428976247166667,0.06559906005,0.0532707343166667,0.0140086283166667,-0.01653367635,0.0957635147166667,0.220974543383333,0.256560666716667,0.25104428205,0.0864606993833333,-0.04352644395,-0.244232548616667,-0.203616864616667,-0.111576384616667,0.0518357493833333,0.0913991413833333,0.138482149983333,-0.00233650801666667,-0.00455224668333333,-0.140284933383333,-0.15309637605,-0.174561636776667,-0.0748206953433333,0.01893392599,0.0524495947166667,0.07658595205,0.0121981793833333,0.101682067383333,0.00562211271666667,1074,"DG_s06",169.985,170.688,173.156,173.172,12,18,10,10,2.468,"Right",12,18,6,6,0,6,0,6,0,-6,"Disadvent",2,8,10,12,10,18
"91",47,"POL LAM4-Ref-POL LAM5-Ref",-1.21777996555,-1.06766679955,-1.03082815535,-1.06276943335,-1.14319716668333,-1.04298071801667,-0.979257844016667,-1.01497119910333,-1.16403147243667,-1.29148228130333,-1.21876425221667,-1.03689378555,0.419948769983333,1.18104751665,1.12330639531667,-0.409475738016667,-1.30154373801667,-1.41620715668333,-1.32115011421667,-1.25032606488333,-1.20500377688333,-1.14564344601667,-1.11062783401667,-1.04225290868333,-1.15960059068333,-1.06435995868333,-0.923850446016667,-0.79020887135,-0.797466988816667,-0.937581572816667,-1.02627893215,-1.12047721201667,-1.18568910401667,-1.03562588201667,-0.97617207935,-0.77048334935,-0.710450578016667,-0.601810050016667,-0.775579370016667,-0.850374541416667,-1.03927801475,-0.987854235416667,1075,"DG_s06",174.172,174.875,176.86,176.86,16,8,10,10,1.985,"Left",16,8,8,8,0,0,-8,0,-8,8,"Advent",6,-2,16,10,8,10
"92",47,"POL LAM3-Ref-POL LAM4-Ref",-1.14082821376667,-1.0871909711,-1.11778417243333,-1.0860933715,-1.09635154883333,-1.02541755403333,-1.02965676603333,-1.1029527927,-1.0553078715,-1.10828594816667,-1.0451601735,-0.9610173715,0.4017377325,1.3210894445,1.17593315316667,-0.197168460166667,-1.17572230016667,-1.15227099416667,-1.16422213883333,-1.12616772683333,-1.2741202515,-1.20166857283333,-1.2333936475,-1.1080534595,-1.12946528616667,-0.945469516833333,-0.893762018166667,-0.8880008595,-0.985405676166667,-1.0867092695,-1.06345372016667,-1.16064089283333,-0.979064312833333,-0.94270139336,-0.823085298226667,-0.81184017156,-0.7844098381,-0.7098791639,-0.814427863033333,-0.875819167633333,-0.981699700966667,-1.04206653183333,1075,"DG_s06",174.172,174.875,176.86,176.86,16,8,10,10,1.985,"Left",16,8,8,8,0,0,-8,0,-8,8,"Advent",6,-2,16,10,8,10
"93",48,"POL LAM4-Ref-POL LAM5-Ref",0.48298025879,0.332443231456667,0.251839087456667,0.211951235456667,0.10750906679,0.0766111774566667,0.0521160774566667,0.153526703456667,0.18411292899,0.0872905793233333,0.04040330599,0.0147702004566667,0.000864615403333331,-0.00725718379666666,0.0159625095366667,0.03640293359,0.02121547539,0.00791668872333334,0.0474480856566667,0.0598342070566667,0.10272530659,0.18346727899,0.21157653299,0.237991760123333,0.205028960123333,0.23647186079,0.186792574123333,0.0899333181233333,0.167873076123333,0.159493271456667,0.251896447456667,0.24632258079,0.38007206019,0.258564120723333,0.164111278056667,0.01140576859,0.110011480723333,0.0431410700566667,-0.00949398321,-0.0281180745433333,0.0905374321233333,0.132578280123333,1076,"DG_s06",177.86,178.563,179.61,179.61,10,30,10,10,1.047,"Right",10,30,20,20,0,20,0,20,0,-20,"Disadvent",0,20,10,10,10,30
"94",48,"POL LAM3-Ref-POL LAM4-Ref",-0.02378679815,-0.0737505228166667,-0.129641331483333,-0.15753780135,-0.138799004016667,-0.00674110401666667,0.08042282065,0.190760029983333,0.20880510065,0.135488311983333,0.0333549759833333,-0.09984129335,0.0436077751166667,0.0867804625166667,0.0614247131833333,0.07186552805,0.0563150833166667,0.09136630465,-0.0505073120166667,-0.0426697720166667,0.129257841316667,0.219407531316667,0.215235079383333,0.161376420716667,0.0516982233833333,0.03766120865,0.0178621539833333,0.14578288465,0.18659604065,0.0807776873166667,-0.000154959350000011,-0.0851420380166667,0.0406208839833333,0.0891532373166667,0.0428791533166667,-0.0971359880833333,-0.179949575416667,-0.126081398083333,-0.0389729920166667,0.116669355316667,0.18622800465,0.128043271316667,1076,"DG_s06",177.86,178.563,179.61,179.61,10,30,10,10,1.047,"Right",10,30,20,20,0,20,0,20,0,-20,"Disadvent",0,20,10,10,10,30
"95",49,"POL LAM4-Ref-POL LAM5-Ref",0.250356571366667,0.0522042707,0.0589211907,0.1650183067,0.2632918891,0.1541023751,-0.0133792249,-0.0818284466333333,-0.0585689033,-0.0202871673,0.0589087204333333,-0.0029990669,0.0376901904333333,-0.0290308873,-0.0830710493,-0.0682266566333333,-0.1165547933,-0.0139809546333333,0.117978419366667,0.208840062033333,0.201660272033333,0.0811041960333333,0.0604528813666667,0.247259499366667,0.347849202033333,0.364092454033333,0.1534497467,0.00854102203333333,-0.0422910890266667,-0.04901281836,0.0473215609733333,0.0410060320333333,0.1336482787,0.0387700347,0.0543266733666667,-0.0242598733,0.0662066227,-0.0121428226333333,-0.0409117259666667,0.0211387140333333,0.188127326566667,0.247785908566667,1077,"DG_s06",180.61,181.313,183.375,183.375,18,12,10,10,2.062,"Left",18,12,6,6,0,0,-6,0,-6,6,"Advent",8,2,18,10,12,10
"96",49,"POL LAM3-Ref-POL LAM4-Ref",-0.03219693795,0.0484403633833333,0.156887017383333,0.17590411405,0.34119287405,0.265234860716667,0.114340067383333,-0.12403156595,-0.0397345192833333,0.0574680127166667,-0.00497486728333334,0.0221796673833333,-0.01997750335,0.126559992516667,-0.0306159994833333,-0.03192369075,-0.09983545995,0.00874888671666667,-0.0469047552833333,-0.0246958266166667,-0.17312813595,-0.127204816616667,-0.0432302472833333,0.06266620805,0.03974957605,-0.03177792795,-0.04398180195,0.0628076033833333,0.03760476805,0.165729033383333,0.19635980605,0.23534052605,0.0748391067166667,-0.05406553595,-0.130394326616667,-0.10224846195,-0.01924108995,-0.0314914752833333,-0.0880804093033333,-0.0998440853033333,-0.0311091236366667,0.03942702705,1077,"DG_s06",180.61,181.313,183.375,183.375,18,12,10,10,2.062,"Left",18,12,6,6,0,0,-6,0,-6,6,"Advent",8,2,18,10,12,10
"97",50,"POL LAM3-Ref-POL LAM4-Ref",0.0364734536,-0.0104154944,-0.103125919733333,-0.2518613934,-0.316462024733333,-0.241048546066667,-0.0953643570666667,-0.0318867450666667,0.0488711742666667,0.0278576561333333,0.0637871021333333,-0.00321320386666665,0.0147653289333333,-0.00909729773333331,-0.0544993317333333,-0.0432601064,-0.0830369530666667,-0.211588599066667,-0.267908689733333,-0.267230337066667,-0.1616456104,-0.0963867864,-0.0711354196,-0.0454171216,-0.0447598796,-0.0243549110666667,-0.0803519284,-0.204437497066667,-0.313303927066667,-0.323363073066667,-0.3100092504,-0.2534103384,0.0972337676,0.527175138266667,0.767057788266667,0.523055535133333,0.0634136984666667,-0.217777401533333,-0.422221849066667,-0.4268292924,-0.363628781066667,-0.233897829733333,1078,"DG_s06",184.375,185.078,187.375,187.375,10,10,2,2,2.297,"Left",2,2,0,0,0,0,0,0,0,0,"10-10",8,8,10,2,10,2
"98",50,"POL LAM4-Ref-POL LAM5-Ref",0.0109793696666667,-0.0490322276666667,-0.0836707123333333,-0.164014845333333,-0.173185065666667,-0.0801246772666667,0.120908693066667,0.180818219,0.1246178396,-0.000645829733333334,-0.0638192606666667,-0.0402398083333333,0.019067843,0.0415213803333333,-0.010207627,-0.069201543,-0.0621572276666667,-0.0854439876666667,-0.0816418803333333,-0.0353643647666667,0.0168304592333333,-0.0524165474333333,-0.076148731,-0.0445518013333333,0.236279710666667,0.165386082666667,0.153423646333333,0.0715524343333333,0.147421323,0.0546988856666667,-0.0565714756666667,-0.078794567,0.0740571429466667,0.32495633828,0.59838251628,0.519841960266667,0.1941508196,-0.173511173733333,-0.0985678436666667,-0.0291635503333333,0.062085351,0.0960286136666667,1078,"DG_s06",184.375,185.078,187.375,187.375,10,10,2,2,2.297,"Left",2,2,0,0,0,0,0,0,0,0,"10-10",8,8,10,2,10,2
"99",51,"POL LAM4-Ref-POL LAM5-Ref",0.0309250761666667,-0.00294220916666667,0.0456577328333333,0.0790946408333333,0.0702112981666667,0.105484924166667,0.123817610833333,0.165106460166667,0.0688102841666667,-0.0394565645,-0.113686031833333,-0.0367787165,0.0307785168333333,0.0785309277666667,0.100951461766667,0.124021850433333,0.108860152366667,0.0827981410333333,0.0450855143666667,0.0976023621666667,0.0662945555,0.0148623455,-0.0331060671666667,0.00535383816666667,0.110458446833333,0.179923332833333,0.0637932875,-0.0651822811666667,-0.164781051166667,-0.0613616118333333,-0.0281932762066667,-0.0417910596066667,-0.01874065494,0.0296106261,0.0267446728333333,-0.00782931356666667,0.0162423844333333,0.141387977766667,0.2501219935,0.2207434515,0.120659094166667,-0.0215338805,1079,"DG_s06",188.391,189.094,190.344,190.344,10,10,3,31,1.25,"Left",3,31,28,0,28,28,0,0,0,-28,"10-10",7,-21,10,3,10,31
"100",51,"POL LAM3-Ref-POL LAM4-Ref",0.154351450716667,0.0896293113833333,0.0545892279166667,0.148178707916667,0.123870946583333,0.123856445383333,-0.00108168988333333,0.148006830116667,0.17984267745,0.260627986716667,0.14077374805,0.0546513053833333,-0.0857170546833333,-0.138215790683333,0.02133766265,0.0362573793833333,0.109660347383333,-0.06624540195,-0.0492314386166667,-0.0834221452833333,-0.0838194172833333,-0.0432249372833333,-0.0275901786166667,-0.0467099392833333,-0.0107565672833333,-0.07065328795,-0.0747216126166667,-0.13862675395,-0.164170949016667,-0.05043019035,-0.00465096981666666,0.08406661725,0.0249723119166667,-0.0317805952833333,-0.0534747106166667,-0.08205969995,-0.12044234935,-0.126767304016667,-0.0473548624833333,-0.0460665024166667,-0.0420350446833333,-0.0488262502166667,1079,"DG_s06",188.391,189.094,190.344,190.344,10,10,3,31,1.25,"Left",3,31,28,0,28,28,0,0,0,-28,"10-10",7,-21,10,3,10,31
"101",52,"POL LAM4-Ref-POL LAM5-Ref",0.137724708166667,-0.0571829158333333,-0.0959405998333333,0.123278926166667,0.1896507835,0.172964039233333,-0.0453264034333333,-0.1160714561,-0.196337649833333,-0.0751150331666667,-0.0280228011666667,0.0505842841666667,-0.0671012858333333,-0.0246523918333333,0.0588459635,0.0111031901666667,-0.0426800331666667,-0.1075167605,0.0461551248333333,0.145485908166667,0.113457276833333,0.0704076095,-0.0225297318333333,-0.0352552838333333,0.0207100975,0.0262292408333333,0.136536620833333,0.1616413375,0.1653535955,0.0403684001666667,-0.0960635898333333,-0.0978023811666667,-0.0493279645,-0.0181130058333333,0.0136095548333333,0.0478163308333333,0.0675960781,0.0615261561,0.0317311727666667,0.0110109095,0.0385623421666667,-0.0364931552333333,1080,"DG_s06",191.36,192.063,194.047,194.047,10,10,10,22,1.984,"Right",10,22,12,0,12,12,0,0,0,-12,"10-10",0,-12,10,10,22,10
"102",52,"POL LAM3-Ref-POL LAM4-Ref",-0.0098144625,0.0949076421666667,0.182658348166667,0.2441686915,0.0982108497666667,0.0744755544333333,0.0746299303,0.190918893366667,0.157677234033333,0.200151694166667,0.1057960515,0.0270838661666667,-0.0594536985,-0.0359273425,0.1614964975,0.183702032833333,0.134948352833333,0.104620320166667,0.0968564628333333,0.172682284166667,0.148988106833333,0.219046876833333,0.177575152166667,0.1143532115,0.102469368833333,0.0673277535,0.0561308901666667,-0.0206208965,-0.0308843017666667,-0.122424347766667,-0.0888503576333333,-0.00933927903333334,0.0233950263,0.00122482283333333,-0.105758809833333,0.0403182515,0.0854097735,0.122849836166667,0.0455715218333333,-0.0234939648333333,0.0648051245,0.114700438833333,1080,"DG_s06",191.36,192.063,194.047,194.047,10,10,10,22,1.984,"Right",10,22,12,0,12,12,0,0,0,-12,"10-10",0,-12,10,10,22,10
"103",53,"POL LAM4-Ref-POL LAM5-Ref",0.0232585470066667,0.0251916816733334,-0.00481629099333333,-0.186869436326667,-0.0495684309933333,-0.04670365966,-0.0694715429266667,-0.0591736009266667,-0.00887918759333331,0.0114719376733333,-0.02412615166,-0.00806756211333332,0.02954615922,0.302063866553333,0.699955357006667,0.609352739673333,0.22820455262,-0.272473938713333,-0.223454756046667,-0.194525397526667,-0.107867591526667,-0.135891341526667,-0.124802484993333,-0.186694600993333,-0.192861704593333,0.203158994073333,0.25857004874,0.25227373234,-0.142664036993333,-0.0331370903266666,0.16115726634,0.201795323006667,0.03258063234,-0.11280491566,-0.127677976326667,-0.0630724209933333,-0.06314859766,-0.104237458326667,-0.0912403889933333,-0.19507659766,-0.0989943949933333,-0.178735248993333,1081,"DG_s06",195.063,195.766,197.485,197.5,26,10,10,10,1.719,"Right",26,10,16,16,0,0,-16,0,-16,16,"Advent",16,0,10,26,10,10
"104",53,"POL LAM3-Ref-POL LAM4-Ref",-0.460778677066667,-0.512801104066667,-0.483045716733333,-0.323841980066667,-0.280261767733333,-0.2703457772,-0.369562020533333,-0.2784714372,-0.3109083084,-0.245829745066667,-0.247602633066667,-0.0964085630666667,0.0537738788,0.571289905466667,0.750949552133333,0.628816116933333,-0.0208270844,-0.378406183733333,-0.468782899066667,-0.392378679733333,-0.401779619733333,-0.3471034064,-0.4280551444,-0.4304692904,-0.506020793733333,-0.384706089066667,-0.205930823733333,-0.248270887733333,-0.2763121712,-0.3776521952,-0.304907583466667,-0.226318364666667,-0.219144966,-0.1527935884,-0.3473586484,-0.340859681066667,-0.3295522744,-0.295979959866667,-0.326591247866667,-0.476554009866667,-0.352964677733333,-0.381774843066667,1081,"DG_s06",195.063,195.766,197.485,197.5,26,10,10,10,1.719,"Right",26,10,16,16,0,0,-16,0,-16,16,"Advent",16,0,10,26,10,10
"105",54,"POL LAM3-Ref-POL LAM4-Ref",0.0981853081666667,0.0654776348333333,0.0742885088333333,0.0638970601666667,-0.00979712916666666,0.0247238621666667,0.149448916833333,0.1908714835,0.185032484833333,0.0879199321666667,0.0099071415,0.0284860568333333,-0.0291270031666667,-0.0284084185,0.0274751861666667,0.0988449595,0.139096270833333,0.0767860088333333,0.0374108948333333,0.0991459695,0.1254263435,0.205565736833333,0.233238706166667,0.186873832833333,0.167511204166667,0.0924588608333333,0.0548946195,0.0259563835,0.0462967215,0.100455124166667,0.198834588833333,0.243753380833333,0.2431495075,0.0759449928333333,-0.0056779105,-0.0588897411666667,0.0845159225666667,0.0643456157666667,0.0494325691,-0.0937235466333333,-0.0881788258333333,-0.0908364618333333,1082,"DG_s06",198.5,199.203,200.297,200.297,30,10,10,10,1.094,"Left",30,10,20,20,0,0,-20,0,-20,20,"Advent",20,0,30,10,10,10
"106",54,"POL LAM4-Ref-POL LAM5-Ref",0.0620532741666667,-0.0256928358333333,-0.00979341583333333,0.0750082855,0.0204565448333333,-0.0724408971666667,-0.147544649486667,-0.07893332682,0.132422717113333,0.1965887381,0.179521079433333,-0.0036963625,-0.0367676131666667,-0.110887533166667,-0.0793804778333333,-0.113703147166667,-0.0787395718333333,0.0277591775,0.0930428715,0.2687261895,0.229805602833333,0.332052306833333,0.271541160166667,0.334436288166667,0.178812456833333,0.166422710166667,0.1155182355,0.242784826833333,0.198207438833333,0.118723772833333,0.00863879696666667,-0.0189552163666667,-0.0266054323666667,0.0742205395866667,0.0821008042533333,0.0392924595866667,-0.0264464151666667,0.0230223415,0.0573232148333333,0.0256699088333333,0.0190516368333333,0.1625491035,1082,"DG_s06",198.5,199.203,200.297,200.297,30,10,10,10,1.094,"Left",30,10,20,20,0,0,-20,0,-20,20,"Advent",20,0,30,10,10,10
"107",55,"POL LAM3-Ref-POL LAM4-Ref",-0.00654735150000001,0.0166038451666667,0.0490775451666667,-0.0412046868333333,-0.119496626166667,-0.100940638833333,-0.1441695615,-0.118304676833333,-0.0317781761666667,0.1433380585,0.1851157805,0.0751902998333333,-0.0706944681666667,-0.0897443775,-0.1552288395,-0.1931697715,-0.294969198166667,-0.294572156166667,-0.153765190166667,-0.126368372166667,-0.0899599581666667,-0.2545893035,-0.205591228166667,-0.22542274072,-0.08518059472,-0.11223321472,-0.154981456166667,-0.208083988833333,-0.211927922166667,-0.1053460715,-0.0832902175,-0.1185094715,-0.177693386833333,-0.0644297748333333,-0.0267278228333333,-0.0109501648333333,-0.0938933041666667,0.0423795578333333,0.0813546391666667,0.184549111833333,0.0511341098333333,0.0721234345,1083,"DG_s06",201.297,202,203.86,203.875,10,10,6,22,1.86,"Right",6,22,16,0,16,16,0,0,0,-16,"10-10",4,-12,6,10,22,10
"108",55,"POL LAM4-Ref-POL LAM5-Ref",-0.08504452224,-0.0284214279066667,0.00126079275999999,0.01757445276,0.00472359075999999,0.235387352364,0.205462408364,0.0733217936973333,0.0211163380933333,0.000407588759999994,0.0913924154266667,-0.0167975779066667,0.0270924677466667,0.173623295746667,0.14076520508,0.06502270476,-0.07053943344,-0.134374462773333,-0.0974567287733333,-0.01766269924,0.0749372220933333,-0.0236715305733333,-0.201244583906667,-0.211505223906667,-0.185976723906667,-0.16305137524,-0.173244950573333,-0.0682034099066667,-0.0417119165733333,-0.01074238124,-0.0250978659066667,-0.0508524745733333,-0.14667383004,-0.0769261553733333,-0.09787228004,-0.0820970099066667,-0.127454760573333,-0.193434140573333,-0.20198924324,-0.155691256573333,-0.13455516524,-0.102662106573333,1083,"DG_s06",201.297,202,203.86,203.875,10,10,6,22,1.86,"Right",6,22,16,0,16,16,0,0,0,-16,"10-10",4,-12,6,10,22,10
"109",56,"POL LAM4-Ref-POL LAM5-Ref",0.0510611385,0.0473497391666667,0.0303685785,0.107508135166667,-0.0143194955,0.0209457445666667,-0.0727320481,0.0496219785666667,0.00671781383333333,0.0925002058333333,-0.0359878941666667,-0.0215064855,-0.0666303761666667,0.119442799833333,0.1398497565,0.204133357833333,0.0909655151666667,0.0126428471666667,-0.0138024421666667,0.0464416258333333,0.1118551785,0.136852511833333,0.1098595625,0.132209579833333,0.0898540458333333,0.1907080285,0.101544999833333,0.0484547698333333,-0.0232758315,0.2007231885,0.277865217833333,0.2524287265,0.0867196265,-0.0309778541666667,-0.0864448228333333,0.0140480298333333,0.0435090438333333,0.121325789366667,0.0311208987,0.0451951420333333,-0.00387393616666667,-0.0214148815,1084,"DG_s06",204.875,205.578,207.5,207.5,10,10,10,18,1.922,"Left",10,18,8,0,8,8,0,0,0,-8,"10-10",0,-8,10,10,10,18
"110",56,"POL LAM3-Ref-POL LAM4-Ref",0.3941515856,0.404095773,0.177388297666667,0.0528791803333333,0.0552205349333333,0.0304982449333333,0.1051425276,0.120875900266667,0.128940458933333,-0.0200501730666667,-0.0580621324,0.000237862933333333,0.0619376488,-0.0128101338666667,-0.130431062533333,-0.134725155733333,-0.0636636004,-0.0843417270666667,-0.0410272497333333,0.0952441769333333,0.1672310356,0.0925378828,-0.0318335145333333,0.0282886054666667,0.159678977466667,0.1261284948,-0.0163423505333333,-0.139051273066667,-0.0100807097333333,0.1192640416,0.1971991616,0.130929007,0.0468294456666667,0.000887525666666666,0.0340943302666667,0.199279348266667,0.240150520933333,0.139151236933333,0.104633558933333,0.0407648456666667,0.031159727,-0.0267095016666667,1084,"DG_s06",204.875,205.578,207.5,207.5,10,10,10,18,1.922,"Left",10,18,8,0,8,8,0,0,0,-8,"10-10",0,-8,10,10,10,18
"111",57,"POL LAM4-Ref-POL LAM5-Ref",-0.228256478833333,0.0601991611666667,0.0442613611666667,0.0765046431666667,-0.0954557755666667,-0.0795460809,-0.0337319149,0.0182799131666667,0.226761839833333,0.2683973885,0.168661895833333,-0.0228041348333333,-0.0205753361666667,-0.0531504921666667,-0.0189919095,-0.129852124166667,-0.0292900648333333,-0.0164196901666667,0.0469154778333333,-0.0733484488333333,-0.107720752833333,0.0521419138333333,0.0762810657,0.1039316477,-0.0173654849666667,-0.00223982356666667,-0.0664914755666667,-0.0381946475666667,-0.0262090387,0.0110905626333333,-0.0723755140333333,-0.0213957128333333,-0.0246708715,0.0449509758333333,0.0454488691666667,0.0741126871666667,0.0779545873666667,0.0543067347,0.0848172280333333,0.0229316685,0.0059966825,-0.0680000908333333,1085,"DG_s06",208.5,209.203,210.969,210.969,10,10,13,22,1.766,"Right",13,22,9,0,9,9,0,0,0,-9,"10-10",-3,-12,13,10,22,10
"112",57,"POL LAM3-Ref-POL LAM4-Ref",-0.0675121698,-0.00413731366666667,-0.00872945366666666,0.0365058516666667,0.061128387,0.152256607,-0.0174900676666667,-0.0745037583333333,-0.118862980333333,-0.0592612376666667,-0.042113017,-0.0203528083333333,0.0616395716666667,-0.00599400899999999,-0.0835512116666667,-0.071307545,-0.0118770279333333,0.00950190806666668,-0.0874526472666667,-0.120682260333333,-0.099645907,-0.153609111666667,-0.245174286333333,-0.215550279666667,-0.113346482553333,-0.00841617788666667,-0.0612216458866667,-0.0668562423333333,-0.116102891466667,-0.0685626594666667,-0.1289790168,-0.0455128316666667,-0.0495451456666667,-0.00412982833333334,-0.0967511243333333,-0.0101520383333333,0.141327247666667,0.194270699,0.146680964066667,0.0590001574,0.106802352733333,0.0111207864,1085,"DG_s06",208.5,209.203,210.969,210.969,10,10,13,22,1.766,"Right",13,22,9,0,9,9,0,0,0,-9,"10-10",-3,-12,13,10,22,10
