"","trial","electrodes","bin_1","bin_2","bin_3","bin_4","bin_5","bin_6","bin_7","bin_8","bin_9","bin_10","bin_11","bin_12","bin_13","bin_14","bin_15","bin_16","bin_17","bin_18","bin_19","bin_20","bin_21","bin_22","bin_23","bin_24","bin_25","bin_26","bin_27","bin_28","bin_29","bin_30","bin_31","bin_32","bin_33","bin_34","bin_35","bin_36","X","SID","newround_time","choice_time","buttonpress_time","reveal_time","self_payoff","other_payoff","self_foregone","other_foregone","RT","side_chosen","self_var_payoff","other_var_payoff","ineq_var_abs","ineq_choice_abs","ineq_foregone_abs","ineq_disadvent","ineq_advent","ineq_disadvent_choice","ineq_advent_choice","ineq_var","ineq_choice","chose_equality","self_diff","other_diff","L_self","R_self","L_other","R_other"
"1",2,"POL RPC5-Ref-POL RPC6-Ref",-0.4376173823,-0.2667319823,0.0980218677,0.5475862677,0.889887184,0.983095084,0.7922244245,0.4489736995,0.16558515485,0.04713880485,0.09141336435,0.17092188935,0.1203226455,-0.0855245045,-0.3547307545,-0.5971597045,-0.776427916,-0.845466966,-0.843821766,-0.837592116,-0.825970266,-0.828895716,-0.830441266,-0.788689566,-0.706920366,-0.625143766,-0.572060516,-0.515305616,-0.4028017495,-0.2187381495,-0.00500824950000001,0.1380526005,0.130223408,-0.040019392,-0.318830992,-0.564246042,1714,"DG_s09",3,3.625,4.797,4.797,12,12,10,10,1.172,"Left",12,12,0,0,0,0,0,0,0,0,0,"Equal",2,2,12,10,12,10
"2",2,"POL RPC4-Ref-POL RPC5-Ref",-0.4879723453,-0.269477772,0.058150828,0.296706953,0.2563828865,-0.1278191635,-0.5575595135,-0.750585623,-0.6800406945,-0.4068212945,-0.259217092,-0.4259045325,-0.7068712325,-0.9371156325,-1.076009685,-1.141632885,-1.194829335,-1.218250535,-1.179107035,-1.080477035,-1.024147985,-1.102138385,-1.160051685,-1.060249841,-0.774708791,-0.360934591,-0.045949291,0.042421755,-0.013579985,-0.080621235,-0.086128435,-0.042827575,-0.048759768,-0.184163928,-0.458810978,-0.783458678,1714,"DG_s09",3,3.625,4.797,4.797,12,12,10,10,1.172,"Left",12,12,0,0,0,0,0,0,0,0,0,"Equal",2,2,12,10,12,10
"3",2,"POL RHP6-Ref-POL RHP7-Ref",-0.062595166,0.022252724,-0.008245156,-0.11823451585,-0.26559476835,-0.41468335835,-0.55519510835,-0.66890335835,-0.65844505835,-0.50020610035,-0.18623580035,0.24519294965,0.63231989965,0.86350524165,0.88004994165,0.71252407165,0.49364035165,0.41709450165,0.61611520165,1.07787672165,1.62294299165,1.96440429165,1.87944334165,1.44214689165,1.07668094165,1.00506694165,1.24913094165,1.61554289165,1.69234519165,1.38610946165,0.83088614415,0.21525684415,-0.21722735585,-0.42912952585,-0.50882560835,-0.53515510835,1714,"DG_s09",3,3.625,4.797,4.797,12,12,10,10,1.172,"Left",12,12,0,0,0,0,0,0,0,0,0,"Equal",2,2,12,10,12,10
"4",2,"POL ROF2-Ref-POL ROF3-Ref",1.18268045165,1.42706342565,1.19166618365,0.57315078365,0.06439793365,-0.20666028135,-0.27032174435,-0.22435274435,-0.39318219435,-0.63628852935,-0.81311752435,-0.77059872435,-0.52073877185,-0.23170044685,0.02899579315,0.14760048915,0.09521688665,-0.09078923835,-0.35151297835,-0.56987382435,-0.66524182435,-0.64332927435,-0.52260922435,-0.39983197435,-0.35997912435,-0.40484782435,-0.49768252435,-0.55626162435,-0.55235817435,-0.50829157435,-0.49146142435,-0.58473167435,-0.62825977435,-0.54283344485,-0.33039234485,-0.04587676285,1714,"DG_s09",3,3.625,4.797,4.797,12,12,10,10,1.172,"Left",12,12,0,0,0,0,0,0,0,0,0,"Equal",2,2,12,10,12,10
"5",2,"POL ROF5-Ref-POL ROF6-Ref",1.7414477615,1.3569423915,0.7250517915,0.1987204615,-0.0077500385,0.1526023815,0.5190624815,0.8001495115,0.8525383115,0.6525398095,0.2542743095,-0.2278404905,-0.6080138405,-0.7540632385,-0.6702478785,-0.4509577185,-0.2727553185,-0.2130923185,-0.2229865285,-0.2815369385,-0.4058332885,-0.6317059385,-0.7874071885,-0.7915537885,-0.618876446564,-0.354736601564,-0.305571701564,-0.374613251564,-0.3713857525,-0.2751517475,-0.0703826975,0.1326455025,0.2615750115,0.3680480115,0.4489234615,0.4266124315,1714,"DG_s09",3,3.625,4.797,4.797,12,12,10,10,1.172,"Left",12,12,0,0,0,0,0,0,0,0,0,"Equal",2,2,12,10,12,10
"6",2,"POL LAM5-Ref-POL LAM6-Ref",0.1334393165,0.3810781165,0.5369139015,0.526402935,0.2956528385,0.0419949385,-0.0324878632,0.0905286833,0.3906737833,0.60778443789,0.55418695459,0.35149815459,0.21008336959,0.24070648,0.43336503,0.64142423,0.68461433025,0.63455976175,0.67770816175,0.87700856175,1.1729356465,1.3582656,1.32490495,1.2554529,1.31038,1.5004057,1.6606332,1.5258899945,1.0204714945,0.4285522945,0.0270234445,-0.1619045,-0.1556785,-0.11484535,-0.1416401,-0.16471705,1714,"DG_s09",3,3.625,4.797,4.797,12,12,10,10,1.172,"Left",12,12,0,0,0,0,0,0,0,0,0,"Equal",2,2,12,10,12,10
"7",2,"POL LAM6-Ref-POL LAM7-Ref",0.409242519,0.704882019,1.062105769,1.311571719,1.2501377745,0.8893695745,0.4704448745,0.1784325245,0.01658685,-0.0754049999999999,-0.140799,-0.24544255,-0.32000005,-0.1436754745,0.1813388005,0.5626120005,0.8832703255,0.894976072,0.652121147,0.395006847,0.240679522,0.2446004,0.35258165,0.3811196,0.26189285,0.09957105,0.0984258285,0.2249726335,0.4225544538,0.4925953038,0.4204441353,0.48858465935,0.73602038905,1.13803443905,1.38497387905,1.2485350505,1714,"DG_s09",3,3.625,4.797,4.797,12,12,10,10,1.172,"Left",12,12,0,0,0,0,0,0,0,0,0,"Equal",2,2,12,10,12,10
"8",2,"POL LAM3-Ref-POL LAM4-Ref",0.40577777425,0.16684662425,-0.12229222575,-0.38427302575,-0.55852201,-0.60402751,-0.518589635,-0.366017708,-0.201630008,-0.0791271405,-0.0676679355,-0.1370595625,-0.1235606765,0.084060406,0.505746526,1.034684776,1.42173219,1.48934569,1.21890394,0.723993614,0.159956264,-0.318879336,-0.559410536,-0.59877191,-0.55582756,-0.48860551,-0.41450644,-0.317998268,-0.165428568,0.037375632,0.235393862,0.47498914,0.80337694,1.14447994,1.31760319,1.14847948,1714,"DG_s09",3,3.625,4.797,4.797,12,12,10,10,1.172,"Left",12,12,0,0,0,0,0,0,0,0,0,"Equal",2,2,12,10,12,10
"9",2,"POL ROF4-Ref-POL ROF5-Ref",-0.1869028,-0.1449564,-0.0542805,0.0394024,0.09125445,0.1066403,0.0629635,-0.070533,-0.19694775,-0.153404454,0.041286296,0.341130846,0.604817796,0.6224684,0.42200745,0.2263962,0.1392736,0.10369415,0.03224645,0.1206807705,0.4644960705,1.0961327705,1.9261356205,2.4258612,2.33755455,1.69757574,0.91073459,0.457406521,0.404654621,0.717623231,1.096645731,1.1948463,1.0331497884,0.6764836884,0.2575900384,-0.0641707116,1714,"DG_s09",3,3.625,4.797,4.797,12,12,10,10,1.172,"Left",12,12,0,0,0,0,0,0,0,0,0,"Equal",2,2,12,10,12,10
"10",2,"POL RPC2-Ref-POL RPC3-Ref",0.29293795,0.32981105,0.21796670315,-0.09078899685,-0.41851269685,-0.57819398185,-0.58804454,-0.45865165,-0.3780494,-0.528551865,-0.69639076,-0.6059352665,-0.2713752165,0.2066223835,0.5698148335,0.569014329,0.271180769,-0.155863331,-0.539961881,-0.75907161,-0.7181891195,-0.3981754195,0.1253524305,0.7172387305,1.24812335,1.66727195,1.93802745,2.02380195,1.92690295,1.69627645,1.38879195,1.039427,0.633809197,0.155816247,-0.316004253,-0.681295903,1714,"DG_s09",3,3.625,4.797,4.797,12,12,10,10,1.172,"Left",12,12,0,0,0,0,0,0,0,0,0,"Equal",2,2,12,10,12,10
"11",2,"POL RAM6-Ref-POL RAM7-Ref",0.513769278,0.6362089935,0.6270562385,0.4996557955,0.3237929155,0.1652834,0.0355607,-0.0279043,0.0193869,0.153584895,0.3571352805,0.53963942245,0.59614224245,0.57633944245,0.61335138595,0.800654694,1.173575724,1.663682279,2.10927285,2.37176825,2.36827925,2.15830595,1.96288535,1.93639435,2.08489285,2.27108615,2.26114105,1.95231248,1.4236807599,0.8905001599,0.5313276099,0.3745586299,0.39459685,0.45033375,0.40903915,0.32049755,1714,"DG_s09",3,3.625,4.797,4.797,12,12,10,10,1.172,"Left",12,12,0,0,0,0,0,0,0,0,0,"Equal",2,2,12,10,12,10
"12",2,"POL LAM1-Ref-POL LAM2-Ref",0.381488322,0.6123828106,0.726350048,0.841384926,1.036924726,1.2817781374,1.39073755,1.1738319925,0.7005251925,0.3150469925,0.2002265275,0.435264635,0.871974035,1.180022235,1.29408805,1.207329365,0.9565784635,0.5935158135,0.3482516235,0.364982234,0.6918060855,1.3234109355,1.9440382755,2.30144625,2.37326,2.311583,2.282871,2.3261815,2.34596,2.1663768,1.75911145,1.3068914,0.9531735115,0.7048999265,0.5118281265,0.3848448765,1714,"DG_s09",3,3.625,4.797,4.797,12,12,10,10,1.172,"Left",12,12,0,0,0,0,0,0,0,0,0,"Equal",2,2,12,10,12,10
"13",2,"POL RPC3-Ref-POL RPC4-Ref",0.8347596775,1.3419936275,1.5883048025,1.4074784745,0.9259485745,0.6009506145,0.5290180865,0.765611037,1.169724337,1.293316607,1.10357346,0.897612615,0.868431005,0.972727145,1.141964347,1.151305442,1.0593460645,1.0505388145,1.1661580125,1.3093827625,1.3462337,1.3366418,1.35655645,1.38609915,1.350589194928,1.289416564928,1.273223364928,1.310012364928,1.3439007625,1.2607476475,1.0678283475,0.8565838975,0.687821455,0.54649725,0.37184535,0.181008,1714,"DG_s09",3,3.625,4.797,4.797,12,12,10,10,1.172,"Left",12,12,0,0,0,0,0,0,0,0,0,"Equal",2,2,12,10,12,10
"14",2,"POL RAM5-Ref-POL RAM6-Ref",0.1468423,0.1180713,0.02326765,-0.09765825,-0.1855213,-0.19002135,-0.10492765,0.03152335,0.1454559,0.1574118,0.0347897,-0.15103995,-0.3090017,-0.3754216,-0.28038855,-0.0862856299999999,0.161299775,0.506141725,0.916223925,1.296566455,1.46893655,1.269467705,0.942750856,0.771018556,0.800555206,1.006055501,1.07748075123,0.88016661123,0.67055802373,0.63404482373,0.7679703725,0.9392651125,0.9491231635,0.7245598135,0.3564086135,-0.0218814365,1714,"DG_s09",3,3.625,4.797,4.797,12,12,10,10,1.172,"Left",12,12,0,0,0,0,0,0,0,0,0,"Equal",2,2,12,10,12,10
"15",2,"POL LAM2-Ref-POL LAM3-Ref",-0.84172268145,-0.91918733195,-0.71517156995,-0.34962166995,-0.07028408195,-0.05084655195,-0.11165776695,-0.06364196695,0.10424974505,0.26953542155,0.11571082955,-0.06533109765,0.03467940235,0.47974298085,1.24841282585,1.77431880305,1.74281890305,1.27108324305,0.66203807955,0.18302874955,-0.06856395045,-0.11713663045,-0.10247631695,-0.11880469695,-0.13620457695,-0.11672263695,-0.07319688695,-0.06352086645,-0.16221562145,-0.36673592145,-0.51789257145,-0.56461271695,-0.53001552695,-0.48272382695,-0.54271632695,-0.66800944195,1714,"DG_s09",3,3.625,4.797,4.797,12,12,10,10,1.172,"Left",12,12,0,0,0,0,0,0,0,0,0,"Equal",2,2,12,10,12,10
"16",2,"POL RHP4-Ref-POL RHP5-Ref",0.3839982762,0.3250203007,0.1114117007,-0.1105987493,-0.231482425,-0.243160075,-0.231461225,-0.271121375,-0.271862275,-0.182118043,-0.017762043,0.148382424,0.147637474,0.062879277,0.0480145125,0.1553018455,0.3702636955,0.5876833105,0.824810225,1.188120225,1.686483075,2.179168275,2.433181075,2.311711575,1.900461575,1.441836175,1.109760925,0.926952525,0.800351175,0.606798105,0.344279105,0.092385155,-0.105153095,-0.252515925,-0.346905425,-0.368916275,1714,"DG_s09",3,3.625,4.797,4.797,12,12,10,10,1.172,"Left",12,12,0,0,0,0,0,0,0,0,0,"Equal",2,2,12,10,12,10
"17",2,"POL ROF3-Ref-POL ROF4-Ref",-0.6583160185,-0.6115576855,-0.3903080805,-0.25597371795,-0.27194128345,-0.38283163345,-0.58471778845,-0.814631151,-0.9956283445,-1.1608905945,-1.1717648945,-0.9523484995,-0.5750516495,-0.0181552495,0.5172344505,0.7581696055,0.6175645895,0.1765966395,-0.3257539105,-0.7026671105,-0.8465884445,-0.70769314515,-0.39896174515,-0.03658554515,0.27208860485,0.3893078055,0.2757741205,-0.0145483095,-0.4111940095,-0.7764718595,-0.8999730895,-0.7624386655,-0.4010391655,0.0211203345,0.2114470445,0.0681483515,1714,"DG_s09",3,3.625,4.797,4.797,12,12,10,10,1.172,"Left",12,12,0,0,0,0,0,0,0,0,0,"Equal",2,2,12,10,12,10
"18",2,"POL ROF1-Ref-POL ROF2-Ref",0.0263050500000001,-0.14380305,-0.25623735,-0.24275255,-0.11703975,0.00763230000000004,0.1658861,0.3268514,0.42548795,0.473848125,0.5306944466,0.6500500466,0.8162345966,0.9377684216,0.8891149435,0.6186437935,0.3953508135,0.3615461654,0.4984778219,0.6970514204,0.6574360504,0.4501526985,0.2683099485,0.1889455,0.22397995,0.2482453,0.22809515,0.26457502,0.40493917865,0.59338862865,0.7067453683,0.6365341483,0.39298553965,0.14520798965,-0.01839445,-0.10633995,1714,"DG_s09",3,3.625,4.797,4.797,12,12,10,10,1.172,"Left",12,12,0,0,0,0,0,0,0,0,0,"Equal",2,2,12,10,12,10
"19",2,"POL RAM2-Ref-POL RAM3-Ref",0.21396599635,0.09781312135,-0.10881937865,-0.33088445565,-0.4867242105,-0.6017531605,-0.6095705605,-0.4679394455,-0.276908676,-0.0907003685,-0.0673478685,-0.1836787335,-0.238825183,-0.2206600795,-0.0957070295,0.0779851533,0.2478670333,0.5010527223,0.8433314723,1.1542600395,1.3061239395,1.3048612395,1.2014092395,1.0175829895,0.7474272605,0.4190653605,0.1633953655,0.0758732325,0.1586632115,0.3365026115,0.4563995565,0.442970116355,0.317586991355,0.127119191355,-0.034048658645,-0.048685654,1714,"DG_s09",3,3.625,4.797,4.797,12,12,10,10,1.172,"Left",12,12,0,0,0,0,0,0,0,0,0,"Equal",2,2,12,10,12,10
"20",2,"POL RHP5-Ref-POL RHP6-Ref",-0.05405205,-0.1122628,-0.12806115,-0.1340361,-0.17075095,-0.17614295,-0.14311215,-0.0851531999999999,-0.0367398999999999,-0.0347792,-0.0708449,-0.07315105,0.131578249,0.569446099,1.220621449,1.963279099,2.53156465,2.7788035,2.688964,2.3422249,1.8649824,1.39435755,1.04867485,0.88657925,0.8825784,0.92885915,0.8792625215,0.6519341215,0.4134729715,0.32505009,0.4117650685,0.6319574185,0.7520544565,0.627877888,0.385082288,0.220262588,1714,"DG_s09",3,3.625,4.797,4.797,12,12,10,10,1.172,"Left",12,12,0,0,0,0,0,0,0,0,0,"Equal",2,2,12,10,12,10
"21",2,"POL RPC1-Ref-POL RPC2-Ref",0.0060042005,-0.5724880495,-0.9241814995,-0.9961418605,-0.8359713905,-0.6398013755,-0.6047870755,-0.7235790255,-0.7900633705,-0.678128422,-0.395760822,-0.046073072,0.100427286,-0.0754427875,-0.4272274375,-0.7253057375,-0.8923968205,-0.9261573105,-0.8575347105,-0.7746348605,-0.7456339605,-0.8540027605,-0.8955952305,-0.7713477585,-0.4950587085,-0.0555936085,0.2227995115,0.158066497,-0.214273053,-0.587508853,-0.610708424,-0.2993986315,0.2525958185,0.6686277185,0.550604256,-0.021041244,1714,"DG_s09",3,3.625,4.797,4.797,12,12,10,10,1.172,"Left",12,12,0,0,0,0,0,0,0,0,0,"Equal",2,2,12,10,12,10
"22",2,"POL RAM3-Ref-POL RAM4-Ref",-0.1288404,-0.0573692,0.0352896,0.01702685,-0.03773855,-0.02967941,0.071757814,0.222385971,0.290948701,0.184542361,0.024538337,-0.08520387,-0.146699,-0.1166131,-0.0132138545,0.1359826305,0.3908752805,0.7321592305,1.027912635,1.19799715,1.21702015,1.12114255,0.99461715,0.9118796,0.9072004,0.96069995,1.0249362,1.0693539,1.0664201,0.98456105,0.81600509915,0.59225161415,0.36110031415,0.15261861415,-0.030086935,-0.16362815,1714,"DG_s09",3,3.625,4.797,4.797,12,12,10,10,1.172,"Left",12,12,0,0,0,0,0,0,0,0,0,"Equal",2,2,12,10,12,10
"23",2,"POL RAM4-Ref-POL RAM5-Ref",0.57547303,0.65118018,0.60859353,0.534321175,0.525845116,0.608116473,0.733202453,0.8159537655,0.7959115495,0.6767650425,0.5176763625,0.3739902,0.2260545,0.1145701,0.213779722,0.498739272,0.845698222,1.070111487,1.0919912925,1.1335227925,1.3048918925,1.6569855775,2.05137635,2.25649065,2.25997315,2.143979,2.02465805,1.98715255,2.08218855,2.2638157,2.35706665,2.20789205,1.776631971,1.134424671,0.457740671,-0.030430729,1714,"DG_s09",3,3.625,4.797,4.797,12,12,10,10,1.172,"Left",12,12,0,0,0,0,0,0,0,0,0,"Equal",2,2,12,10,12,10
"24",2,"POL ROF6-Ref-POL ROF7-Ref",0.321897245,0.209725735,0.1811813,0.3284937625,0.6373831625,1.0054127625,1.3073097625,1.39831065,1.192956743,0.736076993,0.288844043,-0.037334557,-0.21750715,-0.1793454,-0.0810653,0.0459631500000001,0.24112879,0.46421569,0.75644904,1.16331239,1.6469964,2.06084685,2.2145196,1.9824686685,1.3930667685,0.8219511185,0.50870501532,0.47060464682,0.65349143682,0.77187764037,0.75438840655,0.72225982655,0.72893928655,0.73185711265,0.63114564965,0.37418847965,1714,"DG_s09",3,3.625,4.797,4.797,12,12,10,10,1.172,"Left",12,12,0,0,0,0,0,0,0,0,0,"Equal",2,2,12,10,12,10
"25",3,"POL LAM6-Ref-POL LAM7-Ref",0.8971038215,0.5360007065,0.3206984225,0.3035899225,0.5018533275,0.6513339425,0.59015165135,0.48636962285,0.48555042285,0.63847227285,0.899692998,1.1697469765,1.3212431265,1.2461970265,0.9500842385,0.6119007435,0.3896312469,0.3865010969,0.6869603849,1.1995798799,1.7817047265,2.2855237265,2.5123205265,2.3519933265,1.8542002615,1.214641796,0.727439689195,0.552225989195,0.667392904195,0.931047219695,1.1395492765,1.2530336265,1.3499307765,1.4655659265,1.5495989265,1.4895718765,1715,"DG_s09",5.797,6.422,7.688,7.688,10,10,8,8,1.266,"Left",8,8,0,0,0,0,0,0,0,0,0,"10-10",2,2,10,8,10,8
"26",3,"POL ROF2-Ref-POL ROF3-Ref",1.8056978965,1.4045485965,0.9210073965,0.5503580965,0.3225624465,0.2458348215,0.2964793215,0.4675438215,0.7945612715,1.1557096965,1.2705268965,1.019264592,0.516120792,0.0846898445,-0.1083899055,-0.082572251,0.071074549,0.1768737965,0.1627312515,0.0245197262,-0.2476441738,-0.5360840238,-0.7351288288,-0.7884138035,-0.5698953485,-0.1511724485,0.3683916515,0.9654936015,1.4998920465,1.8247826965,1.9044976965,1.7742341965,1.4778356965,1.0434567345,0.4960439545,-0.1111451955,1715,"DG_s09",5.797,6.422,7.688,7.688,10,10,8,8,1.266,"Left",8,8,0,0,0,0,0,0,0,0,0,"10-10",2,2,10,8,10,8
"27",3,"POL LAM5-Ref-POL LAM6-Ref",-1.5625905605,-2.0033795555,-2.3740358055,-2.5870297755,-2.5870233525,-2.3846783075,-2.0935151075,-1.8936992875,-1.885704981,-2.055831963,-2.281110013,-2.381929204,-2.263609973,-1.959076091,-1.604020591,-1.37638045,-1.36907485,-1.53672485,-1.71630635,-1.77372955,-1.70399325,-1.5997329,-1.58994285,-1.7100282,-1.8876448,-2.04311015,-2.13176295,-2.15552645,-2.13821355,-2.09594585,-2.04873775,-2.02224805,-2.03098915,-2.0852214,-2.201128867875,-2.361965517875,1715,"DG_s09",5.797,6.422,7.688,7.688,10,10,8,8,1.266,"Left",8,8,0,0,0,0,0,0,0,0,0,"10-10",2,2,10,8,10,8
"28",3,"POL RPC4-Ref-POL RPC5-Ref",0.02387045,-0.1861769,-0.5092375075,-0.9232661575,-1.2737486075,-1.4084937435,-1.255110886,-0.783969936,-0.150353086,0.4085034,0.70698815,0.63180515,0.22832779,-0.3129278925,-0.7832022925,-1.0908940425,-1.2585187825,-1.2908961445,-1.1968739945,-1.0364762945,-0.8797278445,-0.8315489707,-0.9262376707,-1.0614327407,-1.1224266079,-1.0693482872,-0.9695675872,-0.9673602892,-1.139950172,-1.24035769,-1.10847429,-0.764103368,-0.355655968,-0.3101254685,-0.6598953185,-0.8827048725,1715,"DG_s09",5.797,6.422,7.688,7.688,10,10,8,8,1.266,"Left",8,8,0,0,0,0,0,0,0,0,0,"10-10",2,2,10,8,10,8
"29",3,"POL LAM2-Ref-POL LAM3-Ref",0.45570035,0.496266577,0.643602989,0.907952639,1.215442289,1.400499862,1.36122131615,1.10273576615,0.76538506615,0.61855509325,0.7531749771,1.1471380771,1.6320280271,1.8970673,1.82471379,1.463687995,0.986398595,0.545938745,0.246282605,0.19594625,0.3322501235,0.5904671935,0.9146528935,1.1482736435,1.219376955,1.1185920595,0.9021645095,0.6692320595,0.4839088245,0.38465625,0.4358273165,0.6554500565,1.0257057565,1.4731267065,1.81103779,1.85748165,1715,"DG_s09",5.797,6.422,7.688,7.688,10,10,8,8,1.266,"Left",8,8,0,0,0,0,0,0,0,0,0,"10-10",2,2,10,8,10,8
"30",3,"POL RPC5-Ref-POL RPC6-Ref",0.319557,0.09986275,-0.20592029745,-0.56619454745,-0.94924984745,-1.28952114745,-1.40706345,-1.2268064225,-0.7404874725,-0.0837764225000001,0.4252809275,0.6034039,0.42227505,0.02046103165,-0.39148393835,-0.66989512335,-0.81494449835,-0.88599408,-0.91306306,-0.944620125,-1.02719385,-1.1730024,-1.36481285,-1.5336609,-1.4452112725,-1.0257479725,-0.4024330725,0.1945063275,0.4131149,0.1192098785,-0.4072579215,-0.8321030715,-1.1129908215,-1.18905125,-1.0317928925,-0.7831734425,1715,"DG_s09",5.797,6.422,7.688,7.688,10,10,8,8,1.266,"Left",8,8,0,0,0,0,0,0,0,0,0,"10-10",2,2,10,8,10,8
"31",3,"POL RAM2-Ref-POL RAM3-Ref",0.32558774815,0.3188873232,0.3226099832,0.4075531332,0.58771231825,0.80885439355,0.95142494855,1.00845619855,1.29336339855,2.10274894855,3.48035409855,5.11503574855,6.30870724855,6.50696324855,5.65581424855,4.19589874855,2.74680864855,1.66715684855,1.00266042205,0.58804058705,0.19981383705,-0.12226306295,-0.23852208645,-0.21503785145,-0.13566975145,-0.13188115145,-0.22855395145,-0.31101295145,-0.31073145145,-0.18825370145,-0.05437390145,-0.01006380145,-0.06508730145,-0.14488400145,-0.19948645145,-0.24017990145,1715,"DG_s09",5.797,6.422,7.688,7.688,10,10,8,8,1.266,"Left",8,8,0,0,0,0,0,0,0,0,0,"10-10",2,2,10,8,10,8
"32",3,"POL RHP6-Ref-POL RHP7-Ref",0.06003615,0.234113243,0.482891043,0.661464348,0.7089314816,0.6197637386,0.4392197386,0.2928494336,0.311838986,0.519368236,0.841725486,1.102947986,1.1310783625,0.8980303125,0.5138716125,0.1967843125,0.091641675,0.244994426,0.580117076,0.903609676,1.069188601,1.0190524455,0.8606177655,0.71296426825,0.60262192425,0.54145047875,0.51483500875,0.476112906,0.4105302,0.3014105,0.2180966,0.16498375,0.15189165,0.2156933,0.26887605,0.2819609,1715,"DG_s09",5.797,6.422,7.688,7.688,10,10,8,8,1.266,"Left",8,8,0,0,0,0,0,0,0,0,0,"10-10",2,2,10,8,10,8
"33",3,"POL ROF3-Ref-POL ROF4-Ref",0.3084366,0.5348759,0.6808623,0.7251483,0.6936943,0.56598585,0.2907015,-0.09425948605,-0.46698927105,-0.74991772105,-0.93360782105,-1.00325227,-0.958777124,-0.835714324,-0.682655424,-0.573771689,-0.568687988,-0.663617793,-0.816341543,-0.986311043,-1.156063455,-1.3326966,-1.48858,-1.53748315,-1.48587205,-1.40781925,-1.3994561,-1.37299555,-1.2241081775,-0.9238565275,-0.4812586275,-0.1245709775,0.01127625,-0.0424046,-0.1779907,-0.2747447,1715,"DG_s09",5.797,6.422,7.688,7.688,10,10,8,8,1.266,"Left",8,8,0,0,0,0,0,0,0,0,0,"10-10",2,2,10,8,10,8
"34",3,"POL RHP4-Ref-POL RHP5-Ref",-0.53752855,-0.430415,-0.4029933,-0.632291574,-1.008177574,-1.309573574,-1.539926524,-1.629013965,-1.31026938,-0.65195308,0.37452537,1.582712835,2.3855102,2.5125417,1.89774915,0.735391035,-0.203140125,-0.629243875,-0.576442825,-0.21499096,-0.15670545,-0.427244385,-0.7499851,-0.9487519,-0.9798709,-0.914477215,-0.8803422,-0.95353015575,-1.16276995575,-1.40972830575,-1.52014082575,-1.484293866,-1.330748941,-1.2006071375,-1.2780559175,-1.5042830715,1715,"DG_s09",5.797,6.422,7.688,7.688,10,10,8,8,1.266,"Left",8,8,0,0,0,0,0,0,0,0,0,"10-10",2,2,10,8,10,8
"35",3,"POL RAM5-Ref-POL RAM6-Ref",0.433980477,0.452348605,0.4243576979,0.3622027179,0.2847210679,0.2074614029,0.12314961,-0.00729131,-0.16250896,-0.20713366,-0.1272164045,0.035718388,0.216067908,0.3428529045,0.440390249,0.5080476565,0.5411199965,0.54437728,0.51742783,0.4438869255,0.2832099155,0.1734171,0.21650016,0.4037573145,0.7073604645,0.8654235,0.7517831295,0.4832027795,0.2102768795,0.0616395295,0.01663349,-0.0510382599999999,-0.13115866,-0.0602587565,0.1354445935,0.4637130435,1715,"DG_s09",5.797,6.422,7.688,7.688,10,10,8,8,1.266,"Left",8,8,0,0,0,0,0,0,0,0,0,"10-10",2,2,10,8,10,8
"36",3,"POL RAM6-Ref-POL RAM7-Ref",-0.246234976,-0.1365409505,0.0992191495,0.2558298565,0.177872171,-0.071468929,-0.339095829,-0.529638736,-0.621423601,-0.627796051,-0.638891351,-0.617587651,-0.47733220885,-0.21414405885,0.15411499115,0.51073709115,0.725779499,0.761210299,0.659801299,0.521839649,0.448597599,0.492691099,0.638446399,0.808563299,0.897422349,0.810521244,0.508928431,0.146356381,-0.0577980575,-0.0744907025,0.0591251105,0.14169829,-0.0080239715,-0.1039727395,-0.0081947895,0.279519631,1715,"DG_s09",5.797,6.422,7.688,7.688,10,10,8,8,1.266,"Left",8,8,0,0,0,0,0,0,0,0,0,"10-10",2,2,10,8,10,8
"37",3,"POL ROF6-Ref-POL ROF7-Ref",-0.48376525,-0.414242,-0.2653977,-0.1414323,-0.2205661,-0.33659415,-0.38106995,-0.3554922,-0.27777815,-0.31276565,-0.4005591,-0.48566185,-0.56809825,-0.4990204,-0.2976530295,-0.00246067950000001,0.3642013705,0.6543127205,0.9150992,1.2459216,1.6547679,2.0402148,2.26627875,2.34959925,2.35773875,2.30272625,2.17672875,1.99936675,1.79529025,1.5486945,1.1905188435,0.7762278835,0.504261438,0.412600338,0.4549165345,0.4497040095,1715,"DG_s09",5.797,6.422,7.688,7.688,10,10,8,8,1.266,"Left",8,8,0,0,0,0,0,0,0,0,0,"10-10",2,2,10,8,10,8
"38",3,"POL ROF5-Ref-POL ROF6-Ref",-0.6197854,-0.57247965,-0.356400215,-0.054751335835,0.206842064165,0.407661164165,0.527886229165,0.5631761,0.53556435,0.48430149,0.432641935,0.364174674,0.242902924,0.079723284,-0.028949711,-0.0228650582,0.0788889618,0.194775792045,0.204441242045,0.084540650245,-0.040121369755,0.00332677300000001,0.278508673,0.727773873,1.175497873,1.3916587,1.2609672145,0.8966345845,0.5696900025,0.3995062025,0.365869154,0.328703019,0.135155351,-0.155556199,-0.470709965,-0.6259866,1715,"DG_s09",5.797,6.422,7.688,7.688,10,10,8,8,1.266,"Left",8,8,0,0,0,0,0,0,0,0,0,"10-10",2,2,10,8,10,8
"39",3,"POL RPC2-Ref-POL RPC3-Ref",0.9935464215,0.6181469715,0.2019598215,-0.1361956285,-0.3009430195,-0.2080948355,0.1825148645,0.8605017645,1.6379264145,2.1752091805,2.2209289305,1.7816849455,1.1805730555,0.7189806555,0.4843221555,0.404824712,0.295121702,0.114125002,-0.055720698,-0.1314451695,-0.0645110943,0.0763806057,0.1803751772,0.1345544272,0.0775928312,0.2203342812,0.5354901097,0.8744313097,0.848272881,0.6796338755,0.6850748255,0.8911777755,1.257497075,1.23819082,0.80775292,0.430330285,1715,"DG_s09",5.797,6.422,7.688,7.688,10,10,8,8,1.266,"Left",8,8,0,0,0,0,0,0,0,0,0,"10-10",2,2,10,8,10,8
"40",3,"POL RAM3-Ref-POL RAM4-Ref",-0.40411865,-0.552380592,-0.7555716768,-0.7943932268,-0.6540951268,-0.4224533348,-0.355910723,-0.395394791,-0.188485291,0.337519609,1.122163932,1.73892835,1.98178885,2.06478485,2.08329935,1.95473335,1.4904263,0.7780735,0.15796205,-0.24690195,-0.4538533169,-0.6392698619,-0.84399900745,-0.89583525745,-0.71995284055,-0.46050239555,-0.4473914015,-0.705127222,-0.816696162,-0.728225462,-0.4501918605,-0.17161399,-0.3409637705,-0.7407997105,-0.966774483,-0.975006233,1715,"DG_s09",5.797,6.422,7.688,7.688,10,10,8,8,1.266,"Left",8,8,0,0,0,0,0,0,0,0,0,"10-10",2,2,10,8,10,8
"41",3,"POL RHP5-Ref-POL RHP6-Ref",0.3496153585,0.6436450085,0.794126875,0.799437825,0.695583825,0.51979157835,0.30325797835,0.15830253165,0.23145223165,0.5668463783,1.1155719283,1.662590375,1.922949175,1.768211625,1.297931865,0.8394087,0.5992836,0.58288555,0.65077486,0.5536682853,0.2560617853,-0.0499105647,-0.1953900102,-0.1213200555,0.1397827945,0.4669260445,0.75507359,0.945702775,0.996333275,0.886102875,0.6268424555,0.2675799055,-0.1079554945,-0.4274911445,-0.621954425,-0.604497975,1715,"DG_s09",5.797,6.422,7.688,7.688,10,10,8,8,1.266,"Left",8,8,0,0,0,0,0,0,0,0,0,"10-10",2,2,10,8,10,8
"42",3,"POL ROF4-Ref-POL ROF5-Ref",0.480086466,0.3072671075,-0.0093522425,-0.2211207875,-0.2578559465,-0.1546248935,-0.1057037935,-0.2821610485,-0.3496440815,-0.1428968845,0.3299553155,0.9329921655,1.2373917695,1.2131594695,1.0813444195,0.9716687195,0.8887829195,0.7518420245,0.6049070745,0.5793096245,0.7071130245,0.8741836195,0.8088578765,0.4480203765,0.0765549365,-0.1018706677,-0.0214731747,0.2790930753,0.6206222153,0.9364008195,1.2234220695,1.4309244695,1.4638481195,1.2482770695,0.806061316,0.315589166,1715,"DG_s09",5.797,6.422,7.688,7.688,10,10,8,8,1.266,"Left",8,8,0,0,0,0,0,0,0,0,0,"10-10",2,2,10,8,10,8
"43",3,"POL RPC1-Ref-POL RPC2-Ref",0.1615841004,-0.01039616905,-0.12576884055,-0.13259500205,0.00485733795,0.22269615795,0.42464617945,0.65247602445,0.91066158445,1.08592656445,1.05144186445,0.77667814845,0.45850192045,0.30024751045,0.23804117545,0.13581982795,0.06803701945,0.22226877945,0.58597356445,1.15183077795,1.54055036445,1.34820955845,0.76639065845,0.11460295845,-0.39716684155,-0.69289443555,-0.62156673155,-0.25873958155,0.27601546845,0.84219336845,1.16530511445,1.20722526445,1.04858161445,0.78216899595,0.44374260595,0.01616805595,1715,"DG_s09",5.797,6.422,7.688,7.688,10,10,8,8,1.266,"Left",8,8,0,0,0,0,0,0,0,0,0,"10-10",2,2,10,8,10,8
"44",3,"POL LAM1-Ref-POL LAM2-Ref",0.95339712405,0.79847465655,0.50695830655,0.35754346255,0.40333466255,0.63520168005,0.88349363005,0.92209287405,0.95953802405,1.20543372405,1.70227167405,2.30701552405,2.70335252405,2.66534852405,2.16458909205,1.34213964205,0.66368308705,0.3359164884,0.3375539704,0.5646235704,0.6298150479,0.43180434655,0.22873556655,0.22268432155,0.42393299905,0.73049919905,0.87020785105,0.71504619605,0.41193789605,0.09648484605,-0.14673307595,-0.18239577595,-0.07286821795,0.09585319705,0.26317447955,0.26223807955,1715,"DG_s09",5.797,6.422,7.688,7.688,10,10,8,8,1.266,"Left",8,8,0,0,0,0,0,0,0,0,0,"10-10",2,2,10,8,10,8
"45",3,"POL LAM3-Ref-POL LAM4-Ref",0.57142839021,0.43374108021,0.23010332521,0.06272614521,-0.03275668479,-0.09312788569,-0.21044168069,-0.41423540069,-0.53818907069,-0.43113462329,-0.07967722329,0.41293287671,0.80438932671,0.91946149021,0.74943846521,0.38343184521,-0.05395905479,-0.43380115479,-0.66766897979,-0.76156740979,-0.77583980979,-0.77121525979,-0.73359055979,-0.61482993179,-0.41637588179,-0.21450810079,-0.15923384579,-0.31357127379,-0.58414982379,-0.80907910479,-0.82580569979,-0.58398405579,-0.17555345579,0.23864014421,0.46907803421,0.37375184621,1715,"DG_s09",5.797,6.422,7.688,7.688,10,10,8,8,1.266,"Left",8,8,0,0,0,0,0,0,0,0,0,"10-10",2,2,10,8,10,8
"46",3,"POL ROF1-Ref-POL ROF2-Ref",0.30605853325,0.36966316675,0.24842596675,0.09563036675,0.08233756675,0.21215106675,0.36719991675,0.38741051675,0.27701911675,0.21264326675,0.28077251675,0.46448556675,0.57724636675,0.45328396675,0.16404516595,-0.15242988405,-0.41080078405,-0.59926648405,-0.75636473325,-0.90479303325,-0.97281598325,-0.88511525675,-0.62956645675,-0.23268700675,0.21161689325,0.61365086675,0.92593611675,1.08799211675,1.01056311675,0.64207040925,0.07910540925,-0.43864054075,-0.78285954075,-0.87579568325,-0.73547445575,-0.57213450765,1715,"DG_s09",5.797,6.422,7.688,7.688,10,10,8,8,1.266,"Left",8,8,0,0,0,0,0,0,0,0,0,"10-10",2,2,10,8,10,8
"47",3,"POL RPC3-Ref-POL RPC4-Ref",1.059136048,1.044204022,0.739478772,0.424649072,0.268624565,0.3254997395,0.5789883005,0.9268957005,1.3579813005,1.821213911,2.15278215,2.1716594,1.8766128,1.51275695,1.28386375,1.1996239,1.095792593,0.899338343,0.8655972325,1.0877141325,1.5478495395,1.9652464395,1.898588858,1.483075813,1.203668575,1.269336775,1.690478167,2.197928612,2.34643165,2.0939086,1.61038927205,1.04346787205,0.50966927205,0.27786572205,0.3206931814,0.5246100814,1715,"DG_s09",5.797,6.422,7.688,7.688,10,10,8,8,1.266,"Left",8,8,0,0,0,0,0,0,0,0,0,"10-10",2,2,10,8,10,8
"48",3,"POL RAM4-Ref-POL RAM5-Ref",0.3764969915,0.0383078915,-0.3371450085,-0.5973391305,-0.5789063505,-0.2863425375,0.1151518625,0.4337592125,0.519855662,0.5152290075,0.6493716075,0.9975346075,1.486565678,1.8897228695,2.0602418695,2.0090468695,1.7744344695,1.3906435045,0.923402999,0.5426220565,0.4599580065,0.7482159715,1.252452477,1.6630254195,1.7019425195,1.332427533,0.8557278475,0.5357057975,0.4256549975,0.4625462635,0.426404195,0.179340545,0.00458924699999996,0.2064587675,0.7101745215,1.3518432215,1715,"DG_s09",5.797,6.422,7.688,7.688,10,10,8,8,1.266,"Left",8,8,0,0,0,0,0,0,0,0,0,"10-10",2,2,10,8,10,8
"49",4,"POL ROF2-Ref-POL ROF3-Ref",0.6090237065,1.2005250065,1.8774180565,2.3817074515,2.3940540015,1.795232381,1.066476019,0.647586944,0.578223894,0.8383208645,1.0271990265,1.0064905015,1.1093607515,1.5127819015,2.1848861015,2.8875462015,3.2858065015,3.1893165015,2.5998409545,1.7356420495,0.9734681495,0.4639891995,0.1992162465,0.1351282515,0.1374471515,0.1880483165,0.3258861577,0.4737386009,0.5084860209,0.4472723059,0.42891994965,0.54587490645,0.79744223645,1.08355263645,1.2099366015,1.0884679065,1716,"DG_s09",8.688,9.313,10.234,10.234,28,4,10,10,0.921,"Left",28,4,24,24,0,0,-24,0,-24,24,24,"Advent",18,-6,28,10,4,10
"50",4,"POL RAM4-Ref-POL RAM5-Ref",-0.43144205,-0.491220025,-0.591868607,-0.832561557,-1.208283307,-1.486445432,-1.53601915,-1.38056344,-1.131441205,-1.030931155,-1.069832055,-1.031771809,-0.816821444,-0.391584444,0.142133506,0.5763303,0.81081345,0.80506365,0.56916835,0.1884999,-0.1703306,-0.32274135,-0.20711435,0.0664886,0.28109325,0.2234816385,-0.1194620815,-0.5153715515,-0.79417774485,-0.94149687835,-1.05452565835,-1.09198957035,-0.895131477,-0.384874682,0.391710618,1.068275,1716,"DG_s09",8.688,9.313,10.234,10.234,28,4,10,10,0.921,"Left",28,4,24,24,0,0,-24,0,-24,24,24,"Advent",18,-6,28,10,4,10
"51",4,"POL ROF5-Ref-POL ROF6-Ref",0.68420683895,0.51688570145,0.20073828855,-0.00803883500000002,-0.0687371,0.0268607,0.24598785,0.38196575,0.480292408,0.603235118,0.742525968,0.8332995665,0.8333715485,0.7805452185,0.73271529001,0.70799138826,0.67958127826,0.61870864826,0.59153834695,0.6794172002,0.9037923202,1.2201063202,1.48496965,1.55158305,1.3591929055,1.0065596555,0.6745287055,0.3966700055,0.1801006,0.11028675,0.1229567,0.2597341659,0.5920198659,0.9218122159,1.1208601159,1.1795922,1716,"DG_s09",8.688,9.313,10.234,10.234,28,4,10,10,0.921,"Left",28,4,24,24,0,0,-24,0,-24,24,24,"Advent",18,-6,28,10,4,10
"52",4,"POL LAM5-Ref-POL LAM6-Ref",-1.10664294,-1.22887343,-1.32268108,-1.41598388,-1.47065788,-1.45487473,-1.32605143,-1.08881378,-0.83465918,-0.65853264035,-0.65059201535,-0.82198626535,-1.04107296535,-1.212757455,-1.30884968,-1.29186153,-1.19358423,-1.066734795,-0.954723385,-0.922421385,-0.858033008,-0.607082493,-0.124230353,0.494223897,0.93748412,0.99939037,0.72427122,0.31665397,-0.0336174299999999,-0.28083871,-0.50953309665,-0.85225914665,-1.15830099665,-1.31055651665,-1.31742528,-1.22050233,1716,"DG_s09",8.688,9.313,10.234,10.234,28,4,10,10,0.921,"Left",28,4,24,24,0,0,-24,0,-24,24,24,"Advent",18,-6,28,10,4,10
"53",4,"POL ROF6-Ref-POL ROF7-Ref",-0.05179665,-0.1602163,-0.1986956,-0.1596243,-0.0505726,0.0312329,0.0898426,0.0949475,-0.000755900000000032,-0.0411522,-0.00354469999999996,0.1130119,0.30262385,0.34370285,0.21564925,0.0785454999999999,0.06975698,0.2271584865,0.5488628865,0.9127888365,1.1826370565,1.2906176,1.1913710985,0.9022209485,0.5699332485,0.3507371985,0.2715978,0.27585025,0.22057355,0.0449276,-0.11816355,-0.21899205,-0.2043403,-0.0593649000000001,0.1136435,0.27036315,1716,"DG_s09",8.688,9.313,10.234,10.234,28,4,10,10,0.921,"Left",28,4,24,24,0,0,-24,0,-24,24,24,"Advent",18,-6,28,10,4,10
"54",4,"POL RHP6-Ref-POL RHP7-Ref",-0.323525954,-0.330421804,-0.299682154,-0.283321004,-0.302778754,-0.318072854,-0.318025704,-0.313513904,-0.293451954,-0.250819504,-0.18615731045,-0.09262536545,0.00587762454999999,0.057523032,0.04839440345,-0.00753724155,-0.10202723155,-0.233413239,-0.371045204,-0.449828154,-0.445652354,-0.382184704,-0.331086454,-0.376277354,-0.497969254,-0.628619804,-0.704832004,-0.634318304,-0.459640164,-0.267645749,-0.102697534,-0.01101578115,0.01389450625,-0.01784670875,-0.07135517375,-0.0890558556,1716,"DG_s09",8.688,9.313,10.234,10.234,28,4,10,10,0.921,"Left",28,4,24,24,0,0,-24,0,-24,24,24,"Advent",18,-6,28,10,4,10
"55",4,"POL RPC1-Ref-POL RPC2-Ref",-0.076169751,0.054437399,0.3206838225,0.4402247515,0.2390522496,-0.0852505489,-0.3418212489,-0.4913605574,-0.6168559555,-0.830678007,-1.020419857,-1.1025370485,-1.0568015985,-0.9620205485,-1.0034454985,-1.1826504485,-1.2565308985,-1.07166323835,-0.60891678835,0.0320165116500001,0.50462526165,0.5491411615,0.1413667165,-0.303796428,-0.503439928,-0.424005838,-0.167936893,-0.1492809965,-0.5117536465,-0.8932117465,-1.1088157965,-1.1404880985,-1.0056988985,-0.9392643485,-0.9778855985,-1.0537092985,1716,"DG_s09",8.688,9.313,10.234,10.234,28,4,10,10,0.921,"Left",28,4,24,24,0,0,-24,0,-24,24,24,"Advent",18,-6,28,10,4,10
"56",4,"POL LAM1-Ref-POL LAM2-Ref",1.4118939665,1.3207456665,1.0639737665,0.748365214,0.5003042875,0.5146552375,0.7798951375,1.21161419,1.6584383665,1.8352495165,1.6866177665,1.3940529665,1.1325952665,0.9720570165,0.9051997665,0.8725922165,0.8405516165,0.8183012665,0.8014583665,0.7648988165,0.7044649165,0.6311306165,0.5400353965,0.43022448819,0.33816900614,0.31930891614,0.39160313614,0.48321859445,0.44348289,0.27968678,0.259055457,0.442700407,0.8280867935,1.2691938935,1.4658096165,1.4185658665,1716,"DG_s09",8.688,9.313,10.234,10.234,28,4,10,10,0.921,"Left",28,4,24,24,0,0,-24,0,-24,24,24,"Advent",18,-6,28,10,4,10
"57",4,"POL RAM5-Ref-POL RAM6-Ref",-1.85353088135,-1.90818023135,-1.7382295215,-1.4432159715,-1.29141595,-1.352084185,-1.53519366145,-1.73578096145,-1.87043245645,-1.88451711095,-1.7578455845,-1.5196654345,-1.2460316895,-1.0115709,-0.8494692,-0.7641714,-0.74247985,-0.76426515,-0.83518175,-0.97347345,-1.16416115,-1.34829005,-1.46918915,-1.52950445,-1.5999352115,-1.7898906615,-2.1256264115,-2.4185591115,-2.58813725,-2.6337463,-2.58452405,-2.5080716,-2.342995846,-2.038914496,-1.646265696,-1.356757446,1716,"DG_s09",8.688,9.313,10.234,10.234,28,4,10,10,0.921,"Left",28,4,24,24,0,0,-24,0,-24,24,24,"Advent",18,-6,28,10,4,10
"58",4,"POL LAM6-Ref-POL LAM7-Ref",-2.8315694295,-3.00973128,-2.80728424213,-2.53130569213,-2.29937239213,-2.20353571463,-2.3871105025,-2.7243451525,-2.9390014975,-2.9578613165,-2.7832826165,-2.587200466,-2.586221701,-2.7449383295,-2.9679863795,-3.18597093,-3.328274,-3.31969895,-3.20385945,-2.99674935755,-2.74409400755,-2.56565109755,-2.51659352455,-2.609378567,-2.735127817,-2.7746515305,-2.6921679035,-2.5015177035,-2.3094015535,-2.19593035,-2.1416794,-2.1158083,-2.1113348,-2.13629095,-2.1925046,-2.27320515,1716,"DG_s09",8.688,9.313,10.234,10.234,28,4,10,10,0.921,"Left",28,4,24,24,0,0,-24,0,-24,24,24,"Advent",18,-6,28,10,4,10
"59",4,"POL ROF3-Ref-POL ROF4-Ref",0.9095483635,1.4018333635,1.83968532,2.0460537,1.8382752,1.28302735,0.8970351145,0.8278278145,1.1029785145,1.6078658645,1.9326786,2.0565318,2.0180705,1.86813515,1.6861131,1.5168609,1.343569748,1.0816659725,0.6533542225,0.2693626725,0.0215869745,-0.04812845,0.0577998,0.16133825,0.294292393,0.491473508,0.684325483,0.7575648595,0.6956587665,0.666555674,0.803525349,1.1317282225,1.5451593225,1.7788108,1.6705467735,1.2649905235,1716,"DG_s09",8.688,9.313,10.234,10.234,28,4,10,10,0.921,"Left",28,4,24,24,0,0,-24,0,-24,24,24,"Advent",18,-6,28,10,4,10
"60",4,"POL ROF4-Ref-POL ROF5-Ref",0.8231899315,0.6471545708,0.41875182645,0.23069116265,0.07131290265,-0.08750478665,-0.1962979423,-0.2009515515,-0.1020375415,0.05627286,0.130912645,0.080441718,0.020371857,0.0836797055,0.3094575205,0.6068654205,0.8633892815,1.0113281315,1.0392819815,0.9579763315,0.756080801,0.399076701,-0.053405349,-0.342027249,-0.4110535485,-0.2711115585,-0.0565780551,-0.0605495051,-0.2949229251,-0.4970005651,-0.5673369185,-0.5017366185,-0.3275403185,-0.2840607185,-0.4263892685,-0.5701666685,1716,"DG_s09",8.688,9.313,10.234,10.234,28,4,10,10,0.921,"Left",28,4,24,24,0,0,-24,0,-24,24,24,"Advent",18,-6,28,10,4,10
"61",4,"POL LAM3-Ref-POL LAM4-Ref",0.6006035037,0.4541119392,0.1908245992,-0.1434731508,-0.4459682508,-0.5742109363,-0.4784054623,-0.1526646623,0.2606683877,0.5046594877,0.4334847957,0.0497856957,-0.3083368043,-0.5091558043,-0.5530013963,-0.4920658963,-0.4525805063,-0.3264362828,-0.0449377328,0.3597758172,0.6472348272,0.6257253327,0.3374016827,-0.0176785173,-0.2855817673,-0.4542483463,-0.5290033463,-0.5046113963,-0.4332990263,-0.3484650063,-0.3140591063,-0.4100868063,-0.5363437263,-0.5844375963,-0.5003167463,-0.3257982978,1716,"DG_s09",8.688,9.313,10.234,10.234,28,4,10,10,0.921,"Left",28,4,24,24,0,0,-24,0,-24,24,24,"Advent",18,-6,28,10,4,10
"62",4,"POL RHP4-Ref-POL RHP5-Ref",0.74459278,0.7279455519,0.5099080325,0.3043920375,0.1621221865,0.0415232021,-0.1569187785,-0.3582923835,-0.5085168825,-0.5008527325,-0.3382536325,-0.2081086325,-0.1301094825,-0.1559586825,-0.2714331825,-0.3513959325,-0.3552811825,-0.2982835825,-0.2406565825,-0.2467771325,-0.2883761325,-0.3367435325,-0.4023931325,-0.5086071825,-0.5436245825,-0.4780874825,-0.3132270775,-0.1067250075,-0.0409443575,-0.1486040575,-0.3107668125,-0.4213728325,-0.4862309325,-0.4898872825,-0.4457423825,-0.4347837325,1716,"DG_s09",8.688,9.313,10.234,10.234,28,4,10,10,0.921,"Left",28,4,24,24,0,0,-24,0,-24,24,24,"Advent",18,-6,28,10,4,10
"63",4,"POL RPC5-Ref-POL RPC6-Ref",1.078759008,1.18615025,1.0832157,0.97628125,0.9545309,0.949545047,0.791092797,0.5839305045,0.4927371945,0.5549351975,0.7327139175,0.7478255695,0.5163496295,0.2306327795,0.0546447095,0.095526011,0.328364611,0.598772161,0.773358331,0.7622456175,0.5691915675,0.2891559675,0.0261958975,-0.12977725,-0.12551555,0.00777667999999998,0.19804959,0.32939527,0.28640817,0.07316549,-0.16910707,-0.3273924,-0.31120255,-0.1221871,0.1056082,0.28344779,1716,"DG_s09",8.688,9.313,10.234,10.234,28,4,10,10,0.921,"Left",28,4,24,24,0,0,-24,0,-24,24,24,"Advent",18,-6,28,10,4,10
"64",4,"POL RPC4-Ref-POL RPC5-Ref",1.535747441,1.6534413944605,1.4198634194605,1.1202077874605,0.9506659374605,0.917078028,0.914521096,0.780197678,0.593639528,0.471429193,0.4520253,0.5019558,0.5733909715,0.6865658065,0.8407761565,0.9778421865,1.02333871,1.01244836,1.02111376,1.07970033,1.124118755,1.040734614,0.786152814,0.418142464,0.191823444,0.18135118,0.3690240088,0.6603354325,0.8061999925,0.7991195125,0.7093542837,0.58227231,0.4387806,0.32129825,0.2657929,0.2798215,1716,"DG_s09",8.688,9.313,10.234,10.234,28,4,10,10,0.921,"Left",28,4,24,24,0,0,-24,0,-24,24,24,"Advent",18,-6,28,10,4,10
"65",4,"POL RPC3-Ref-POL RPC4-Ref",-0.59315677763,-0.51882500513,-0.29506310513,0.05303059487,0.26038945337,0.22077224087,0.09331203337,0.02507726337,0.05124610487,0.08898216037,0.03734341787,-0.06229020713,-0.11136530018,-0.10676071268,-0.13485311768,-0.30686502268,-0.54247292963,-0.72415273263,-0.69459888813,-0.39722641313,-0.03257746313,0.25755378687,0.35965557387,0.22075793387,-0.09645056613,-0.47228966613,-0.77304059263,-0.94896847763,-1.01474512763,-0.97522677763,-0.86381767763,-0.71784032763,-0.59770497763,-0.61720252763,-0.70080712763,-0.73618602763,1716,"DG_s09",8.688,9.313,10.234,10.234,28,4,10,10,0.921,"Left",28,4,24,24,0,0,-24,0,-24,24,24,"Advent",18,-6,28,10,4,10
"66",4,"POL RAM6-Ref-POL RAM7-Ref",-0.5931265224,-0.3378758224,-0.1658971224,-0.146841687,-0.231306032,-0.325145272,-0.338204372,-0.228780892,-0.029949747,0.180433143,0.305047543,0.267381843,0.076440028,-0.16465418934,-0.35392209434,-0.45975572169,-0.51895696669,-0.60241554935,-0.71484284435,-0.805918617,-0.856928757,-0.842336557,-0.738456182,-0.593452782,-0.4864417005,-0.5231222005,-0.6152726055,-0.6163366865,-0.516743218,-0.330073368,-0.278274815,-0.489629634,-0.717727384,-0.833614069,-0.807529217,-0.679776977,1716,"DG_s09",8.688,9.313,10.234,10.234,28,4,10,10,0.921,"Left",28,4,24,24,0,0,-24,0,-24,24,24,"Advent",18,-6,28,10,4,10
"67",4,"POL RAM3-Ref-POL RAM4-Ref",-0.6244072995,-0.6442293585,-0.6925298585,-0.7109963535,-0.6675399935,-0.5490742685,-0.3597544185,-0.1397755735,0.0234036265000001,0.0189712765,-0.201550111,-0.506318711,-0.755986561,-0.944193511,-1.0937480735,-1.1240081235,-1.100871987,-1.04975455525,-1.00584320525,-1.07346280525,-1.11474528775,-1.0515425045,-0.8053557545,-0.4826044045,-0.2971396085,-0.31813939965,-0.51676769965,-0.64736781915,-0.60881511915,-0.392633043,-0.107016943,-0.0272617235,-0.1896418465,-0.4923598315,-0.8249146815,-1.1125730315,1716,"DG_s09",8.688,9.313,10.234,10.234,28,4,10,10,0.921,"Left",28,4,24,24,0,0,-24,0,-24,24,24,"Advent",18,-6,28,10,4,10
"68",4,"POL RAM2-Ref-POL RAM3-Ref",-0.40673125,-0.448450456,-0.572922286,-0.778467786,-0.964334336,-1.08300128,-1.1824943,-1.1900838,-0.9743191325,-0.5479983825,0.0910545675,0.7229380675,0.98790725,0.84742555,0.5221057,0.25237,0.0847243,-0.0830729474499999,-0.41063579745,-0.68291793845,-0.85369526395,-0.9320938535,-0.9268005535,-0.8722429626,-0.7421993871,-0.5090558001,-0.2417497501,-0.21014806,-0.27297091,-0.24945411,-0.0689639599999999,0.2096956,0.4225289,0.47928755,0.38765035,0.1939588,1716,"DG_s09",8.688,9.313,10.234,10.234,28,4,10,10,0.921,"Left",28,4,24,24,0,0,-24,0,-24,24,24,"Advent",18,-6,28,10,4,10
"69",4,"POL RPC2-Ref-POL RPC3-Ref",-0.03680579925,-0.20547038125,-0.4150117141,-0.6194624941,-0.7636256951,-0.8763629131,-1.02083698025,-1.17045170025,-1.20656675025,-1.1211542994,-0.9518185294,-0.7190562294,-0.5194876294,-0.41554758025,-0.42905780325,-0.57711290325,-0.81873740325,-0.99724260325,-1.0302894604,-0.9327751969,-0.8321652469,-0.9013865469,-1.07005768675,-1.25214520025,-1.41233590025,-1.47631645025,-1.45855900025,-1.37755615025,-1.20984195025,-1.06487895025,-1.03878090025,-1.00638732025,-0.90846552025,-0.77998257925,-0.68096059425,-0.64460939325,1716,"DG_s09",8.688,9.313,10.234,10.234,28,4,10,10,0.921,"Left",28,4,24,24,0,0,-24,0,-24,24,24,"Advent",18,-6,28,10,4,10
"70",4,"POL ROF1-Ref-POL ROF2-Ref",0.837007313,0.752922663,0.675431763,0.571872463,0.38481487465,0.10132817465,-0.20901577535,-0.45562917535,-0.592260987,-0.634562737,-0.667576537,-0.725371487,-0.657289517,-0.411198592,-0.030017492,0.359736908,0.5116071035,0.3930664435,0.18836946744,0.03952639244,-0.02736175756,-0.07074837256,-0.2046119965,-0.4195457715,-0.575513437,-0.565651672,-0.3780946,-0.08060975,0.1855475,0.296041181,0.204166074,-0.048223576,-0.321793276,-0.500582822,-0.558845987,-0.504107237,1716,"DG_s09",8.688,9.313,10.234,10.234,28,4,10,10,0.921,"Left",28,4,24,24,0,0,-24,0,-24,24,24,"Advent",18,-6,28,10,4,10
"71",4,"POL RHP5-Ref-POL RHP6-Ref",0.1970156655,0.1464141155,0.221734101,0.33143896775,0.27961489675,0.18079758125,0.15887708125,0.2326805645,0.287507865,0.1533871305,-0.1303193695,-0.3506181695,-0.40761047,-0.301070967,-0.10695327315,0.00332021935,-0.03457023065,-0.19845288365,-0.3388575275,-0.32843442,-0.13776957,0.20566238,0.53553103,0.70117118,0.67071863,0.511744725,0.370280415,0.342277915,0.425757315,0.53761367,0.56474233,0.477543665,0.32438855085,0.16589687085,0.03612577085,-0.06560876415,1716,"DG_s09",8.688,9.313,10.234,10.234,28,4,10,10,0.921,"Left",28,4,24,24,0,0,-24,0,-24,24,24,"Advent",18,-6,28,10,4,10
"72",4,"POL LAM2-Ref-POL LAM3-Ref",0.391411513,0.455204828,0.414298778,0.2171975295,-0.0774207705,-0.1410435275,0.0784597725,0.593364821,1.257313871,1.632639678,1.621358428,1.265679223,0.7244447965,0.2841408505,0.1028704505,0.1525990555,0.2636289615,0.1671594875,-0.1318257125,-0.3726073125,-0.479110142,-0.406375107,-0.20371974365,-0.01109094365,0.23031800635,0.53440409135,0.800077928,0.886521778,0.719231787,0.389605337,0.0944646975,-0.0956347456,-0.2323607046,-0.3687815046,-0.3351197496,-0.1182140565,1716,"DG_s09",8.688,9.313,10.234,10.234,28,4,10,10,0.921,"Left",28,4,24,24,0,0,-24,0,-24,24,24,"Advent",18,-6,28,10,4,10
"73",5,"POL ROF1-Ref-POL ROF2-Ref",0.3167947533,0.4052206533,0.4111827933,0.2080125243,-0.2285247757,-0.6849198257,-1.0211205657,-1.1701890967,-1.0769168967,-0.9183915967,-0.7933112967,-0.6434992167,-0.4310608687,-0.1775224187,0.0159885648,-0.0741019652,-0.20085472835,-0.12839017835,0.14860998815,0.62117548815,0.8687472033,0.7293110533,0.3726274638,-0.0236301362,-0.3125137362,-0.4449134862,-0.4705563967,-0.4713039967,-0.4567472467,-0.3513202997,-0.1496666997,0.1037826003,0.2568364853,0.17785213675,-0.02560312325,-0.184105013575,1717,"DG_s09",11.234,11.844,12.781,12.781,22,6,10,10,0.937,"Right",22,6,16,16,0,0,-16,0,-16,16,16,"Advent",12,-4,10,22,10,6
"74",5,"POL RAM6-Ref-POL RAM7-Ref",0.2626344735,0.4247194885,0.6056964235,0.7022155085,0.6676333085,0.5546521085,0.4429775085,0.3827205085,0.3735894085,0.3754911085,0.3637752085,0.3333424085,0.26174631455,0.11131510955,-0.12869144045,-0.36629334045,-0.5539939965,-0.6599420915,-0.5895919915,-0.42479747005,-0.23698921505,-0.07677793355,-0.05874488355,-0.178486755,-0.35942146,-0.5269173415,-0.6314111415,-0.6824724915,-0.7245530415,-0.7088194915,-0.6304709915,-0.5167351415,-0.3904154415,-0.3347570915,-0.3625421915,-0.4343432415,1717,"DG_s09",11.234,11.844,12.781,12.781,22,6,10,10,0.937,"Right",22,6,16,16,0,0,-16,0,-16,16,16,"Advent",12,-4,10,22,10,6
"75",5,"POL RPC4-Ref-POL RPC5-Ref",0.38706335,0.41350855,0.221178863,-0.240963177,-0.6284443465,-0.7395628965,-0.6078803595,-0.3739386195,-0.4167043235,-0.7205588235,-1.00475026465,-1.11452306465,-1.01882694115,-0.84681179115,-0.7243367,-0.66948585,-0.7240396235,-0.9444809235,-1.2047260235,-1.30820265435,-1.25223683085,-1.10361359185,-1.06595079185,-1.200967161,-1.267253888075,-1.149112727075,-0.862781627075,-0.631680067075,-0.64843035485,-0.76962618785,-0.84552388785,-0.76720439785,-0.516698133,-0.26505685,-0.1433607,-0.17727415,1717,"DG_s09",11.234,11.844,12.781,12.781,22,6,10,10,0.937,"Right",22,6,16,16,0,0,-16,0,-16,16,16,"Advent",12,-4,10,22,10,6
"76",5,"POL RAM3-Ref-POL RAM4-Ref",0.8413770025,1.0708114025,1.10390965,1.0242193,1.00012215,1.11441755,1.3544993,1.5872136,1.658353,1.55514935,1.3471635,1.101407945,0.845848447,0.594403797,0.401818997,0.298811302,0.25783415,0.22773615,0.1321893,0.01616155,-0.05548235,-0.061203,-0.0111633,-0.00936654999999997,-0.03512075,0.00488869999999997,0.114258635,0.27476851,0.39857326,0.41251211,0.374854125,0.34212635,0.3116935,0.23370925,0.19989065,0.292241767,1717,"DG_s09",11.234,11.844,12.781,12.781,22,6,10,10,0.937,"Right",22,6,16,16,0,0,-16,0,-16,16,16,"Advent",12,-4,10,22,10,6
"77",5,"POL RPC1-Ref-POL RPC2-Ref",-0.0123949915,-0.0404071415,-0.033438234,-0.081163284,-0.0908706465,0.0267534035,0.344899161,0.875509711,1.3647513935,1.6861229935,1.8552909935,1.8983619935,1.8471919935,1.7559864935,1.6789869935,1.6305794935,1.5683719935,1.4003109935,1.0448063585,0.5448405585,0.0560683085,-0.3577782415,-0.6582014065,-0.6743759565,-0.5152632115,-0.2675081615,-0.04395291125,-0.16247306125,-0.36290520625,-0.49013955625,-0.5710487565,-0.5566726565,-0.44784222,-0.27914362,0.01277753,0.36568823,1717,"DG_s09",11.234,11.844,12.781,12.781,22,6,10,10,0.937,"Right",22,6,16,16,0,0,-16,0,-16,16,16,"Advent",12,-4,10,22,10,6
"78",5,"POL LAM2-Ref-POL LAM3-Ref",0.177662197,0.544729647,0.957018147,1.263936397,1.51015245,1.7546662,1.9728639,2.0539248,1.854837021,1.392442971,0.9952963975,0.8871323475,1.1130998765,1.5209089265,1.72884835,1.5798027565,1.2419745865,0.950150086,0.743428325,0.5811334685,0.5518670235,0.679382624,0.944350685,1.305278385,1.47293345,1.2998451803,0.9330845803,0.5349988803,0.2431341803,0.173975785,0.3113553438,0.6081475438,0.9636551438,1.2015902588,1.24441285,1.0805178335,1717,"DG_s09",11.234,11.844,12.781,12.781,22,6,10,10,0.937,"Right",22,6,16,16,0,0,-16,0,-16,16,16,"Advent",12,-4,10,22,10,6
"79",5,"POL ROF5-Ref-POL ROF6-Ref",0.4553685265,1.1134375265,1.49018307,1.49270947,1.19027212,0.83970372,0.65799087,0.63328067,0.628701315,0.406478663,-0.127448937,-0.649672737,-0.895847682,-0.776124641125,-0.319321591125,0.213350108875,0.637269258875,0.86697912,0.90976412,0.85373397,0.71815117,0.4292897695,-0.0478820805,-0.3856789305,-0.5513104901,-0.5419120281,-0.3741365281,-0.3284832731,-0.3266804265,-0.285376188,-0.224772306,-0.251233361,-0.402647098,-0.627921598,-0.87939918,-1.03904233,1717,"DG_s09",11.234,11.844,12.781,12.781,22,6,10,10,0.937,"Right",22,6,16,16,0,0,-16,0,-16,16,16,"Advent",12,-4,10,22,10,6
"80",5,"POL ROF6-Ref-POL ROF7-Ref",-0.1030135744,-0.1583064794,0.0139940656,0.3965286379,0.7713880579,0.9290684629,0.8771021129,0.6206245014,0.1618094014,-0.2892279986,-0.5846810986,-0.6888538721,-0.4945269118,-0.1645429618,0.1516697382,0.4488950732,0.6113803629,0.5526838129,0.3884040629,0.3119701129,0.3708922629,0.5053187629,0.5336993029,0.2653629629,-0.1616291871,-0.3946424801,-0.3987230201,-0.2431353251,-0.1252975968,-0.2711839538,-0.5264897538,-0.7570491088,-0.9283164371,-0.9989204871,-0.9452377871,-0.7789999051,1717,"DG_s09",11.234,11.844,12.781,12.781,22,6,10,10,0.937,"Right",22,6,16,16,0,0,-16,0,-16,16,16,"Advent",12,-4,10,22,10,6
"81",5,"POL ROF3-Ref-POL ROF4-Ref",0.2909797574,0.2348340894,0.2872259394,0.4251455135,0.5271992255,0.4061411785,0.198840367,0.181639317,0.419566495,0.86335336,1.1835539715,1.1382084715,0.83053330055,0.45175330055,0.16870150055,0.0575705183,0.10412599925,0.29638924925,0.62802359925,1.0185700315,1.3211537215,1.4015013215,1.2982467715,1.1708515715,1.1000114715,1.0641763715,0.907840766,0.508910016,-0.046227734,-0.471052534,-0.6614472285,-0.6389542785,-0.4701182285,-0.4041534785,-0.4917351285,-0.458929059,1717,"DG_s09",11.234,11.844,12.781,12.781,22,6,10,10,0.937,"Right",22,6,16,16,0,0,-16,0,-16,16,16,"Advent",12,-4,10,22,10,6
"82",5,"POL ROF4-Ref-POL ROF5-Ref",0.90946247,1.05633247,0.96555317,0.631372162,0.164604487,-0.2110025175,-0.3401970375,-0.2511077295,-0.0698988545,-0.011070125,-0.198783805,-0.558707955,-0.931446605,-1.14898043,-1.17589848,-1.09095438,-1.03070173,-1.09835738,-1.10035593,-1.01096654,-0.85309798,-0.68588423,-0.67251368,-0.6808006365,-0.6107370915,-0.4484475415,-0.295260502,-0.2879318655,-0.4228947705,-0.6159671205,-0.77630681,-0.84605563,-0.82582543,-0.76142588,-0.70939833,-0.661162585,1717,"DG_s09",11.234,11.844,12.781,12.781,22,6,10,10,0.937,"Right",22,6,16,16,0,0,-16,0,-16,16,16,"Advent",12,-4,10,22,10,6
"83",5,"POL RAM5-Ref-POL RAM6-Ref",0.601331926,0.9856344365,1.3182032865,1.5711907865,1.7067607865,1.7108047865,1.6618592865,1.6543417865,1.7120947865,1.7749822865,1.7408692865,1.6325512865,1.5750572865,1.6300482865,1.7036427865,1.5604071365,1.1829479865,0.9131566865,0.8821836865,1.0958063365,1.3979279865,1.4644697865,1.3040347865,1.0555026365,0.7812360865,0.46412707965,0.10764887965,-0.19017172035,-0.33475918535,-0.3043787793,-0.1538930293,-0.0215867838,-0.0119174938,-0.115138043,-0.214290458,-0.196276982,1717,"DG_s09",11.234,11.844,12.781,12.781,22,6,10,10,0.937,"Right",22,6,16,16,0,0,-16,0,-16,16,16,"Advent",12,-4,10,22,10,6
"84",5,"POL ROF2-Ref-POL ROF3-Ref",-0.0255354607,0.1264737493,0.2192156943,0.2437283068,0.218262863175,0.152953153175,0.055114453175,-0.042913841825,-0.1206045732,-0.1967529232,-0.2634837232,-0.2787610232,-0.2386518232,-0.1870650732,-0.2059390732,-0.3255232732,-0.4382661732,-0.4394939882,-0.26188318215,0.09621936785,0.53536356785,0.96036218285,1.2727416768,1.3721691768,1.2041529268,0.8095295213,0.3354767213,-0.0611872787,-0.3144419787,-0.4401670232,-0.5360689732,-0.6395792732,-0.6194885232,-0.4635057462,-0.1938832462,0.0855663838,1717,"DG_s09",11.234,11.844,12.781,12.781,22,6,10,10,0.937,"Right",22,6,16,16,0,0,-16,0,-16,16,16,"Advent",12,-4,10,22,10,6
"85",5,"POL RPC3-Ref-POL RPC4-Ref",-0.3185656,-0.3929986,-0.46629755,-0.6671905965,-1.0464618465,-1.378481433,-1.471503933,-1.2770264365,-0.8653867365,-0.46136515,-0.19859115,-0.1169932,-0.23636815,-0.542514874,-0.970862754,-1.364103604,-1.550963018,-1.527202544,-1.372319564,-1.207764714,-1.177966897,-1.310325912,-1.492757062,-1.606032397,-1.68161993,-1.799073615,-1.939132165,-2.00226413,-2.0122718,-1.870729292,-1.569721897,-1.290229297,-1.036083047,-0.885445605,-0.9559215095,-1.1843613595,1717,"DG_s09",11.234,11.844,12.781,12.781,22,6,10,10,0.937,"Right",22,6,16,16,0,0,-16,0,-16,16,16,"Advent",12,-4,10,22,10,6
"86",5,"POL RPC2-Ref-POL RPC3-Ref",-0.0802222909,-0.6138749909,-1.0556950409,-1.2682246064,-1.2611518914,-1.1337802914,-0.9908133414,-0.9225816414,-0.8962079264,-0.8567124584,-0.7969759334,-0.7829123634,-0.9142202284,-1.1484174464,-1.2012245949,-1.0078404149,-0.5969455649,-0.1481995649,-0.0334039859,-0.2695997359,-0.53201643445,-0.59821298445,-0.38596788995,0.05275446005,0.4000015586,0.4813127586,0.2596260511,-0.2461541989,-0.7931229489,-1.1860952489,-1.4289127914,-1.4412485414,-1.3531953914,-1.3042499914,-1.2275815914,-1.1573497914,1717,"DG_s09",11.234,11.844,12.781,12.781,22,6,10,10,0.937,"Right",22,6,16,16,0,0,-16,0,-16,16,16,"Advent",12,-4,10,22,10,6
"87",5,"POL LAM5-Ref-POL LAM6-Ref",0.2306805565,0.7045047065,1.4211495065,2.1421408765,2.59717225,2.70578525,2.48184725,1.990113585,1.327899604,0.617097804,-0.00255569599999994,-0.429651031,-0.6084839,-0.55739785,-0.3582497,-0.1048561,0.09345715,0.15731065,0.06374185,-0.1095278,-0.2248409,-0.20656465,-0.0251248574999999,0.2450016825,0.4422586715,0.4568166715,0.303937129,0.169033389,0.1454406475,0.2691785125,0.4992562625,0.6878980125,0.833943565,0.9908822,1.1574703,1.27327045,1717,"DG_s09",11.234,11.844,12.781,12.781,22,6,10,10,0.937,"Right",22,6,16,16,0,0,-16,0,-16,16,16,"Advent",12,-4,10,22,10,6
"88",5,"POL RPC5-Ref-POL RPC6-Ref",-0.1329834,-0.197147,-0.3650287055,-0.6762972055,-0.805739263,-0.656488663,-0.2593290075,0.1987962425,0.2571948,-0.1150173575,-0.6180053075,-0.922234579,-0.908227579,-0.6385440215,-0.3628267215,-0.32780578,-0.568519605,-0.963141305,-1.300316755,-1.42229843,-1.3026205468,-1.0595885968,-0.8940557777,-0.9446982727,-1.1743258309,-1.3762130809,-1.48546995,-1.44576615,-1.2062206135,-0.9127901135,-0.6506352135,-0.5348837285,-0.714923115,-1.117961315,-1.481862715,-1.65645715,1717,"DG_s09",11.234,11.844,12.781,12.781,22,6,10,10,0.937,"Right",22,6,16,16,0,0,-16,0,-16,16,16,"Advent",12,-4,10,22,10,6
"89",5,"POL RAM2-Ref-POL RAM3-Ref",0.6535571996,0.7363214496,0.8262464996,1.0248882496,1.3519869496,1.7334344996,2.0057601496,2.0792866496,1.9740051496,1.7168226496,1.3019290696,0.72970125314,0.13005360314,-0.29194559686,-0.54596831686,-0.6288750004,-0.5706136004,-0.5335433504,-0.5042354504,-0.4957811004,-0.5154130504,-0.4850054854,-0.3545481114,-0.1198932614,0.1156281386,0.2422152236,0.2356520287,0.1321720037,0.0061435737,-0.0863737113,-0.1366247504,-0.1774039754,-0.2395454954,-0.2743458404,-0.2059130294,-0.0215913294,1717,"DG_s09",11.234,11.844,12.781,12.781,22,6,10,10,0.937,"Right",22,6,16,16,0,0,-16,0,-16,16,16,"Advent",12,-4,10,22,10,6
"90",5,"POL RHP4-Ref-POL RHP5-Ref",2.37254829,3.88517964,5.27942209,5.88136109,5.48174959,4.34050609,2.94491879,1.70360604,0.813545545,0.33068531,0.13455601,0.049628917,-0.045670398,-0.248556963,-0.532470163,-0.79313307,-0.95229206,-1.01108686,-0.93194111,-0.7229006135,-0.4517517485,-0.22293674,-0.20368129,-0.3514539365,-0.4515651665,-0.4550295695,-0.3290093045,-0.1189175645,0.0216929005,0.092593895,0.15087558,0.27171044,0.43966164,0.59739289,0.67986494,0.70687179,1717,"DG_s09",11.234,11.844,12.781,12.781,22,6,10,10,0.937,"Right",22,6,16,16,0,0,-16,0,-16,16,16,"Advent",12,-4,10,22,10,6
"91",5,"POL RAM4-Ref-POL RAM5-Ref",0.35925774645,0.66314834645,0.79771702145,0.83154813145,0.83934693145,0.86513268145,0.89171503145,0.86522753145,0.76018835065,0.62684787715,0.58603788715,0.74085888715,1.07794451795,1.44083344145,1.58460743145,1.34767921595,0.97718546545,0.78426441545,0.80599131545,0.99694898095,1.07827095145,0.92491745695,0.74853235695,0.66814240695,0.65215441975,0.59707993925,0.51744096935,0.50536546935,0.59395048655,0.73108556155,0.770886841,0.650557191,0.460610691,0.332150491,0.31723549445,0.38883167445,1717,"DG_s09",11.234,11.844,12.781,12.781,22,6,10,10,0.937,"Right",22,6,16,16,0,0,-16,0,-16,16,16,"Advent",12,-4,10,22,10,6
"92",5,"POL RHP5-Ref-POL RHP6-Ref",1.5632915405,1.6710335405,1.6063695405,1.3838585905,1.0014625905,0.5376637655,0.1937221655,0.1620195155,0.4465885155,0.8519668405,1.1046576905,1.0062942905,0.570940444,0.063463744,-0.2504425264,-0.2927815264,-0.1209082799,0.0484164201,0.0277484835,-0.1896113665,-0.4670189165,-0.6640363665,-0.7622642095,-0.8034739595,-0.8862713095,-0.9638238595,-0.9949198595,-0.9915243095,-0.9359261095,-0.750785339,-0.377281039,0.198980011,0.852347311,1.2797555405,1.4300565405,1.4506240405,1717,"DG_s09",11.234,11.844,12.781,12.781,22,6,10,10,0.937,"Right",22,6,16,16,0,0,-16,0,-16,16,16,"Advent",12,-4,10,22,10,6
"93",5,"POL LAM3-Ref-POL LAM4-Ref",0.694181577,1.052387127,1.545769047,2.16772444,2.84684584,3.46299589,3.86624089,3.90762639,3.47933174,2.5580358635,1.6033912485,1.1671554985,1.2207731485,1.656459525,1.96151119,1.6369478295,1.0241857295,0.615536934,0.479417784,0.568313862,0.644300212,0.4890862575,0.2545118075,0.07603384,0.135847128,0.394200578,0.728175678,1.063365328,1.24670784,1.23258384,1.07745330232,0.84218422732,0.54416697732,0.23051652732,0.057666965,0.05015154,1717,"DG_s09",11.234,11.844,12.781,12.781,22,6,10,10,0.937,"Right",22,6,16,16,0,0,-16,0,-16,16,16,"Advent",12,-4,10,22,10,6
"94",5,"POL LAM6-Ref-POL LAM7-Ref",1.1902190194,1.5015444194,1.6930204694,1.6604631194,1.3640709004,0.8629925004,0.3038290504,-0.1452099996,-0.4121629806,-0.4824615806,-0.4136559806,-0.3079898806,-0.2108112306,-0.1677821806,-0.1912643806,-0.2018352306,-0.1311799706,0.0257413294,0.2216305794,0.3396908114,0.3081139614,0.1540301614,-0.0444509386,-0.2129746206,-0.3060349806,-0.3246938306,-0.3136173806,-0.3066989306,-0.2963237806,-0.2494698806,-0.1404530701,0.0231999299,0.1846271299,0.2680197374,0.2267188319,0.0666434319,1717,"DG_s09",11.234,11.844,12.781,12.781,22,6,10,10,0.937,"Right",22,6,16,16,0,0,-16,0,-16,16,16,"Advent",12,-4,10,22,10,6
"95",5,"POL LAM1-Ref-POL LAM2-Ref",-0.1022492031,-0.2757051531,-0.4168659031,-0.4754210635,-0.4667792285,-0.4440843285,-0.5176590785,-0.6740539785,-0.7415362435,-0.7288241435,-0.6515758435,-0.4812355355,-0.2433502355,0.0857512145,0.4563062145,0.6513571065,0.484296247,0.023414597,-0.405988153,-0.661623503,-0.7350959435,-0.6753210935,-0.7171153935,-0.8012151935,-0.7658929835,-0.64109151795,-0.44158268152,-0.19140858152,0.06172425848,0.33592589293,0.5995909565,0.7474620565,0.7439558565,0.6734932065,0.6115342065,0.5610958065,1717,"DG_s09",11.234,11.844,12.781,12.781,22,6,10,10,0.937,"Right",22,6,16,16,0,0,-16,0,-16,16,16,"Advent",12,-4,10,22,10,6
"96",5,"POL RHP6-Ref-POL RHP7-Ref",1.020692462415,1.55411024875,1.92981124875,2.12835124875,2.25989374875,2.38522974875,2.46906524875,2.39415724875,2.09235224875,1.64513879875,1.20216159875,0.85893239875,0.61252879875,0.3874945,0.1174167,-0.11988055,-0.2304359348,-0.20687674105,-0.0984857546,-0.0581752896,-0.1703521048,-0.3590472998,-0.49722668625,-0.51968240125,-0.43131070125,-0.30986235125,-0.26603650125,-0.32694080125,-0.42055430125,-0.48910900125,-0.53423555125,-0.56727640125,-0.52975695125,-0.40019394025,-0.17845079025,0.07712820975,1717,"DG_s09",11.234,11.844,12.781,12.781,22,6,10,10,0.937,"Right",22,6,16,16,0,0,-16,0,-16,16,16,"Advent",12,-4,10,22,10,6
"97",6,"POL RAM3-Ref-POL RAM4-Ref",0.1960889165,0.7988134165,1.6176439665,2.342394,2.78320285,2.85512735,2.64475485,2.39182835,2.29023535,2.37240435,2.51867835,2.54914385,2.42176035,2.22839285,2.03270685,1.8114561,1.484104,1.0105542085,0.4864872085,0.0759041085,-0.1620761915,-0.2434279,-0.2130222,-0.12867306625,-0.00151622125,0.14396022875,0.23243469825,0.1898952645,0.0230690195,-0.1597513805,-0.2901438,-0.3523023,-0.324079,-0.26144175,-0.2053154,-0.15126805,1718,"DG_s09",13.781,14.391,14.969,14.969,30,15,10,10,0.578,"Left",30,15,15,15,0,0,-15,0,-15,15,15,"Advent",20,5,30,10,15,10
"98",6,"POL ROF4-Ref-POL ROF5-Ref",0.318365655,0.37604539775,0.58996704775,0.90078174775,1.15219214775,1.185273485,1.03476931,0.87762786,0.79140486,0.7234647585,0.5663646835,0.43258852,0.42758682,0.5531793115,0.7495426785,0.791983,0.725092976,0.737835376,0.915196209,1.194354951,1.375519575,1.318292235,1.02027486055,0.58472801055,0.17254951055,-0.14901914945,-0.337890075,-0.246987517,0.059419178,0.506994578,0.957939728,1.1176053135,0.9399287935,0.5986973935,0.2889733935,0.12100065,1718,"DG_s09",13.781,14.391,14.969,14.969,30,15,10,10,0.578,"Left",30,15,15,15,0,0,-15,0,-15,15,15,"Advent",20,5,30,10,15,10
"99",6,"POL LAM1-Ref-POL LAM2-Ref",-0.0423088035,-0.1421348535,-0.1188769235,-0.0582009385,-0.0774501885,-0.1569494885,-0.2454467285,-0.33265059475,-0.43038524475,-0.55186729475,-0.70398625475,-0.8880825885,-1.0786791885,-1.2085706885,-1.2909350385,-1.3131800385,-1.2329984385,-1.1287219385,-1.0202376385,-0.9369083885,-0.9101042885,-0.8926736885,-0.8637336385,-0.8340649885,-0.8639011385,-0.9850738385,-1.0872212385,-1.040371689,-0.814942939,-0.440975039,-0.036105339,0.2805850615,0.4627418615,0.4709202115,0.253553611,-0.165015239,1718,"DG_s09",13.781,14.391,14.969,14.969,30,15,10,10,0.578,"Left",30,15,15,15,0,0,-15,0,-15,15,15,"Advent",20,5,30,10,15,10
"100",6,"POL LAM5-Ref-POL LAM6-Ref",0.01269085,0.1050118,0.2049547,0.277971,0.320921855,0.3541508795,0.38663124201,0.39111721201,0.33023635701,0.25359893251,0.28057322225,0.44591480225,0.69138215225,0.84773486225,0.73939755,0.38798295,-0.02087965,-0.26787806,-0.2228554309,0.0855471691,0.4875414691,0.7765804191,0.8098861135,0.5644690135,0.2410991635,0.0673543035,0.0665525545,0.2069837295,0.37281674605,0.48414509105,0.59970217655,0.74107295155,0.848777385,0.85494505,0.78652495,0.70995045,1718,"DG_s09",13.781,14.391,14.969,14.969,30,15,10,10,0.578,"Left",30,15,15,15,0,0,-15,0,-15,15,15,"Advent",20,5,30,10,15,10
"101",6,"POL RHP5-Ref-POL RHP6-Ref",0.0491505905,0.3799808405,0.8931138405,1.3633497405,1.5100939,1.3093262,0.939298280595,0.619634490595,0.453898540595,0.395464790095,0.3491410095,0.30188479,0.283849043,0.3065664785,0.32299774355,0.22563850305,-0.01601189995,-0.25510618495,-0.4034764,-0.45274955,-0.3683416,-0.1996610105,0.0147535345,0.2539846845,0.414514272,0.3786430825,0.1445135375,-0.1851105625,-0.4392995,-0.471901,-0.26344199915,0.08746905085,0.38359041585,0.43735117785,0.198388127,-0.079836723,1718,"DG_s09",13.781,14.391,14.969,14.969,30,15,10,10,0.578,"Left",30,15,15,15,0,0,-15,0,-15,15,15,"Advent",20,5,30,10,15,10
"102",6,"POL RAM5-Ref-POL RAM6-Ref",-0.57620455,-0.6123737,-0.5096094,-0.2584795865,0.1186914135,0.5367910635,0.8134096135,0.8445714045,0.6855993045,0.5010204515,0.4266679815,0.4241283795,0.3834771295,0.5071397675,0.8465239375,1.339163435,1.884704785,2.12866925,2.04114175,1.82329075,1.60178805,1.3844583,1.1167219024,0.8226879504,0.6090669854,0.5215770354,0.51028772065,0.45783060765,0.26676442265,-0.04976292735,-0.275195065,-0.3329862,-0.23603085,-0.0408568,0.0535114,0.0264134,1718,"DG_s09",13.781,14.391,14.969,14.969,30,15,10,10,0.578,"Left",30,15,15,15,0,0,-15,0,-15,15,15,"Advent",20,5,30,10,15,10
"103",6,"POL ROF1-Ref-POL ROF2-Ref",0.545783603,0.851689553,1.151583003,1.3939639,1.5023057,1.42768205,1.176669779,0.856040829,0.6231561949,0.5659550999,0.6711216209,0.8209310709,0.889430355,0.826297196,0.635098446,0.389314646,0.196534746,0.0749185999999999,0.0186066499999999,0.107649752,0.350868402,0.712489452,1.095695102,1.258573475,1.0721971845,0.6547087345,0.2291354345,-0.0302790405,-0.0155865000000001,0.1797055419,0.3436885604,0.3162122604,0.1729030604,0.1364338965,0.265421428,0.588057528,1718,"DG_s09",13.781,14.391,14.969,14.969,30,15,10,10,0.578,"Left",30,15,15,15,0,0,-15,0,-15,15,15,"Advent",20,5,30,10,15,10
"104",6,"POL RAM6-Ref-POL RAM7-Ref",0.48956672695,0.85401322695,1.25010712695,1.6098920789,1.8441686289,1.8499929289,1.5295492464,1.0073684614,0.7770991219,0.9098322219,1.4159404044,2.0913366894,2.4167635289,2.3746700289,2.0986545789,1.8139054289,1.6639459289,1.6488899289,1.6652573789,1.5732487789,1.3739463289,1.2034184289,1.1524474789,1.1930783289,1.2040540789,1.0672787429,0.7626864929,0.3661948929,0.1384249929,0.1489778934,0.3411818934,0.5979991534,0.6580433809,0.5118059164,0.3185864164,0.2008317564,1718,"DG_s09",13.781,14.391,14.969,14.969,30,15,10,10,0.578,"Left",30,15,15,15,0,0,-15,0,-15,15,15,"Advent",20,5,30,10,15,10
"105",6,"POL ROF5-Ref-POL ROF6-Ref",-0.3120444942,0.1405238058,0.7090418058,1.0354845908,0.8745732423,0.2976935923,-0.2840371577,-0.5902994077,-0.6073666992,-0.3955030642,-0.2136587642,-0.1274742032,-0.0485717132,0.000285887300000003,-0.0942740627,-0.3518858737,-0.5015380237,-0.5312580094,-0.4680157894,-0.3547367394,-0.2876608534,-0.2107479532,-0.1145681392,-0.0379018892,-0.0420271712,-0.0692744762,-0.0600193902,-0.0448381607,-0.1175609147,-0.1311441432,0.0697240868,0.4901211573,0.9779108573,1.2462120408,1.1929810408,0.9661651408,1718,"DG_s09",13.781,14.391,14.969,14.969,30,15,10,10,0.578,"Left",30,15,15,15,0,0,-15,0,-15,15,15,"Advent",20,5,30,10,15,10
"106",6,"POL RPC2-Ref-POL RPC3-Ref",-0.25372785385,-0.1784797837,0.0502394163,0.3492398163,0.5480803963,0.53795548815,0.33968288815,0.26095016815,0.47339161815,0.94363330615,1.43942285615,1.44055972615,0.94058056615,0.67509006615,0.71701856615,1.03856131615,1.36023007615,1.24864157615,1.12124902615,1.16233952615,1.37603612615,1.51836682615,1.37938662615,1.06028447615,0.68459556565,0.29777501565,-0.08269338435,-0.39013903435,-0.55243857385,-0.50291152385,-0.30244247985,-0.10951909635,0.00739308865,0.19111582065,0.56905942665,1.14221484315,1718,"DG_s09",13.781,14.391,14.969,14.969,30,15,10,10,0.578,"Left",30,15,15,15,0,0,-15,0,-15,15,15,"Advent",20,5,30,10,15,10
"107",6,"POL LAM3-Ref-POL LAM4-Ref",1.127551212,1.528971562,1.80455585,2.09567115,2.432562,2.7004075,2.64896335,2.099610819,1.371937419,0.802177669,0.487479469,0.52183628,0.736177594,0.964653944,1.199597594,1.2909943655,1.0975969015,0.7412718515,0.4810899015,0.3662595,0.35242005,0.31526975,0.27781205,0.3462913115,0.5690223615,0.9158396115,1.1357273715,1.1427487255,1.0056671755,0.8089721255,0.6281050155,0.55969165,0.621207474,0.765489524,0.936817424,1.048808449,1718,"DG_s09",13.781,14.391,14.969,14.969,30,15,10,10,0.578,"Left",30,15,15,15,0,0,-15,0,-15,15,15,"Advent",20,5,30,10,15,10
"108",6,"POL RHP4-Ref-POL RHP5-Ref",-0.141471405,-0.197449155,-0.121286335,0.149722165,0.585970665,1.062895315,1.342072345,1.2538990495,0.7902250195,0.2812860195,-0.03111477845,-0.12631659425,-0.02636557425,0.02638652575,-0.0390454263,-0.0746849975,-0.00919538450000001,0.1317929155,0.2578617955,0.286670054,0.233025916,0.148192766,0.054787036,-0.04782669,-0.171330705,-0.298042605,-0.361632705,-0.333458555,-0.271573455,-0.262370905,-0.344342605,-0.395582955,-0.390479855,-0.338095355,-0.287811555,-0.366150855,1718,"DG_s09",13.781,14.391,14.969,14.969,30,15,10,10,0.578,"Left",30,15,15,15,0,0,-15,0,-15,15,15,"Advent",20,5,30,10,15,10
"109",6,"POL ROF3-Ref-POL ROF4-Ref",-0.1590455445,0.1889941055,0.26636939,-0.0199501475,-0.2218433595,-0.2657275595,-0.148116724,0.052788759,0.005835171,-0.137569179,-0.289995899,-0.442620382,-0.458914897,-0.284518042,0.095276608,0.653977958,1.057340673,1.064939968,0.71735498,0.19259573,-0.28610172,-0.54667162,-0.537280507,-0.3504145245,-0.1578700908,-0.1196156408,-0.2601159658,-0.3584602083,-0.3256652735,-0.2232726245,-0.2277339245,-0.3069357045,-0.2010057278,0.1136566232,0.6368175232,0.9986965632,1718,"DG_s09",13.781,14.391,14.969,14.969,30,15,10,10,0.578,"Left",30,15,15,15,0,0,-15,0,-15,15,15,"Advent",20,5,30,10,15,10
"110",6,"POL RPC1-Ref-POL RPC2-Ref",1.0064568693,0.7864027243,0.4415883743,0.1415743743,0.0260983355,0.0349114805,0.0450996805,-0.00955006949999998,-0.0412137195,-0.0315789195,0.0525590305,0.1943022805,0.2552954805,0.2458134305,0.2044988805,0.256894086415,0.479852286415,0.841275736415,1.231189386415,1.3979799305,1.2812361805,1.1485094805,1.2025216805,1.4761377805,1.7854952305,1.8357941305,1.531026517,0.949582667,0.292633117,-0.105090933,-0.2000025295,-0.034635687,0.24772408675,0.39097593175,0.43468107025,0.427415286695,1718,"DG_s09",13.781,14.391,14.969,14.969,30,15,10,10,0.578,"Left",30,15,15,15,0,0,-15,0,-15,15,15,"Advent",20,5,30,10,15,10
"111",6,"POL RAM4-Ref-POL RAM5-Ref",-0.58634423,-0.44960808,-0.29593348,-0.18598903,0.05671027,0.47167647,0.99305137,1.35457907,1.270630786,0.822060136,0.247507636,-0.277471314,-0.52320348,-0.45086129965,-0.20082511465,0.1004101947,0.1916066947,0.03926566435,-0.08857207065,-0.10730609,-0.00494628499999999,0.2018577105,0.4367040105,0.7355348205,1.0799293655,1.29708527,1.162368507,0.648902757,0.084884907,-0.241893993,-0.31989203,-0.20217538,-0.08590853,-0.04022088,0.00361011999999999,0.05680287,1718,"DG_s09",13.781,14.391,14.969,14.969,30,15,10,10,0.578,"Left",30,15,15,15,0,0,-15,0,-15,15,15,"Advent",20,5,30,10,15,10
"112",6,"POL LAM2-Ref-POL LAM3-Ref",-0.9784760848,-1.0368243568,-0.997092467,-0.875948997,-0.720161097,-0.595990985,-0.5308097,-0.46820985,-0.3368221,-0.13683775,0.03692125,0.0277669,-0.256932388,-0.748638938,-1.228716988,-1.531216438,-1.63613295,-1.62426555,-1.6530959,-1.70068155,-1.67591645,-1.57733,-1.4452462,-1.4251356,-1.5556919,-1.6905723,-1.7838725,-1.86444005,-1.82905285,-1.6691178395,-1.3981580895,-1.0177391895,-0.7339235895,-0.6937649425,-0.8662093925,-1.0862656925,1718,"DG_s09",13.781,14.391,14.969,14.969,30,15,10,10,0.578,"Left",30,15,15,15,0,0,-15,0,-15,15,15,"Advent",20,5,30,10,15,10
"113",6,"POL RPC5-Ref-POL RPC6-Ref",0.33124942415,0.32158520385,0.37535055385,0.57384515385,0.86000736495,1.03907949045,0.90950074745,0.60687860595,0.43578375595,0.47828675595,0.70057164895,0.86677124045,0.78157804045,0.60745474045,0.48740904045,0.40961808145,0.26354908145,0.17073117195,0.31789942195,0.73242918095,1.36183723095,1.81656719045,1.76856784045,1.28636742495,0.77454236095,0.53209271095,0.58702331095,0.82609937645,0.91422517545,0.67268257795,0.24305777795,-0.04517058095,-0.06815615595,0.17359344155,0.58768679155,0.93665350045,1718,"DG_s09",13.781,14.391,14.969,14.969,30,15,10,10,0.578,"Left",30,15,15,15,0,0,-15,0,-15,15,15,"Advent",20,5,30,10,15,10
"114",6,"POL ROF6-Ref-POL ROF7-Ref",-0.63592873693,-0.62566838693,-0.53191468693,-0.43151968693,-0.31401890093,-0.13205497593,0.10538157407,0.31929332407,0.39461006257,0.26055784757,0.06506670757,-0.01782321628,0.07815115922,0.34423919922,0.56959923922,0.57456475557,0.36999076557,0.07467606557,-0.14550748443,-0.14639192773,0.10696051227,0.46299351227,0.70696166227,0.79956301307,0.88860511307,1.06373736307,1.31971661307,1.52095796307,1.50805476307,1.34915326307,1.18864226307,1.08498476307,0.99308691307,0.82079826307,0.55489866172,0.27878666672,1718,"DG_s09",13.781,14.391,14.969,14.969,30,15,10,10,0.578,"Left",30,15,15,15,0,0,-15,0,-15,15,15,"Advent",20,5,30,10,15,10
"115",6,"POL ROF2-Ref-POL ROF3-Ref",-0.2738508574,-0.2239323829,-0.2214549659,-0.2363915164,-0.2886770995,-0.3619235895,-0.4095382095,-0.441939124,-0.503740724,-0.667759424,-0.895550534,-1.017344859,-0.938286373,-0.612354723,-0.148769873,0.246534827,0.447960091,0.39010117295,0.18558790995,0.00382235995000002,-0.10085279005,-0.13734089335,-0.17508318035,-0.25667371535,-0.34503646035,-0.397264939,-0.3883763215,-0.331996303,-0.232481208,-0.079625358,0.1128454745,0.341307541,0.608735691,0.864964391,1.006559241,0.947428791,1718,"DG_s09",13.781,14.391,14.969,14.969,30,15,10,10,0.578,"Left",30,15,15,15,0,0,-15,0,-15,15,15,"Advent",20,5,30,10,15,10
"116",6,"POL RPC3-Ref-POL RPC4-Ref",0.148915845,0.308811046,0.526956996,0.740868186,0.7703320145,0.6278107135,0.6757998965,1.1018256065,1.884770533,2.739975633,3.07709015,2.6175174095,1.7765747275,1.1417141775,0.8097482775,0.937701268,1.35765825,1.6759808,1.88224565,1.8267132055,1.3917036055,0.8751815555,0.4605897555,0.1849179,0.0589413000000001,0.0325615500000001,0.0657515500000001,0.1910208,0.30207955,0.18504035,-0.0433357999999999,-0.2384837,-0.22450265,0.1195471045,0.7223846545,1.4288323545,1718,"DG_s09",13.781,14.391,14.969,14.969,30,15,10,10,0.578,"Left",30,15,15,15,0,0,-15,0,-15,15,15,"Advent",20,5,30,10,15,10
"117",6,"POL RHP6-Ref-POL RHP7-Ref",1.296559136,1.78038315,2.12783925,2.41764315,2.78174615,3.19281165,3.46926615,3.37422215,2.88844015,2.30142365,1.85373815,1.5887821,1.3604206175,1.0098256525,0.671217928,0.506445098,0.5333762805,0.6516793805,0.6826292815,0.6326702155,0.6055169655,0.6281827305,0.6365376965,0.4953647925,0.2328944925,0.0712639925,0.069052906,0.256680756,0.546533556,0.772857806,0.97376065,1.1716159,1.3344303,1.3838717,1.2454460615,0.9152174065,1718,"DG_s09",13.781,14.391,14.969,14.969,30,15,10,10,0.578,"Left",30,15,15,15,0,0,-15,0,-15,15,15,"Advent",20,5,30,10,15,10
"118",6,"POL LAM6-Ref-POL LAM7-Ref",0.2855193385,0.3635162185,0.4507822685,0.472047333,0.3298003795,0.1156898995,0.09273835895,0.30712100945,0.80100730945,1.44126940945,1.95346405,2.30748225,2.47782625,2.42920275,2.13884045,1.65108248,1.152530275,0.839575125,0.741644575,0.767625445,0.74036318985,0.62600905635,0.57443505635,0.65599340635,0.8328671165,0.93241155,0.799167692,0.478325692,0.155409192,-0.012473008,0.01676532175,0.18215812175,0.32796811175,0.34370931175,0.24013589,0.09125554,1718,"DG_s09",13.781,14.391,14.969,14.969,30,15,10,10,0.578,"Left",30,15,15,15,0,0,-15,0,-15,15,15,"Advent",20,5,30,10,15,10
"119",6,"POL RPC4-Ref-POL RPC5-Ref",1.2470812646,1.3160199646,1.3155079146,1.2760733646,1.2303788646,1.1885314146,1.1091162146,0.9280937646,0.7209252146,0.6200262146,0.6811546146,0.8552325646,0.9610957646,0.9070427646,0.7683750146,0.6084886146,0.4307272961,0.3213799476,0.4237617476,0.7229846976,1.1082698661,1.3178088646,1.0870586231,0.5950921731,0.2310045456,0.1526238956,0.3610987371,0.6376412371,0.7137249146,0.5635128541,0.2735810041,0.0726028876,0.0915816876,0.3229347481,0.6878857981,0.9682104146,1718,"DG_s09",13.781,14.391,14.969,14.969,30,15,10,10,0.578,"Left",30,15,15,15,0,0,-15,0,-15,15,15,"Advent",20,5,30,10,15,10
"120",6,"POL RAM2-Ref-POL RAM3-Ref",0.27170284985,0.55682366485,1.01427516485,1.524092431,1.926558181,2.159853881,2.244238381,2.240732881,2.187266881,2.086934381,1.942988381,1.786288381,1.656013881,1.557927881,1.442245181,1.233189331,0.9143669335,0.5461175335,0.2166330335,0.0040279835,-0.081665519,-0.089296319,-0.084825269,-0.132557219,-0.216849219,-0.258616519,-0.218068369,-0.099554374,0.043120601,0.145995746,0.2061811717,0.2568004767,0.3238692517,0.3912662067,0.39727676665,0.27007746665,1718,"DG_s09",13.781,14.391,14.969,14.969,30,15,10,10,0.578,"Left",30,15,15,15,0,0,-15,0,-15,15,15,"Advent",20,5,30,10,15,10
"121",7,"POL ROF4-Ref-POL ROF5-Ref",-0.3624950735,-0.416269175,-0.3461572015,-0.1237551515,0.1675448985,0.38383135,0.4753575,0.4508524,0.3657582,0.29434165,0.26190575,0.2118293,0.0632663805,-0.2012633195,-0.5349267195,-0.8664803195,-1.077402,-1.0980968,-0.8772595817,-0.3879934817,0.2259205183,0.7660508183,1.07179595,1.03523505,0.6826388145,0.322041878,0.222843428,0.379850628,0.6811313635,0.78778101,0.4298420985,-0.0617935515,-0.323690336,-0.365475096,-0.284187127,-0.364419627,1719,"DG_s09",15.969,16.594,17.328,17.328,28,4,10,10,0.734,"Left",28,4,24,24,0,0,-24,0,-24,24,24,"Advent",18,-6,28,10,4,10
"122",7,"POL RPC2-Ref-POL RPC3-Ref",-1.681763044,-1.514661058,-1.148102958,-0.614800758,-0.116893758,0.105293206,0.063051706,-0.120427844,-0.318772244,-0.490679094,-0.695817006,-1.031806756,-1.427724556,-1.684888756,-1.784410894,-1.55782074,-1.01187254,-0.41975299,0.0481029100000001,0.0691965945000002,-0.4130410055,-0.704608711,-0.664477211,-0.3074077495,0.1192708505,-0.0700274324999999,-0.5915118825,-1.0482701693,-1.3286363138,-1.4193804253,-1.5031008753,-1.6687494385,-1.734187644,-1.609693275,-1.384764975,-1.23090354545,1719,"DG_s09",15.969,16.594,17.328,17.328,28,4,10,10,0.734,"Left",28,4,24,24,0,0,-24,0,-24,24,24,"Advent",18,-6,28,10,4,10
"123",7,"POL ROF1-Ref-POL ROF2-Ref",0.0143139,-0.1399079825,-0.3476949825,-0.5960355325,-0.8300962825,-0.98920625,-1.0464403,-0.8661449735,-0.3696682235,0.3670769265,1.1914141765,1.79415905,1.91128345,1.50782925,0.7467582792,-0.1226710708,-0.8374585708,-1.2858588708,-1.49405005,-1.4509472,-1.3255469,-1.27909925,-1.2590617,-1.1874138,-1.0893894,-0.8830802825,-0.5356585825,-0.1639034825,0.2468693175,0.60735405,0.72310955,0.53101485,0.22623395,0.0374945,0.0520225,0.2539577,1719,"DG_s09",15.969,16.594,17.328,17.328,28,4,10,10,0.734,"Left",28,4,24,24,0,0,-24,0,-24,24,24,"Advent",18,-6,28,10,4,10
"124",7,"POL LAM2-Ref-POL LAM3-Ref",0.146699972,0.702305172,1.076002741,1.125749441,0.909661991,0.644811541,0.498832841,0.493018641,0.520533791,0.40916877885,0.10483937885,-0.29027127115,-0.57400087115,-0.631706634,-0.4698107235,-0.1950887235,-0.0243486245,-0.1010268995,-0.38603741,-0.58685916,-0.5820492865,-0.2678913865,0.3411838135,0.9467147135,1.373796891,1.449486341,1.13286426,0.6510995928,0.2444478178,-0.0136550477,-0.1312484167,-0.1889278495,-0.2359843295,-0.248972939,-0.265519289,-0.416356689,1719,"DG_s09",15.969,16.594,17.328,17.328,28,4,10,10,0.734,"Left",28,4,24,24,0,0,-24,0,-24,24,24,"Advent",18,-6,28,10,4,10
"125",7,"POL LAM5-Ref-POL LAM6-Ref",0.206771318,0.072631268,-0.133096882,-0.3784252135,-0.4855716235,-0.4579910275,-0.305768036,-0.016716686,0.225458314,0.361130368,0.3953415765,0.3681626765,0.3515171265,0.3795391765,0.4365053265,0.4538075965,0.37342292245,0.25184432425,0.19934822425,0.27485565425,0.4504320283,0.6455921765,0.8008173765,0.9195128265,1.0323089765,1.1346859765,1.1717784265,1.0729079765,0.8070818905,0.4097812905,-0.0320948595,-0.3989012095,-0.6333926235,-0.7646412235,-0.8283064235,-0.8416596235,1719,"DG_s09",15.969,16.594,17.328,17.328,28,4,10,10,0.734,"Left",28,4,24,24,0,0,-24,0,-24,24,24,"Advent",18,-6,28,10,4,10
"126",7,"POL ROF6-Ref-POL ROF7-Ref",-0.07911735,-0.00622895600000001,0.224477894,0.557297794,0.763908744,0.7332934525,0.5041295525,0.1730127025,-0.1122584975,-0.2281383,-0.1475772185,0.1040373765,0.4202765265,0.6408634765,0.646591702,0.448427307,0.286885687,0.260403387,0.39005003,0.63153258,0.780463,0.8184908,0.787624,0.6669393245,0.4737315245,0.3805939875,0.4662240875,0.697926713,0.944922763,0.9764274905,0.7843824305,0.5706396165,0.4934414665,0.569137626,0.701932436,0.75008525,1719,"DG_s09",15.969,16.594,17.328,17.328,28,4,10,10,0.734,"Left",28,4,24,24,0,0,-24,0,-24,24,24,"Advent",18,-6,28,10,4,10
"127",7,"POL LAM1-Ref-POL LAM2-Ref",0.0383456595,0.560376057,0.855300182,0.859711682,0.600475882,0.12864777055,-0.42622187945,-0.84734352945,-1.0257391299,-0.98918529345,-0.87698738245,-0.86321423245,-0.969520832,-1.133365757,-1.306924718,-1.466795018,-1.585708918,-1.646522718,-1.650839918,-1.619076268,-1.557716518,-1.437073868,-1.248100248,-1.009219698,-0.803545648,-0.72307557655,-0.75217229655,-0.79312336045,-0.73907781045,-0.5422622819,-0.2519936819,0.00418823200000007,0.098364132,-0.0332073279999999,-0.3494120325,-0.64574099765,1719,"DG_s09",15.969,16.594,17.328,17.328,28,4,10,10,0.734,"Left",28,4,24,24,0,0,-24,0,-24,24,24,"Advent",18,-6,28,10,4,10
"128",7,"POL RHP6-Ref-POL RHP7-Ref",0.75426405005,0.92031915505,0.9037520905,0.7484920405,0.6365086155,0.6773259605,0.848282725,0.99549166,0.9164147111,0.7511654421,0.7750301921,1.0326408571,1.469688531,1.7580229,1.5786596235,1.0765802235,0.6879469655,0.5187571155,0.571800887,0.70815175125,0.63391335925,0.43366710925,0.26003611425,0.1841043,0.17779705,0.17788845,0.1431241,0.0912162,0.06142565,0.0754645500000001,0.1202325,0.1676534,0.2049772,0.2240284,0.214212,0.1677023,1719,"DG_s09",15.969,16.594,17.328,17.328,28,4,10,10,0.734,"Left",28,4,24,24,0,0,-24,0,-24,24,24,"Advent",18,-6,28,10,4,10
"129",7,"POL ROF5-Ref-POL ROF6-Ref",-0.4499942346,-0.1711479101,-0.2009077601,-0.4534129905,-0.6153722905,-0.625322415,-0.4731903,-0.28032815,-0.26496665,-0.2645554885,-0.0852283035,0.3098539965,0.7928564965,1.093035435,1.002843034,0.635494434,0.2745477335,0.0027990215,-0.1447190275,-0.0724597055,0.141975345,0.480910057,0.887652707,1.044321185,0.8021548905,0.4341435515,0.2252403515,0.2079939015,0.307382196,0.2753050508,-0.0205867492,-0.3228354492,-0.3988862342,-0.2167667,0.11286865,0.35123585,1719,"DG_s09",15.969,16.594,17.328,17.328,28,4,10,10,0.734,"Left",28,4,24,24,0,0,-24,0,-24,24,24,"Advent",18,-6,28,10,4,10
"130",7,"POL RAM4-Ref-POL RAM5-Ref",0.6916650908,0.5612863408,0.3734758408,0.154682548,-0.0115069419999999,-0.0417636419999999,0.062639328,0.265590155,0.46683900705,0.58487610205,0.62709408805,0.59949349605,0.467530294,0.211644849,0.027647693,0.0308026790000001,0.222944579,0.557549579,0.790938429,0.82984661525,0.7687007545,0.7137733245,0.7100686245,0.73797606225,0.747568999,0.71505506885,0.66604167715,0.64993885215,0.70116027615,0.8124439363,0.944237678,1.054557358,1.121479158,1.134226108,1.074675208,0.909226306,1719,"DG_s09",15.969,16.594,17.328,17.328,28,4,10,10,0.734,"Left",28,4,24,24,0,0,-24,0,-24,24,24,"Advent",18,-6,28,10,4,10
"131",7,"POL RPC1-Ref-POL RPC2-Ref",1.278103756,1.16337438535,0.95052685235,0.79211546735,0.74372856735,0.778286738,0.811021321,0.821659806,0.852921406,0.902230456,0.9063115397,0.7880853547,0.5504653547,0.3307433547,0.281427072,0.452811007,0.785167957,1.108530907,1.246983806,1.122847372,0.759124522,0.264939622,-0.143423128,-0.385424794,-0.389289294,-0.1357381131,0.2324563369,0.6297411869,0.9230348369,1.040755406,1.047624456,1.014610006,0.9268656815,0.6839614315,0.3726737815,0.26588366,1719,"DG_s09",15.969,16.594,17.328,17.328,28,4,10,10,0.734,"Left",28,4,24,24,0,0,-24,0,-24,24,24,"Advent",18,-6,28,10,4,10
"132",7,"POL RAM3-Ref-POL RAM4-Ref",0.106481235,0.05894659,-0.00489304000000002,-0.077199245,-0.158646745,-0.252137995,-0.322150745,-0.359388845,-0.401978045,-0.389342645,-0.2663124945,-0.0447940445,0.2884600055,0.6365688555,0.857248655,0.898891505,0.76913451,0.5574261883,0.3999693083,0.3520017583,0.3796503533,0.396133828,0.341515893,0.274419828,0.254809028,0.284180175,0.2905135325,0.1743565475,-0.0249448525,-0.1629904025,-0.205561995,-0.150717595,-0.066149995,-0.067580395,-0.145972045,-0.248758145,1719,"DG_s09",15.969,16.594,17.328,17.328,28,4,10,10,0.734,"Left",28,4,24,24,0,0,-24,0,-24,24,24,"Advent",18,-6,28,10,4,10
"133",7,"POL RAM5-Ref-POL RAM6-Ref",0.730910529,0.8124787,0.7344387725,0.5025696225,0.1641485725,-0.1311842525,-0.2636502,-0.22743455,-0.0187772718,0.2688530482,0.5301445982,0.7187879482,0.760857312,0.615688442,0.387905392,0.241032507,0.2321130188,0.3522001488,0.4756122783,0.4675415633,0.3482492095,0.2005457295,0.0925861,0.0480186,0.0454583,0.02774465,-0.05259615,-0.12587815,-0.0705796363,0.1266774387,0.4223577887,0.6698677887,0.7090397175,0.5325254425,0.2319765425,-0.00772830749999998,1719,"DG_s09",15.969,16.594,17.328,17.328,28,4,10,10,0.734,"Left",28,4,24,24,0,0,-24,0,-24,24,24,"Advent",18,-6,28,10,4,10
"134",7,"POL RPC3-Ref-POL RPC4-Ref",-2.08955210865,-2.31439211415,-2.1233224555,-1.6378198055,-1.1333720555,-0.79154015,-0.602429,-0.549289,-0.6909859,-1.118588135,-1.5970065244,-1.7756231744,-1.6775272744,-1.4282243894,-1.434979905,-1.771052785,-1.9944690355,-2.0123630855,-1.8269118305,-1.7147129995,-1.8413665543,-1.9863887243,-2.0283460743,-1.98715268695,-2.04112473165,-2.26745746165,-2.51749706165,-2.64874055,-2.61756167,-2.42010411925,-2.16215546925,-1.94684991925,-1.80152544925,-1.761084515,-1.8665708365,-2.1069922365,1719,"DG_s09",15.969,16.594,17.328,17.328,28,4,10,10,0.734,"Left",28,4,24,24,0,0,-24,0,-24,24,24,"Advent",18,-6,28,10,4,10
"135",7,"POL LAM3-Ref-POL LAM4-Ref",0.15279939065,0.50942904065,0.87963954065,1.02210065065,0.952093208,0.797151913,0.653872653,0.536598883,0.364136745,0.13519999,0.04069425,0.071317025,0.22164007,0.40946987,0.47103352,0.48653031,0.488577655,0.426393555,0.220984405,0.02350888,-0.11254691,-0.19502261,-0.11333151,0.0711805987,0.3221854487,0.6499738487,0.9271230487,1.03949699,1.05576389,1.04968039,1.01659889,0.8909054565,0.6180423065,0.2875776565,0.0555518564999999,-0.01590596,1719,"DG_s09",15.969,16.594,17.328,17.328,28,4,10,10,0.734,"Left",28,4,24,24,0,0,-24,0,-24,24,24,"Advent",18,-6,28,10,4,10
"136",7,"POL RHP5-Ref-POL RHP6-Ref",0.3900869,0.42152515,0.457900375,0.489646205,0.485302055,0.419696355,0.4136630205,0.6060329905,1.0306808405,1.5734384905,1.945013,1.9392292,1.6457736,1.3515839,1.1913088,1.13961035,1.020600061,0.675182111,0.334798011,0.089606311,-0.0130996,0.01610785,-0.00106609999999996,-0.00851435,0.0470036500000001,0.1398764,0.2200695,0.2631978,0.2510931,0.15539895,0.0467528500000001,0.0749588,0.2141435505,0.4258840259,0.5883502459,0.5568462959,1719,"DG_s09",15.969,16.594,17.328,17.328,28,4,10,10,0.734,"Left",28,4,24,24,0,0,-24,0,-24,24,24,"Advent",18,-6,28,10,4,10
"137",7,"POL ROF2-Ref-POL ROF3-Ref",-0.0485469585,-0.3273494335,-0.466576548,-0.4700196488,-0.4206543488,-0.5643161738,-0.8193249093,-0.929699708,-0.8333098073,-0.5981700083,-0.4167596283,-0.4454701783,-0.536898179,-0.577838238,-0.484734597,-0.212330397,0.146664153,0.549719413,0.948983142,1.207095942,1.203924342,1.009239942,0.867671742,0.911033742,1.074679592,1.136860942,0.8476932885,0.2743023385,-0.2660884615,-0.6394667115,-0.745040458,-0.5306770925,-0.1512544425,0.3404358575,0.8055639575,1.009901842,1719,"DG_s09",15.969,16.594,17.328,17.328,28,4,10,10,0.734,"Left",28,4,24,24,0,0,-24,0,-24,24,24,"Advent",18,-6,28,10,4,10
"138",7,"POL RPC5-Ref-POL RPC6-Ref",0.943331966,1.081645216,1.039893366,0.794423235,0.341271285,-0.114019565,-0.34290648,-0.361248209,-0.260322009,-0.252441909,-0.2228762185,-0.0301279085,0.3310148415,0.7709718415,0.973012266,1.003915316,1.054915816,1.183866266,1.322805416,1.307333716,1.078948916,0.714337323,0.332464323,0.077003573,-0.02151344295,-0.02289754015,-0.03128814015,-0.17901799015,-0.2712756992,-0.194447399,0.073071601,0.464662851,0.673927526,0.636258096,0.422796495,0.117605645,1719,"DG_s09",15.969,16.594,17.328,17.328,28,4,10,10,0.734,"Left",28,4,24,24,0,0,-24,0,-24,24,24,"Advent",18,-6,28,10,4,10
"139",7,"POL LAM6-Ref-POL LAM7-Ref",0.224070721,0.057319726,-0.105119009,-0.247323159,-0.334379109,-0.297206409,-0.109870584,0.191366166,0.491844966,0.667564666,0.679266247325,0.566451707325,0.391679207325,0.201079907325,0.017072651,-0.161496509,-0.311386659,-0.394672009,-0.424034759,-0.430274759,-0.441914309,-0.439141859,-0.391452759,-0.280861259,-0.117661859,0.043434041,0.1859178747,0.3128085147,0.4208654647,0.48390334845,0.45698888775,0.30605754775,0.08253384775,-0.056861236,-0.060458224,0.065315099,1719,"DG_s09",15.969,16.594,17.328,17.328,28,4,10,10,0.734,"Left",28,4,24,24,0,0,-24,0,-24,24,24,"Advent",18,-6,28,10,4,10
"140",7,"POL ROF3-Ref-POL ROF4-Ref",0.49439765,0.3401013,0.18423935,0.1444147,0.23993505,0.432549795,0.586322745,0.615871995,0.535348745,0.432566,0.41264901,0.473246115,0.531656185,0.458072785,0.213387025,-0.00152793000000007,-0.0931502500000001,0.0763868785499999,0.50522392855,0.97840237855,1.41617542855,1.7074919,1.85613385,1.9609978,2.0603373,2.0937346,1.9283158,1.486664012,0.875054562,0.320249762,0.00812726199999991,0.029344501,0.349629991,0.834744191,1.335254491,1.69745854,1719,"DG_s09",15.969,16.594,17.328,17.328,28,4,10,10,0.734,"Left",28,4,24,24,0,0,-24,0,-24,24,24,"Advent",18,-6,28,10,4,10
"141",7,"POL RAM2-Ref-POL RAM3-Ref",0.16955925,0.2890897,0.2543919,0.10149086,-0.02679905,-0.0689128,-0.03208795,0.0231659,-0.02553275,-0.1072683,-0.15245985,-0.14522575,-0.05584155,0.06923785,0.192441895,0.290376585,0.306466735,0.225889935,0.14464044,0.091102,0.0490887,0.095808375,0.2781680835,0.6036298835,1.0637290335,1.4688387585,1.61350615,1.4875811,1.177320686,0.799456686,0.446447036,0.160163286,-0.0525455500000001,-0.1757458,-0.2264902,-0.22655745,1719,"DG_s09",15.969,16.594,17.328,17.328,28,4,10,10,0.734,"Left",28,4,24,24,0,0,-24,0,-24,24,24,"Advent",18,-6,28,10,4,10
"142",7,"POL RHP4-Ref-POL RHP5-Ref",0.913603453,0.869866103,0.753808503,0.651729403,0.600324603,0.5323485365,0.3538805865,0.2823178105,0.4386685605,0.792691277,1.257626277,1.443262903,1.162847463,0.617754713,0.247456528,0.156155378,0.350846618,0.674646068,0.785637053,0.67622180295,0.40397520295,0.05505050295,-0.20356839705,-0.287708197,-0.224038997,-0.086963397,-0.034590497,-0.133811747,-0.273389197,-0.366045697,-0.372258997,-0.266762797,-0.129806497,0.000266957999999984,0.1395880635,0.2904511635,1719,"DG_s09",15.969,16.594,17.328,17.328,28,4,10,10,0.734,"Left",28,4,24,24,0,0,-24,0,-24,24,24,"Advent",18,-6,28,10,4,10
"143",7,"POL RAM6-Ref-POL RAM7-Ref",0.169428245,0.258112525,0.237306775,0.117900235,-0.075916925,-0.210652055,-0.212761955,-0.0842586151,0.1452550749,0.3425527749,0.4504931149,0.519644675,0.636172535,0.850004385,1.138813545,1.403585395,1.514994795,1.390804595,1.04410899025,0.61830904025,0.26641274025,0.00761169024999997,-0.096108105,0.00368655099999998,0.204157351,0.468023551,0.668887921,0.635130163,0.426620913,0.208801313,0.064200293,-0.016720305,-0.095374355,-0.139663455,-0.129852805,-0.075451405,1719,"DG_s09",15.969,16.594,17.328,17.328,28,4,10,10,0.734,"Left",28,4,24,24,0,0,-24,0,-24,24,24,"Advent",18,-6,28,10,4,10
"144",7,"POL RPC4-Ref-POL RPC5-Ref",1.3942057435,0.987941608,0.438779558,0.000425858000000001,-0.221788842,-0.2371723215,-0.1358819265,-0.0640387165,-0.0508070765,-0.0963669315,-0.2140522765,-0.3010150365,-0.2526465755,-0.0600128555,0.2683419945,0.6242711945,0.8942437435,1.0465119935,1.0365420435,0.8035462435,0.3477157935,-0.1372383565,-0.383173515,-0.345028985,-0.093374385,0.1397191835,0.096398577,-0.145247103,-0.3081815695,-0.258709908,0.036255407,0.471898607,0.8176914235,0.9920854935,0.9657812935,0.719190899,1719,"DG_s09",15.969,16.594,17.328,17.328,28,4,10,10,0.734,"Left",28,4,24,24,0,0,-24,0,-24,24,24,"Advent",18,-6,28,10,4,10
"145",8,"POL RAM5-Ref-POL RAM6-Ref",0.2737869966,0.3706809966,0.4028990966,0.3387394466,0.1921049966,0.0123054816,-0.1082865684,-0.1276974184,-0.1189284684,-0.1942288729,-0.1880462629,0.1080365871,0.7295672871,1.6028163066,2.2546675466,2.2358826966,1.5592933871,0.7765848626,0.2841983126,0.1196401126,0.1983264721,0.1550868021,-0.0597041979,-0.2174595979,-0.2323433479,-0.2017229059,-0.3224405559,-0.5702478559,-0.7049456724,-0.6936350399,-0.5524602499,-0.4411179049,-0.5740594384,-0.8205727684,-1.0295488084,-1.1654328034,1720,"DG_s09",18.328,18.938,19.734,19.75,10,10,4,4,0.796,"Left",4,4,0,0,0,0,0,0,0,0,0,"10-10",6,6,10,4,10,4
"146",8,"POL LAM5-Ref-POL LAM6-Ref",0.9369127295,1.071310825,1.125807675,1.139060725,1.215092425,1.446845875,1.842303975,2.299022625,2.649992175,2.760071175,2.604448675,2.292851675,2.008752675,1.877078175,1.879120175,1.854648175,1.5931519405,1.1324775805,0.911957879,1.017806379,1.3943491135,1.8024457735,1.801971425,1.510410325,1.214314575,1.101577025,1.226784975,1.500035075,1.777848825,1.955034075,1.933653975,1.648585093,1.137835493,0.592595993,0.198090043,-0.0183091249999999,1720,"DG_s09",18.328,18.938,19.734,19.75,10,10,4,4,0.796,"Left",4,4,0,0,0,0,0,0,0,0,0,"10-10",6,6,10,4,10,4
"147",8,"POL LAM6-Ref-POL LAM7-Ref",-0.14427479,-0.19225179,-0.17315799,-0.16805244,-0.2834835685,-0.5741785685,-0.8953285685,-1.060877896,-0.9978479175,-0.6416995675,-0.0838372174999999,0.53998646,1.16766426,1.67122601,1.92765101,1.96062201,1.97266901,2.12263401,2.35947001,2.45428751,2.15659351,1.50907111,0.80596921,0.21919981,-0.223079552,-0.4465268718,-0.4479309718,-0.2633050718,0.0777877902,0.32548486,0.26244441,-0.1055145855,-0.5736689855,-0.774890852,-0.699773252,-0.4058473065,1720,"DG_s09",18.328,18.938,19.734,19.75,10,10,4,4,0.796,"Left",4,4,0,0,0,0,0,0,0,0,0,"10-10",6,6,10,4,10,4
"148",8,"POL ROF1-Ref-POL ROF2-Ref",-0.998215824,-0.819225124,-0.69960655,-0.589829105,-0.478464405,-0.4211703525,-0.5231290265,-0.7949209215,-1.0377065715,-1.150004174,-1.119949174,-0.989874674,-0.918624824,-0.932904924,-0.949769024,-0.8830838805,-0.7098627555,-0.4530770555,-0.1678618055,0.0951002009999999,0.338678026,0.587676676,0.833866276,1.013390126,1.055851626,0.983556626,0.917881626,0.943516126,1.044554626,1.114492626,1.020333126,0.734043276,0.335169376,-0.06421436355,-0.34760273505,-0.44300035505,1720,"DG_s09",18.328,18.938,19.734,19.75,10,10,4,4,0.796,"Left",4,4,0,0,0,0,0,0,0,0,0,"10-10",6,6,10,4,10,4
"149",8,"POL LAM1-Ref-POL LAM2-Ref",0.534725734,0.8478066755,0.9639445055,0.651864152,0.228426613,-0.0424862455,-0.1242975205,-0.05131042945,-0.07940069045,-0.21363258195,-0.31707129195,-0.3373891795,-0.3180406295,-0.3574665295,-0.4471726795,-0.5141766795,-0.4995307795,-0.38099167739,-0.17003862739,0.08920737261,0.33239737261,0.4936910205,0.5223061705,0.4012962195,0.1618690195,-0.1225029805,-0.3804769305,-0.5752566795,-0.6834866295,-0.6894123795,-0.555469655,-0.231676105,0.253742295,0.775531945,1.1693022705,1.3669411705,1720,"DG_s09",18.328,18.938,19.734,19.75,10,10,4,4,0.796,"Left",4,4,0,0,0,0,0,0,0,0,0,"10-10",6,6,10,4,10,4
"150",8,"POL RAM4-Ref-POL RAM5-Ref",-0.5957714945,-0.686104572,-0.6316230505,-0.4608792375,-0.2620197275,-0.15512285,-0.2418512665,-0.5045589665,-0.683307343,-0.713735093,-0.74271650905,-0.75866014555,-0.48310381905,-0.04099996905,0.4394222635,0.629953575,0.18255508,-0.25905986,-0.60792749,-0.7864305,-0.753712305,-0.933193615,-1.277947935,-1.132839822,-0.568482322,0.098486928,0.790118378,0.8668613585,0.2790647585,-0.301243002,-0.639415952,-0.6805764385,-0.55329448685,-0.63973032635,-0.83342407635,-0.98922604835,1720,"DG_s09",18.328,18.938,19.734,19.75,10,10,4,4,0.796,"Left",4,4,0,0,0,0,0,0,0,0,0,"10-10",6,6,10,4,10,4
"151",8,"POL RAM3-Ref-POL RAM4-Ref",0.39265054315,0.5897809425,1.0015493425,1.6336287805,2.418874979,3.249954779,3.993084279,4.462940779,4.432966279,3.759279779,2.715245979,1.924507729,1.519675229,1.456296029,1.4255592555,1.0066888555,0.4696513055,0.0842221905,0.1086403785,0.4965615785,0.9467701285,1.2782215935,1.334164529,1.185877229,0.961601379,0.7529917879,0.5963462534,0.4744617184,0.3665894484,0.2523517895,0.134375724,0.0977884277,0.1544974977,0.3028724977,0.4695568927,0.4915201875,1720,"DG_s09",18.328,18.938,19.734,19.75,10,10,4,4,0.796,"Left",4,4,0,0,0,0,0,0,0,0,0,"10-10",6,6,10,4,10,4
"152",8,"POL ROF3-Ref-POL ROF4-Ref",0.5729458945,0.9492736445,0.955450081,0.593076231,0.200848331,-0.024261744,-0.03366947,0.138598645,0.263421625,0.27411062,0.232125115,0.21845319145,0.27863192145,0.39793065145,0.49963193895,0.4645366045,0.2976685445,0.1595676345,0.164090367,0.34563971,0.60975791,0.76954357,0.723701147,0.490953997,0.303972883,0.353473283,0.677781536,1.205495636,1.657415,1.82578165,1.68518105,1.2626715315,0.6287031315,0.180159811,0.0747306845,0.238225153,1720,"DG_s09",18.328,18.938,19.734,19.75,10,10,4,4,0.796,"Left",4,4,0,0,0,0,0,0,0,0,0,"10-10",6,6,10,4,10,4
"153",8,"POL ROF4-Ref-POL ROF5-Ref",-0.7798212085,-1.0873011335,-1.260452925,-1.3976982995,-1.5711936665,-1.7639794915,-1.985569,-2.0253387,-1.8083850805,-1.5327331805,-1.1674476805,-0.8996558805,-0.9708526,-1.1867752,-1.336459499,-1.359532884,-1.28044913745,-1.20753087245,-1.2008953838,-1.2543381303,-1.38203257685,-1.61860069185,-1.8535010815,-2.0164908,-2.10465785,-2.0834997,-2.03697085,-2.01679655,-1.97399795,-1.9118543,-1.8933074,-1.91407065,-1.97531765,-2.10437815,-2.17699875,-2.1613023,1720,"DG_s09",18.328,18.938,19.734,19.75,10,10,4,4,0.796,"Left",4,4,0,0,0,0,0,0,0,0,0,"10-10",6,6,10,4,10,4
"154",8,"POL RPC5-Ref-POL RPC6-Ref",-0.104918515,0.037697685,0.362939225,0.694816375,0.60956878815,0.26510843465,0.07016843465,0.12488413465,0.3891628465,0.57101885,0.45363783,0.27132208,0.20357883,0.26860843,0.378489,0.41307,0.375439,0.3349604,0.3079084,0.2116368755,-0.0191625245,-0.3301831745,-0.5905699245,-0.75291075,-0.8199098,-0.7303537665,-0.4727748515,-0.0789240515,0.3588313985,0.57190688,0.3153819495,-0.00518627099999999,-0.020548771,0.311194664,0.9711373795,1.4569664,1720,"DG_s09",18.328,18.938,19.734,19.75,10,10,4,4,0.796,"Left",4,4,0,0,0,0,0,0,0,0,0,"10-10",6,6,10,4,10,4
"155",8,"POL LAM3-Ref-POL LAM4-Ref",-0.3235954815,-0.27478886535,-0.10684206535,0.08626118465,0.23870378465,0.3516772685,0.4178816185,0.4101960485,0.3225617425,0.1977569725,0.1028400765,0.0843632615,0.1408412675,0.2272013375,0.2931640335,0.3219483185,0.3245038185,0.3042569085,0.234431804,0.067948704,-0.227439796,-0.445733136,-0.4426640065,-0.2284588565,0.1207944935,0.327086585,0.3251124955,0.2961918955,0.3308806955,0.410031004,0.3993872501,0.1603610001,-0.1924058499,-0.4976308499,-0.6255545815,-0.5130525465,1720,"DG_s09",18.328,18.938,19.734,19.75,10,10,4,4,0.796,"Left",4,4,0,0,0,0,0,0,0,0,0,"10-10",6,6,10,4,10,4
"156",8,"POL LAM2-Ref-POL LAM3-Ref",-0.03701605,-0.19739235,-0.35309065,-0.4414856,-0.5009401,-0.5135331,-0.41966325,-0.26821855,-0.053678055,0.173915045,0.289853545,0.3650670555,0.4317717105,0.4574635165,0.3643798165,0.109985406,-0.177144394,-0.31480325,-0.220222775,0.0341514673,0.2670594992,0.3103614492,0.1257433742,-0.00255446809999998,0.0597894045,0.3064183045,0.6359435045,0.7262869385,0.517316184,0.160328834,-0.180917766,-0.35452075,-0.2675462755,0.0339930095,0.4821688095,0.9670729095,1720,"DG_s09",18.328,18.938,19.734,19.75,10,10,4,4,0.796,"Left",4,4,0,0,0,0,0,0,0,0,0,"10-10",6,6,10,4,10,4
"157",8,"POL ROF5-Ref-POL ROF6-Ref",0.212516234,0.308868334,0.5145209045,0.5957243225,0.2805836275,-0.0915521725,-0.3294039225,-0.2368462655,0.1739270845,0.6207461845,0.9876592345,1.0847260515,0.8137382565,0.4111246065,0.154374433,0.142523441,0.400608886,0.790959436,1.1753858095,1.5423590095,1.8381575595,1.9234054595,1.6800339945,1.234233567,0.983356317,1.039340317,1.352613282,1.6906572095,1.6499853095,1.256168001,0.785598826,0.4563529145,0.3349190145,0.362281673,0.410255698,0.386008604,1720,"DG_s09",18.328,18.938,19.734,19.75,10,10,4,4,0.796,"Left",4,4,0,0,0,0,0,0,0,0,0,"10-10",6,6,10,4,10,4
"158",8,"POL ROF6-Ref-POL ROF7-Ref",-1.3009232511,-1.3253541,-1.19571175,-1.0822007,-1.09692885,-1.15216205,-1.1288952155,-0.9513500655,-0.6392051155,-0.3079995155,-0.10352045,-0.1071789,-0.28059936585,-0.52916027635,-0.78056937635,-0.93759572635,-0.930293121,-0.8034989105,-0.6253393105,-0.4746871605,-0.3810843,-0.32135405,-0.3228605,-0.3933362404,-0.4064537404,-0.3298786904,-0.2120691904,-0.161700732,-0.403596382,-0.884652132,-1.301105082,-1.422953283,-1.179062133,-0.713154483,-0.279117983,-0.0644495500000001,1720,"DG_s09",18.328,18.938,19.734,19.75,10,10,4,4,0.796,"Left",4,4,0,0,0,0,0,0,0,0,0,"10-10",6,6,10,4,10,4
"159",8,"POL RPC3-Ref-POL RPC4-Ref",0.7071101545,0.8039381545,1.1802561045,1.5742033545,1.41024581,0.76686493,0.1966577035,-0.1359105965,-0.2627590965,-0.2978720165,-0.318492898,-0.206935348,0.1111766465,0.4812783465,0.5168392185,0.1410512785,-0.3987796215,-0.7955701215,-0.9466783355,-0.8701600455,-0.7355855455,-0.7249123955,-0.8416230955,-1.0336516955,-1.2172255455,-1.3741360955,-1.4724324955,-1.3963488955,-1.1929174555,-0.919457081,-0.6602772691,-0.5452466191,-0.5109456156,-0.4955005151,-0.5175724325,-0.6413698825,1720,"DG_s09",18.328,18.938,19.734,19.75,10,10,4,4,0.796,"Left",4,4,0,0,0,0,0,0,0,0,0,"10-10",6,6,10,4,10,4
"160",8,"POL RHP6-Ref-POL RHP7-Ref",-0.1242479485,-0.022287147,0.1668118536,0.4070256236,0.8051950671,1.3865177156,2.027752765,2.395654295,2.331919795,1.977710245,1.619630095,1.512755095,1.743313095,2.191832145,2.621643295,2.831425295,2.795237295,2.685668795,2.693831295,2.839953795,2.926647795,2.675549295,2.191460195,1.932801695,2.033753695,2.410258195,2.662938795,2.330423225,1.532613036,0.638229686,-0.033706564,-0.381751694,-0.520601455,-0.461707205,-0.22687589455,0.08919530545,1720,"DG_s09",18.328,18.938,19.734,19.75,10,10,4,4,0.796,"Left",4,4,0,0,0,0,0,0,0,0,0,"10-10",6,6,10,4,10,4
