"","trial","electrodes","bin_1","bin_2","bin_3","bin_4","bin_5","bin_6","bin_7","bin_8","bin_9","bin_10","bin_11","bin_12","bin_13","bin_14","bin_15","bin_16","bin_17","bin_18","bin_19","bin_20","bin_21","bin_22","bin_23","bin_24","bin_25","bin_26","bin_27","bin_28","bin_29","bin_30","bin_31","bin_32","bin_33","bin_34","bin_35","bin_36","X","SID","newround_time","choice_time","buttonpress_time","reveal_time","self_payoff","other_payoff","self_foregone","other_foregone","RT","side_chosen","self_var_payoff","other_var_payoff","ineq_var_abs","ineq_choice_abs","ineq_foregone_abs","ineq_foregone","ineq_disadvent","ineq_advent","ineq_disadvent_choice","ineq_advent_choice","ineq_var","ineq_choice","chose_equality","self_diff","other_diff","L_self","R_self","L_other","R_other"
"1",2,"POL RPC5-Ref-POL RPC6-Ref",-0.083968271,-0.633090721,-0.770773536,-0.625419054,-0.301350854,0.074793516,0.174268161,0.039009679,-0.364940821,-0.693972815,-0.450459005,-0.2692113865,0.0848973685,0.0673361225,-0.1977647075,-0.2401511815,-0.2917002465,0.0726543735,0.1916615935,0.275070729,0.139218089,-0.0552196709,-0.0407297109,-0.0100963909,-0.0394089979,-0.234860338,-0.427412793,-0.5698119865,-0.2134274795,0.5119151705,0.8351933855,0.602039679,0.448733199,-0.0329408355,-0.2841565005,-0.1771653505,1714,"DG_s09",3,3.625,4.797,4.797,12,12,10,10,1.172,"Left",12,12,0,0,0,0,0,0,0,0,0,0,"Equal",2,2,12,10,12,10
"2",2,"POL RPC4-Ref-POL RPC5-Ref",0.86244029,0.18469009,-0.1701748,-0.091142378495,-0.00443712199500002,0.058607378005,0.228359428005,0.0455818565,-0.22793174,-0.1313635285,0.0886630715,0.301319302,0.568611437,0.5589757695,0.2632978195,0.212704944,0.2306146485,0.3205155525,0.3546055525,0.2451237475,0.1786872368,0.1770167319,0.5069736319,0.9773482819,1.0568042996,1.2414902065,0.937801831,0.848556406,1.1505066595,1.2401066595,1.447138485,1.24829741,0.91045166,0.6155052971,0.3988796971,0.3653358031,1714,"DG_s09",3,3.625,4.797,4.797,12,12,10,10,1.172,"Left",12,12,0,0,0,0,0,0,0,0,0,0,"Equal",2,2,12,10,12,10
"3",2,"POL RHP6-Ref-POL RHP7-Ref",-0.3610141465,-0.5163182925,-0.5176636925,-0.4886160925,-0.4462563425,-0.3898344425,-0.2775838385,-0.3089990285,-0.3849267785,-0.305710257,-0.273572861,-0.1568454655,0.2547286345,0.465492613,0.568360163,0.7930100575,0.499496628,0.261806028,0.379613178,0.102236163,0.0285776425,0.3605150775,0.281947367,0.2473750835,0.3463637435,-0.0253265915,-0.291669081,-0.231327342,-0.053799602,0.153114998,0.2766417865,0.518291146,0.452694006,0.4185937175,0.309381529,0.12381514,1714,"DG_s09",3,3.625,4.797,4.797,12,12,10,10,1.172,"Left",12,12,0,0,0,0,0,0,0,0,0,0,"Equal",2,2,12,10,12,10
"4",2,"POL ROF2-Ref-POL ROF3-Ref",-0.1913215239,-0.1863838839,-0.2406102839,-0.163304432,-0.396352697,-0.1622233315,0.0841850635,-0.1052701365,-0.1948752515,-0.419495997,-0.271191342,-0.138998652,-0.133177802,-0.117543062,-0.374247147,-0.357473227,-0.081312927,-0.077559402,-0.070614825,-0.1503724455,-0.3751040955,-0.2498235935,-0.2880350191,-0.3878381086,-0.2292304261,-0.3217447031,-0.4352449695,-0.4282614895,-0.420772018,-0.4759159215,-0.3413216715,-0.096366714,-0.235489268,-0.2133181745,-0.0280672895,-0.232078337,1714,"DG_s09",3,3.625,4.797,4.797,12,12,10,10,1.172,"Left",12,12,0,0,0,0,0,0,0,0,0,0,"Equal",2,2,12,10,12,10
"5",2,"POL ROF5-Ref-POL ROF6-Ref",-0.278691004,-0.1247739905,0.3393192095,0.4100984565,0.514383927,0.6844785635,0.6016101635,0.9910544115,1.2465684115,1.3140388965,1.3075042315,1.0968513815,0.7651125815,0.628450363,0.428058263,0.424632723,0.109197903,-0.0502838985,-0.0490737805,-0.347490173,-0.109990083,0.263755502,0.325091259,0.4858976215,0.2450799615,-0.01012083915,-0.10049619565,-0.29590652565,-0.26894689565,-0.127336595,0.1809619015,0.412380715,0.59307074,0.3501727715,0.1334283715,0.251485858,1714,"DG_s09",3,3.625,4.797,4.797,12,12,10,10,1.172,"Left",12,12,0,0,0,0,0,0,0,0,0,0,"Equal",2,2,12,10,12,10
"6",2,"POL LAM5-Ref-POL LAM6-Ref",0.1546705764,-0.0049598294,0.1593888971,0.0449905121,-0.3436744879,-0.5143344821,-0.63001133315,-0.30850583315,-0.1342462807,0.1812282693,0.26036359885,0.30158214885,0.4765379114,0.1096384114,0.1126659534,-0.0074903416,-0.0573652266,0.1025296834,-0.0965413636,-0.2608947836,-0.3858762436,-0.4081475961,-0.3124504461,-0.2958051511,-0.1189345211,-0.0149498496,0.0812626964,0.3268034164,0.3514201964,0.3707843343,0.5377277563,0.1775859563,-0.2353954737,-0.2023951516,-0.0396095196,0.0549756104,1714,"DG_s09",3,3.625,4.797,4.797,12,12,10,10,1.172,"Left",12,12,0,0,0,0,0,0,0,0,0,0,"Equal",2,2,12,10,12,10
"7",2,"POL LAM6-Ref-POL LAM7-Ref",0.37826569005,0.294001425,0.36232197,0.37978682,0.413170625,0.39964979,0.71344418,0.79374609,1.118902325,1.292475674,1.259102124,1.1642703715,0.890811907,0.85102449085,0.47851924335,0.64133840085,0.90842456535,1.4308501175,1.590768625,1.6001255645,1.1026976145,0.3086557645,0.1400532045,-0.05996755,0.05352159,0.42140413,0.38608827,0.41642989,0.533695247,0.380304479,0.613611094,0.780865709,0.903894637,1.003906141,0.904894578,1.145147543,1714,"DG_s09",3,3.625,4.797,4.797,12,12,10,10,1.172,"Left",12,12,0,0,0,0,0,0,0,0,0,0,"Equal",2,2,12,10,12,10
"8",2,"POL LAM3-Ref-POL LAM4-Ref",-0.344887523,-0.1378843389,0.0507426436,0.2191140586,0.2165276286,0.2185967495,0.3614791145,0.4677587795,0.8900640295,1.4503233745,1.0887358495,0.9135987695,0.4665988695,-0.1152552585,-0.1666629485,-0.2865260985,-0.1669436105,-0.1644728455,-0.000987495499999991,0.3039053995,0.1617645165,0.0915101295,-0.003721062,-0.2620326235,-0.1079917535,0.0938413465,0.177430181,0.6347148975,0.6693125665,0.7237406815,0.550705311,0.148594826,0.259275182,0.1459915095,0.2228703865,0.3533318215,1714,"DG_s09",3,3.625,4.797,4.797,12,12,10,10,1.172,"Left",12,12,0,0,0,0,0,0,0,0,0,0,"Equal",2,2,12,10,12,10
"9",2,"POL ROF4-Ref-POL ROF5-Ref",-0.01754712,0.1914309605,-0.224384767,-0.2193181495,-0.39924889945,-0.34254092995,-0.12858229745,-0.00409651745000006,0.3347263825,0.290503537,0.263194768,0.3341475555,0.0110451005,0.553046821,0.653305085,0.904614465,1.15594407,0.46169758,0.2701373065,-0.195734754,-0.313344504,-0.3542473565,-0.165778033,-0.0886554325000001,-0.4779296825,-0.27769271,-0.31080911,-0.3101245,-0.169715525,-0.546431405,-0.969563655,-1.090490155,-1.27175018,-1.004107465,-0.546611715,-0.549890414,1714,"DG_s09",3,3.625,4.797,4.797,12,12,10,10,1.172,"Left",12,12,0,0,0,0,0,0,0,0,0,0,"Equal",2,2,12,10,12,10
"10",2,"POL RPC2-Ref-POL RPC3-Ref",1.2834877445,0.9973849945,0.6227406495,0.4768095285,0.1953564507,-0.1985094378,-0.4100536928,-0.4298063928,-0.620458665,-0.6378389665,-0.32904309083,-0.27218596583,-0.14034711583,0.03392359117,0.0249922445,0.1889058895,0.4342854245,0.3133831875,0.0694795085,-0.1114444015,-0.0917414815,-0.0392290135,0.3497049865,0.7212860765,1.0839127715,1.8617787735,1.6208417735,1.4430401335,0.8028751435,0.3531634935,0.4827815935,0.5916646335,0.9988995235,0.9612738235,0.7393285635,0.6667241415,1714,"DG_s09",3,3.625,4.797,4.797,12,12,10,10,1.172,"Left",12,12,0,0,0,0,0,0,0,0,0,0,"Equal",2,2,12,10,12,10
"11",2,"POL RAM6-Ref-POL RAM7-Ref",0.234220072,0.561034192,0.923085287,0.808630482,0.657825168,0.336912618,0.249760398,0.2533281405,0.2451285318,0.2540346968,0.2329817068,0.1073559793,-0.084516898,-0.061369463,-0.350135748,-0.383746298,-0.1539430305,0.3762557695,1.1071613695,1.9735525695,2.08080308844,1.67108747794,1.16625071644,0.45015288144,0.470561195,0.431345603,1.1319873645,1.6208746995,1.9378524995,2.15666208885,1.27187133885,0.87139782585,0.36238301735,0.245390598,0.4284824955,0.5018217585,1714,"DG_s09",3,3.625,4.797,4.797,12,12,10,10,1.172,"Left",12,12,0,0,0,0,0,0,0,0,0,0,"Equal",2,2,12,10,12,10
"12",2,"POL LAM1-Ref-POL LAM2-Ref",-0.7793133495,-0.2878716495,-0.143590229,-0.074419374,0.381265647,0.326613077,0.3962503565,0.5611501305,0.3798811305,0.3265847055,0.6346366555,1.1699827765,1.7044786765,2.0298673715,2.3624100715,2.1075096065,1.110838766,0.744908766,-0.103620877,-0.372481188,-0.184944365,-0.355440862,-0.265558856,-0.304382485,-0.3887334085,-0.2173452155,-0.0420332435,0.0133264115,-0.0344726745,-0.2957405205,-0.5703110055,-0.70549439835,-0.29943197135,0.30565847865,0.36790821315,0.500302396,1714,"DG_s09",3,3.625,4.797,4.797,12,12,10,10,1.172,"Left",12,12,0,0,0,0,0,0,0,0,0,0,"Equal",2,2,12,10,12,10
"13",2,"POL RPC3-Ref-POL RPC4-Ref",0.40982195156,0.37519280356,0.05873656,-0.13439134765,-0.56383012115,-0.25423447815,-0.14046947815,-0.0466572223,0.1404022812,-0.0524697188,0.0821845962,0.2055707415,0.2150052365,0.3425144865,0.4707544465,0.850648406,1.188429331,1.226477931,1.203442391,0.7685497425,0.6107343625,0.3132550475,0.4237407375,0.3770578845,0.313703466,0.760699431,0.618748071,0.5728753675,0.519456392,0.173144532,-0.145460068,-0.064543536,-0.169525012,-0.375405652,-0.469292142,-0.657953519,1714,"DG_s09",3,3.625,4.797,4.797,12,12,10,10,1.172,"Left",12,12,0,0,0,0,0,0,0,0,0,0,"Equal",2,2,12,10,12,10
"14",2,"POL RAM5-Ref-POL RAM6-Ref",0.436321367,0.500159841,0.6381314235,0.6689920225,0.3399073775,0.1176762515,-0.059237281,-0.19049485,-0.1107282305,-0.0460534605,0.1341225826,0.3292077071,0.2242170376,0.2479538676,0.1545432495,0.342185125,0.431218485,0.638337395,0.86104938,1.53564673,2.16476542,2.0175594255,1.89822066885,1.0842794021,0.8742741521,1.1974397866,1.10380388325,1.12651214965,0.79231630965,0.30167125965,0.23776960965,0.051834425,0.17000457,0.25016626,0.28820566,0.49711764165,1714,"DG_s09",3,3.625,4.797,4.797,12,12,10,10,1.172,"Left",12,12,0,0,0,0,0,0,0,0,0,0,"Equal",2,2,12,10,12,10
"15",2,"POL LAM2-Ref-POL LAM3-Ref",-0.3380225795,-0.4472022245,-0.2780072995,-0.3694333995,-0.141820828,-0.165798303,-0.003746688,0.519918562,0.6549891405,0.5412008805,0.1668732905,0.2208174905,0.2652680905,0.6802603205,1.0856479605,0.554272198,0.271188144,-0.040458301,-0.2902286605,-0.287870298,-0.329073819,-0.276511239,-0.4941352795,-0.3999610295,-0.5383201045,-0.6852201895,-0.5972732585,-0.3831184585,-0.2411400035,0.022835807,0.072880941,-0.168251049,0.036935089,-0.1957979665,-0.2961450715,0.00965961249999997,1714,"DG_s09",3,3.625,4.797,4.797,12,12,10,10,1.172,"Left",12,12,0,0,0,0,0,0,0,0,0,0,"Equal",2,2,12,10,12,10
"16",2,"POL RHP4-Ref-POL RHP5-Ref",0.2178676885,0.083671785,-0.225749525,-0.436174925,-0.610200154,-0.5380039595,-0.442716716,-0.072184016,0.196193345,0.2975120335,0.5540402365,0.435354447,0.374885053,0.0608728815,-0.25804846,-0.3605486395,-0.470715594,-0.446722294,-0.1720609005,0.1428781685,0.1964188895,0.3336943295,0.195379862,-0.24207772575,-0.31842419925,-0.25326721325,-0.33094164425,-0.2400043725,-0.2872400575,0.0677701165,0.7818492665,1.2778631825,1.8859702075,1.6273350075,0.9037355,0.297688331,1714,"DG_s09",3,3.625,4.797,4.797,12,12,10,10,1.172,"Left",12,12,0,0,0,0,0,0,0,0,0,0,"Equal",2,2,12,10,12,10
"17",2,"POL ROF3-Ref-POL ROF4-Ref",-0.3779127105,-0.418452866,-0.4867796995,-0.2209530045,-0.6318576145,-0.8472792805,-0.5590896285,-0.6948355685,-0.4659792685,-0.1618329785,-0.023228205,-0.22744046,-0.47756,-0.482318088,-0.634308238,-0.2331128955,-0.1963754955,-0.4737154475,-0.718682226,-0.7193227135,-0.590825418,-0.4739300075,-0.4081120985,-0.5480550785,-0.209810774,-0.28737625835,-0.47030568885,-0.58766966885,-1.02541321885,-0.933999055,-0.586571852,-0.662304877,-0.688575177,-0.714324567,-0.853618704,-0.7551536695,1714,"DG_s09",3,3.625,4.797,4.797,12,12,10,10,1.172,"Left",12,12,0,0,0,0,0,0,0,0,0,0,"Equal",2,2,12,10,12,10
"18",2,"POL ROF1-Ref-POL ROF2-Ref",0.6712162065,0.8568627115,0.9658739075,0.9737446575,0.487077728,0.344994603,0.566803453,0.6294968005,0.5713332,0.66118528305,0.34311524905,0.20134511555,0.38161350555,0.4420675075,0.7229454115,0.7609956415,0.4694650315,0.4425074915,0.1192501665,0.4034942725,0.6119026125,0.5446491775,0.601768463,0.1634854635,0.1299942905,0.184198614,0.15098655785,0.28065208235,0.20842760535,0.32544507785,0.339741788,0.278619058,0.295201668,0.049336932,0.1306116695,0.00478562449999997,1714,"DG_s09",3,3.625,4.797,4.797,12,12,10,10,1.172,"Left",12,12,0,0,0,0,0,0,0,0,0,0,"Equal",2,2,12,10,12,10
"19",2,"POL RAM2-Ref-POL RAM3-Ref",0.2608688605,0.6393880605,0.7303089835,0.782214395,0.7659037335,0.612807613,0.61142624,0.5378795895,0.461611966,0.8052175865,1.3097571865,1.2490306305,1.0520170155,0.5132511655,-0.1253627845,-0.2678125345,-0.0792048995,0.2662134505,0.9752438005,1.6405712005,1.5272343505,1.4460191555,0.843226438,0.513939688,0.759129803,0.489540533,0.3564129005,0.1900931605,0.0528323045,0.5040365195,1.0667708695,1.2622619145,1.3325677555,1.0231433805,0.8769676555,0.7367074655,1714,"DG_s09",3,3.625,4.797,4.797,12,12,10,10,1.172,"Left",12,12,0,0,0,0,0,0,0,0,0,0,"Equal",2,2,12,10,12,10
"20",2,"POL RHP5-Ref-POL RHP6-Ref",0.266703635,0.576318835,0.507843942,0.591290912,0.293601582,0.309193387,0.4374775335,0.7160644335,0.834499997,0.492967442,0.4780625385,0.2045915165,0.317568883,0.395877683,0.3901370555,0.5216363275,0.5018383725,0.5756266115,0.7240368205,1.0017206205,0.8915973095,0.8740185778,0.7848163213,0.5079358713,0.4902556918,0.6796990845,0.663820676,0.56954890695,0.66809033895,0.40979917395,0.13590625745,0.1540088915,0.0275562,0.174081606,0.297847661,0.51977917055,1714,"DG_s09",3,3.625,4.797,4.797,12,12,10,10,1.172,"Left",12,12,0,0,0,0,0,0,0,0,0,0,"Equal",2,2,12,10,12,10
"21",2,"POL RPC1-Ref-POL RPC2-Ref",0.599463518,0.767007433,0.950652163,0.490754013,0.214694678,0.088862108,0.116304713,0.1397279759,0.2580605179,0.3533055394,0.3155632259,0.176355763,-0.068757829,-0.2388989955,-0.588209237,-0.489501087,-0.336652187,-0.085233437,0.00610712800000002,0.0114873885,0.00835709849999999,0.3882010985,0.534686744,0.5476519335,0.5929718135,0.2595303785,0.318734418,0.270379314,0.4338010115,0.3507662195,0.3016626195,0.7065390235,0.543256239,0.925959116,0.857889511,0.5171371105,1714,"DG_s09",3,3.625,4.797,4.797,12,12,10,10,1.172,"Left",12,12,0,0,0,0,0,0,0,0,0,0,"Equal",2,2,12,10,12,10
"22",2,"POL RAM3-Ref-POL RAM4-Ref",0.144433477,0.442739972,0.342328767,0.35503892095,0.40210341295,0.12978387295,0.46851913295,0.653371749,0.7250056345,0.7405320795,0.4911879095,0.4370388095,0.3563208665,0.2877797665,0.1144285365,-0.0278207735,0.07209209,0.79356719,1.30145904,1.615084965,1.6954426605,1.4599106605,1.1975274605,1.0015932955,0.7615522655,0.4846966585,0.4230132685,0.3208043515,0.46257296,0.594558482,0.635419667,0.63154409345,0.71722634445,0.55473991445,0.37642650345,0.671828094,1714,"DG_s09",3,3.625,4.797,4.797,12,12,10,10,1.172,"Left",12,12,0,0,0,0,0,0,0,0,0,0,"Equal",2,2,12,10,12,10
"23",2,"POL RAM4-Ref-POL RAM5-Ref",0.092786729065,0.046203932065,0.161653577065,0.300112610065,0.27972180565,0.22119346715,0.23084136115,0.13620524465,0.0932406335,0.0839422895,-0.029485906,0.055818024,-0.0510892555,-0.013400337,0.0959150805,0.1565190305,0.4581421855,1.4180774105,1.885858003,2.101366673,2.147932591,1.188402466,0.765029989,0.628934439,0.743785066,0.899587591,1.210181118,1.252651268,1.132628218,1.13371593,0.71306206,0.477834595,0.334626745,0.071473783,0.1372484525,0.11253791915,1714,"DG_s09",3,3.625,4.797,4.797,12,12,10,10,1.172,"Left",12,12,0,0,0,0,0,0,0,0,0,0,"Equal",2,2,12,10,12,10
"24",2,"POL ROF6-Ref-POL ROF7-Ref",-0.1240941725,-0.3885615025,-0.2693349835,-0.26669726585,-0.26575651585,-0.09975737635,-0.00508237435,-0.0236692135,0.076046956,0.8887905165,1.6126674455,1.6660368895,1.24113907,0.468555089,-0.2395365485,-0.4378618285,-0.1990924085,-0.266387852,-0.1050995645,0.0888722405,0.08605047,0.3657432945,0.1154074175,-0.0427443525,-0.259305652,-0.506805594,-0.359648367,-0.2123330715,0.3216824785,0.4902510205,0.5636571705,0.4430774236,0.0248345941,-0.2293983709,-0.4913874069,-0.2185587205,1714,"DG_s09",3,3.625,4.797,4.797,12,12,10,10,1.172,"Left",12,12,0,0,0,0,0,0,0,0,0,0,"Equal",2,2,12,10,12,10
"25",3,"POL LAM6-Ref-POL LAM7-Ref",0.31481232808,0.33574303758,-0.14995986242,-0.17582783042,-0.1631715255,-0.0289473235,0.0149633015,-0.0520272605,-0.1446238885,-0.025903965,0.0373649805,0.121940949,0.2882513129,0.2913457779,0.5389067574,0.4199632839,0.3523425745,0.101107415,-0.09187794825,0.14443101175,0.25800014325,0.27921071425,0.4286725275,0.364362567,0.423545306,0.44610058415,0.301205934,0.2534236995,-0.00314250050000001,0.16169099985,0.08166525,0.037894545,-0.00638090499999999,-0.311330895,-0.284674295,-0.30661115,1715,"DG_s09",5.797,6.422,7.688,7.688,10,10,8,8,1.266,"Left",8,8,0,0,0,0,0,0,0,0,0,0,"10-10",2,2,10,8,10,8
"26",3,"POL ROF2-Ref-POL ROF3-Ref",-0.842429625185,-0.813522933685,-0.961406927685,-0.840780363,-1.079022134,-0.82968160975,-0.79867135975,-1.08450177475,-0.96583139825,-1.0489648145,-0.9934304145,-0.7486648845,-0.91314772205,-1.00552972405,-0.78292701555,-0.77424002255,-0.4905759405,-0.1596766665,-0.1854008725,-0.1613463905,-0.3194089005,-0.5060931165,-0.666561269,-0.625678424,-0.6101212601505,-0.7188805491505,-0.8059053491505,-0.8427873896505,-0.8126731935,-0.8526923475,-0.690087152,-0.6213906065,-0.83023415,-0.711176781,-0.5121395265,-0.3485029815,1715,"DG_s09",5.797,6.422,7.688,7.688,10,10,8,8,1.266,"Left",8,8,0,0,0,0,0,0,0,0,0,0,"10-10",2,2,10,8,10,8
"27",3,"POL LAM5-Ref-POL LAM6-Ref",-0.7818666015,-0.7655177165,-0.4928490555,-0.615384665,-0.78189918,-1.047671465,-1.1984351315,-0.682569549,-0.238532899,-0.1750026,-0.2225482195,-0.6568456335,-0.5915274835,0.2412083175,0.6769651275,0.8016517765,0.4283117875,-0.1932117625,-0.5417525975,-0.7508038325,-0.794920584,-0.677542284,-0.671928018,-0.453889408,-0.4756476875,-0.4569624375,-0.4954569735,-0.7458422335,-0.8888103135,-1.2838887635,-1.3593584085,-1.2460566085,-1.1005870335,-0.8644384785,-0.9654839285,-0.9738436285,1715,"DG_s09",5.797,6.422,7.688,7.688,10,10,8,8,1.266,"Left",8,8,0,0,0,0,0,0,0,0,0,0,"10-10",2,2,10,8,10,8
"28",3,"POL RPC4-Ref-POL RPC5-Ref",-0.2873950395,-0.1460214195,-0.4141453985,-0.6729138835,-0.3874417935,-0.4820576875,-0.5499120875,-0.4478898465,-0.6749034315,-0.6662830415,-0.3263173665,-0.311812605,-0.3254959085,-0.356629803,-0.414820338,-0.4495762255,-0.387171015,-0.3322900765,-0.1810864665,0.0257416185,0.2874690065,0.280239247,0.092348787,-0.077730508,-0.076963758,-0.038611483,-0.0988229575,-0.1755037125,-0.504824426,-0.7696820515,-0.935499417,-0.9382998985,-0.657442885,-0.334109485,0.034198115,0.5965631465,1715,"DG_s09",5.797,6.422,7.688,7.688,10,10,8,8,1.266,"Left",8,8,0,0,0,0,0,0,0,0,0,0,"10-10",2,2,10,8,10,8
"29",3,"POL LAM2-Ref-POL LAM3-Ref",-0.771862646,-1.0922453995,-1.2680741155,-1.2334634905,-1.1715276255,-0.988590822,-0.92340783296,-0.86619554746,-0.83748975346,-1.06064410346,-1.1336607765,-0.955023902,-1.055994126,-0.800403206,-0.6975990135,-0.4619288235,-0.2291515915,-0.193154692,0.0463762154999999,-0.344771742,-0.329834924,-0.480420313,-0.895501764,-0.850443832,-0.366343717,0.00486435249999995,0.08663691685,0.000299742349999965,-0.58608755215,-1.03852529665,-0.951621669,-1.022749319,-0.9589944665,-0.879794697,-0.8521319605,-0.792808753,1715,"DG_s09",5.797,6.422,7.688,7.688,10,10,8,8,1.266,"Left",8,8,0,0,0,0,0,0,0,0,0,0,"10-10",2,2,10,8,10,8
"30",3,"POL RPC5-Ref-POL RPC6-Ref",-0.7177682355,-0.538875072,-0.627698002,-0.5569799115,-0.4909354765,-0.5801275755,-0.5022238905,-0.363959016,-0.3953536825,-0.3180711385,-0.327217944,-0.658613744,-0.8775330825,-1.0161080425,-1.084490012,-1.033543762,-1.040200217,-0.750196577,-0.398924377,0.123856073,0.631475873,0.46261334155,0.25610201205,-0.25750255795,-0.47072840795,-0.532632223185,-0.677598822685,-0.570317122685,-0.896008672685,-1.012108126,-1.023898047,-1.054484157,-0.590155757,-0.365950782,-0.123506882,0.189470448,1715,"DG_s09",5.797,6.422,7.688,7.688,10,10,8,8,1.266,"Left",8,8,0,0,0,0,0,0,0,0,0,0,"10-10",2,2,10,8,10,8
"31",3,"POL RAM2-Ref-POL RAM3-Ref",-0.835387113,-0.816956282,-0.7784004645,-0.7740947645,-0.7864418155,-0.9209909155,-0.737486768,-0.570872098,-0.350668425,0.339854325,2.10312831,3.53029829,3.586770595,3.748337095,2.519626595,1.16491405,0.73733738,-0.17405677,-0.90677863995,-0.86674459495,-0.62281996045,-0.61432546045,-0.4295477135,-0.553945543,-0.6149044575,-0.2383834975,-0.4865140245,-0.663589695,-0.675536154,-0.9787279871,-0.9859361371,-0.8202813741,-0.7043805351,-0.664910857,-0.444327871,-0.404106434,1715,"DG_s09",5.797,6.422,7.688,7.688,10,10,8,8,1.266,"Left",8,8,0,0,0,0,0,0,0,0,0,0,"10-10",2,2,10,8,10,8
"32",3,"POL RHP6-Ref-POL RHP7-Ref",0.1980302605,0.103300959,-0.111242836,-0.1383045805,0.0450961845,0.2082879795,0.6919637795,0.868083814,0.921169395,0.7338628855,0.372361419,0.3702619875,0.1779330115,0.190848279,0.1167058395,-0.1397688455,-0.1109946055,0.136172281,0.678482287,0.90214780105,1.08895726605,1.18682914155,0.81040464705,0.646140883,0.368467093,0.238312013,0.179839995,0.130228445,0.05131601,-0.026602865,-0.0457243375,0.1742687835,0.5479843535,0.306875905,0.2644892355,0.1555622685,1715,"DG_s09",5.797,6.422,7.688,7.688,10,10,8,8,1.266,"Left",8,8,0,0,0,0,0,0,0,0,0,0,"10-10",2,2,10,8,10,8
"33",3,"POL ROF3-Ref-POL ROF4-Ref",0.749999438,0.6973449525,0.4821592825,0.4392634025,0.19667551835,0.60958360385,0.58081442385,0.46968723385,0.30120348,-0.25778962,-0.35439792,-0.33118437,-0.080362189,0.211848161,0.432558721,0.421968471,0.547931673,0.727644673,0.899494263,1.163042223,0.9716090254,0.6996273754,0.7111387754,0.8784371854,1.11421884,1.054558554,0.746539954,0.342260484,0.2191338055,0.20479452815,0.17772962815,0.61957567815,0.46810175165,0.64598759,0.96020444,0.725159375,1715,"DG_s09",5.797,6.422,7.688,7.688,10,10,8,8,1.266,"Left",8,8,0,0,0,0,0,0,0,0,0,0,"10-10",2,2,10,8,10,8
"34",3,"POL RHP4-Ref-POL RHP5-Ref",0.0594111674,0.0240098172,0.3632222077,0.3459226568,0.1166613418,-0.022740473,-0.315603983,-0.096919158,0.198887877,0.200231207,-0.115573083,-0.114946343,-0.2268931515,-0.169891609,0.0260755405,0.1040867005,0.284131669,0.0364968765,0.061866397,-0.152345698,-0.466364743,-0.1352396715,-0.202493508,-0.335738963,-0.10237118,-0.0878348917,-0.0139339497,-0.0444314997,-0.1287297806,-0.3666888854,-0.3656519834,-0.4079507834,-0.1736812605,0.3243550345,0.397247382,0.519334032,1715,"DG_s09",5.797,6.422,7.688,7.688,10,10,8,8,1.266,"Left",8,8,0,0,0,0,0,0,0,0,0,0,"10-10",2,2,10,8,10,8
"35",3,"POL RAM5-Ref-POL RAM6-Ref",-0.4317508294,-0.5732012359,-0.590913186,-0.4620628015,-0.5144057045,-0.5256058395,-0.653369456,-0.7766655932,-0.7320215532,-0.5996217837,-0.4923457137,-0.6186171265,-0.5928819065,-0.634991971,-0.597923146,-0.127747446,0.049824709,0.103189105,-0.08180064,-0.4612021745,-0.613203399,-0.514977055,0.192434995,0.6785656795,0.969327479,0.7940865235,0.272996802,-0.328180348,-0.5274007325,-0.287449172,-0.2970901105,0.0352270395,-0.058919326,-0.30405775,-0.40952889,-0.5886479275,1715,"DG_s09",5.797,6.422,7.688,7.688,10,10,8,8,1.266,"Left",8,8,0,0,0,0,0,0,0,0,0,0,"10-10",2,2,10,8,10,8
"36",3,"POL RAM6-Ref-POL RAM7-Ref",0.8974317395,1.337486886,1.206742343,1.0982686495,0.786245163,0.294433913,0.39173988,0.193669792,0.3136898935,0.7855844435,1.0003307495,1.222174631,1.377913016,1.257286516,1.0564623515,0.940749692,0.605755742,0.291811142,0.0661032065,0.039205466,0.066102446,0.000449896000000005,0.161873296,0.221974518,0.524232288,0.969725788,0.948894363,0.803159741,0.333568141,0.1690673275,0.3129020447,0.3834875447,0.4803701447,0.1674454582,0.136696306,0.472986506,1715,"DG_s09",5.797,6.422,7.688,7.688,10,10,8,8,1.266,"Left",8,8,0,0,0,0,0,0,0,0,0,0,"10-10",2,2,10,8,10,8
"37",3,"POL ROF6-Ref-POL ROF7-Ref",-0.494780825,-0.463274429,-0.291561994,0.054743956,0.1421350435,0.1439423425,0.0036839125,-0.132519509,-0.318165829,-0.230901614,0.328949401,0.5664252225,0.6831153075,0.5059620175,-0.2340139325,-0.6556454825,-0.5321004475,-0.3336107045,-0.130844,-0.0359802655,-0.3540502955,-0.3785116285,-0.234807133,-0.261170463,0.00218463700000004,-0.00955849299999997,-0.069393898,-0.1517017825,-0.3818164825,-0.5419959625,-0.5822490675,-0.2180292875,-0.1050451225,-0.1320949725,-0.3963473125,-0.6774642775,1715,"DG_s09",5.797,6.422,7.688,7.688,10,10,8,8,1.266,"Left",8,8,0,0,0,0,0,0,0,0,0,0,"10-10",2,2,10,8,10,8
"38",3,"POL ROF5-Ref-POL ROF6-Ref",-0.4233650181,-0.3759845696,-0.5722577496,-0.7091504421,-0.2854638721,-0.2880801156,-0.3707911656,-0.4721178756,-0.7672815618,-0.5862559418,-0.1497443318,0.3691245682,0.1547976344,-0.0543693721,-0.4408688321,-0.8862043821,-0.8121000271,-0.6507909156,-0.6499097156,-0.5165844156,-0.6368438641,-0.7135091231,-0.7166221731,-0.9099949731,-0.9682747096,-1.1368713106,-0.7501244106,-0.3062627606,0.0312138164,-0.0803941436,-0.3943818436,-0.6294914936,-0.7689402456,-0.5107476656,-0.4019351406,-0.5234826241,1715,"DG_s09",5.797,6.422,7.688,7.688,10,10,8,8,1.266,"Left",8,8,0,0,0,0,0,0,0,0,0,0,"10-10",2,2,10,8,10,8
"39",3,"POL RPC2-Ref-POL RPC3-Ref",0.9735346543,1.15012422,0.9817548045,0.8717419195,0.721824595,0.464407945,0.181052235,-0.04779148,-0.1875834055,-0.2168072055,0.0339451544,0.0743889054,-0.0475903446,-0.0497373906,0.1153305495,0.2243805685,0.31832066835,0.47265075085,0.34818971835,0.09060509835,0.0828485485,-0.097895638,-0.0342680655,0.0936997985,0.180150704,0.432477074,0.292741574,0.22493481,0.2662625375,0.2904475875,0.28835777,0.342215378,0.400062025,0.700745505,1.1514017325,1.3677046745,1715,"DG_s09",5.797,6.422,7.688,7.688,10,10,8,8,1.266,"Left",8,8,0,0,0,0,0,0,0,0,0,0,"10-10",2,2,10,8,10,8
"40",3,"POL RAM3-Ref-POL RAM4-Ref",-0.04829854305,0.15951747295,0.22362578645,0.27792497395,0.13797392395,-0.10658621705,-0.29297538855,-0.23596337355,-0.17284446875,-0.10693035875,0.92700369925,2.01228660925,2.30666693295,2.97140742295,2.10185022795,0.94423024795,0.68021260945,0.38638037595,0.50338012095,0.74215885095,0.95310201095,0.70739274445,0.75028984445,0.68044023945,0.66806155765,0.81104720765,0.55586938905,0.60295533455,0.97870501635,0.70263047635,1.05027547725,1.44893703675,0.93956604775,1.40238923775,1.20479555545,0.53618140545,1715,"DG_s09",5.797,6.422,7.688,7.688,10,10,8,8,1.266,"Left",8,8,0,0,0,0,0,0,0,0,0,0,"10-10",2,2,10,8,10,8
"41",3,"POL RHP5-Ref-POL RHP6-Ref",0.314904409,0.379420912,0.4670918875,0.33325031,0.27481895,0.636849737,0.887128787,1.1403929585,1.372347693,1.112140123,0.747640722,0.6696203775,1.008225303,1.0891938605,0.9047314115,0.618901606,0.065095106,-0.1034374215,0.1067036005,0.1960049685,0.2093213185,0.2166783185,0.0231568464999999,0.0372260784999999,0.00615487849999996,0.0526058285,0.2028419285,0.2163012285,0.2658982785,0.2812380285,0.2660150785,0.1602004885,0.325612101,0.394620221,0.708992221,0.968384411,1715,"DG_s09",5.797,6.422,7.688,7.688,10,10,8,8,1.266,"Left",8,8,0,0,0,0,0,0,0,0,0,0,"10-10",2,2,10,8,10,8
"42",3,"POL ROF4-Ref-POL ROF5-Ref",0.10271658,0.043139305,-0.128586566,-0.3721785685,-0.38498941,-0.07283786,-0.03493412,0.0346108,0.306976685,0.494866735,0.569938565,0.638066122,0.213722822,-0.368301978,-0.529514348,-0.62988951,-0.76063516,-0.638455825,-0.441923122,-0.549062507,-0.502783957,-0.428086687,-0.4662285096,-0.2447091011,-0.1240102211,-0.2080018876,-0.2103869535,-0.33282304,-0.273497208,-0.3938542465,-0.3856922695,-0.3759655315,-0.2939503757,-0.2037776557,-0.0354768572,-0.0761245817,1715,"DG_s09",5.797,6.422,7.688,7.688,10,10,8,8,1.266,"Left",8,8,0,0,0,0,0,0,0,0,0,0,"10-10",2,2,10,8,10,8
"43",3,"POL RPC1-Ref-POL RPC2-Ref",-0.0613647105,-0.314709395,-0.67805396,-0.5586363175,-0.2148952425,-0.018525017,-0.032615802,-0.072648378,-0.341479053,-0.3565456076,0.0504383424,0.1527644799,0.1574033799,0.259291588,-0.095602912,-0.412578011,-0.3079296855,-0.1674291895,0.1431922105,0.3396690355,0.34561352,0.363723795,0.3271409495,0.3404228545,0.41711448835,-0.01766866165,-0.40136576615,-0.57238054615,-0.79710929,-0.476000735,-0.348811947,-0.169745917,0.291518033,0.2471835185,0.1666411305,0.114150089,1715,"DG_s09",5.797,6.422,7.688,7.688,10,10,8,8,1.266,"Left",8,8,0,0,0,0,0,0,0,0,0,0,"10-10",2,2,10,8,10,8
"44",3,"POL LAM1-Ref-POL LAM2-Ref",-0.0126129505,-0.1312308615,-0.111517318,-0.0416161865,0.0119763895,0.1727417425,-0.014804428,-0.158291499,-0.183878939,-0.1418444215,0.2609596285,0.3110448035,0.0061508435,-0.0315574815,-0.2978306715,-0.3710676465,-0.211448242,-0.2957596225,-0.2731410325,-0.2336544825,-0.325807237,-0.24273507608,-0.24375532608,0.15147892392,0.53780062392,0.8163438535,1.0067535485,0.9460023935,0.9120038335,0.5364085385,0.5234875135,0.3994848595,0.1014240645,-0.0016139905,-0.065414381,-0.1372492455,1715,"DG_s09",5.797,6.422,7.688,7.688,10,10,8,8,1.266,"Left",8,8,0,0,0,0,0,0,0,0,0,0,"10-10",2,2,10,8,10,8
"45",3,"POL LAM3-Ref-POL LAM4-Ref",-1.060785529,-1.013743079,-0.883077679,-0.883084304,-0.911590924,-0.840672559,-0.578441159,-0.481436997,-0.161254287,-0.261403252,-0.642613102,-0.6245086825,-0.4738807425,0.00407500750000001,0.2504469875,0.352548806,0.359333756,0.162474061,0.1421954805,-0.07654483915,-0.61599158915,-0.64856249015,-0.61067031965,-0.2829332,0.15192315,0.2707856505,0.151724965,0.194942815,0.022552768,-0.170341169,-0.1104419235,-0.275489849,-0.165498802,0.00379503050000002,-0.1165769805,-0.326985955,1715,"DG_s09",5.797,6.422,7.688,7.688,10,10,8,8,1.266,"Left",8,8,0,0,0,0,0,0,0,0,0,0,"10-10",2,2,10,8,10,8
"46",3,"POL ROF1-Ref-POL ROF2-Ref",-0.2061320781,-0.3105517251,0.0714564505,0.2765488155,0.14441906,0.111325695,0.079347345,0.088091605,0.2253534,0.558187845,0.503367195,0.485481949,0.451704164,0.119123462,0.089124312,0.1294688135,0.1706897535,0.294881515,0.1193114495,0.172535519,0.305397622,0.40564907,0.3234807005,0.0689267005,-0.1358378525,-0.11277233,-0.10642479,0.00352046,-0.00953278999999999,-0.29126987,-0.22076875,-0.28522795,-0.200002835,-0.1447301965,-0.3931092715,-0.5958730715,1715,"DG_s09",5.797,6.422,7.688,7.688,10,10,8,8,1.266,"Left",8,8,0,0,0,0,0,0,0,0,0,0,"10-10",2,2,10,8,10,8
"47",3,"POL RPC3-Ref-POL RPC4-Ref",-0.1875161314,-0.4968827464,-0.6102141004,-0.4347783759,-0.3953499759,-0.3493673759,-0.3032960594,-0.1445081339,-0.0918466064,-0.1956430564,-0.2232043494,-0.3178021694,-0.2018405559,0.0189046976,0.1225273291,-0.1272890509,-0.2156157469,-0.1429474154,-0.1980610869,-0.2955242869,-0.3660158819,-0.6100873169,-0.4461194739,0.1253996261,0.3294428861,0.4947859401,0.3039052501,0.1589471801,0.1577970486,0.3588556796,0.5081063246,0.4401859746,0.5243631461,0.3376671636,0.7435024136,1.0041022336,1715,"DG_s09",5.797,6.422,7.688,7.688,10,10,8,8,1.266,"Left",8,8,0,0,0,0,0,0,0,0,0,0,"10-10",2,2,10,8,10,8
"48",3,"POL RAM4-Ref-POL RAM5-Ref",0.582477672,0.716047642,0.7864238115,0.4860593095,0.193863968,-0.061080482,-0.172978192,-0.32768594,-0.3030602365,-0.0450911965,0.07797302135,0.28588300135,0.41460733685,0.20132996185,0.1055267835,0.4144706535,0.586141756,1.142203291,1.155702802,0.576129502,0.191544707,-0.055643843,0.4528492315,1.3746442815,1.9973907765,2.0082918765,1.5693954415,0.7631205495,0.2972727495,0.190803741,0.255018651,0.620776943,0.537121023,0.483630544,0.443689883,0.366405833,1715,"DG_s09",5.797,6.422,7.688,7.688,10,10,8,8,1.266,"Left",8,8,0,0,0,0,0,0,0,0,0,0,"10-10",2,2,10,8,10,8
"49",4,"POL ROF2-Ref-POL ROF3-Ref",-0.3889202298,-0.3416794363,-0.4305540513,-0.6156561283,-0.6773341728,-0.2851429033,-0.1671963883,-0.2876018113,-0.4012661903,-0.5065658903,-0.2076532553,-0.1013740313,-0.2342085078,-0.439528305125,-0.851979870125,-0.956962694125,-1.016835494125,-1.2012054168,-0.7667465018,-0.5562824763,-0.4042165993,-0.2944509248,-0.7657247248,-1.0321594503,-1.1481062273,-1.2666433318,-1.0667851768,-0.8642613033,-0.5540325533,-0.1943347988,-0.3178926703,-0.3036752238,-0.7498623738,-1.0826007283,-1.0393599343,-1.1284319393,1716,"DG_s09",8.688,9.313,10.234,10.234,28,4,10,10,0.921,"Left",28,4,24,24,0,0,0,-24,0,-24,24,24,"Advent",18,-6,28,10,4,10
"50",4,"POL RAM4-Ref-POL RAM5-Ref",0.68276714,0.18829514,0.25234795,-0.25451746,-0.242844531,-0.339788516,-0.485323715,-0.4363817455,-0.5476411095,-0.7331414745,-0.9168307755,-0.738046673,-0.4458632885,-0.3726503984,-0.0762470159,0.0831459120999999,-0.1122923874,0.1319133725,-0.0216751000000001,-0.37966534,-0.49297797,-0.7344863405,-0.6026923505,-0.3631792005,-0.1252322005,-0.0440491590000001,-0.175953514,-0.538552314,-0.912420714,-1.188126935,-1.1722286165,-1.0142783385,-0.9836057885,-0.9391838385,-1.074018602,-0.98971609205,1716,"DG_s09",8.688,9.313,10.234,10.234,28,4,10,10,0.921,"Left",28,4,24,24,0,0,0,-24,0,-24,24,24,"Advent",18,-6,28,10,4,10
"51",4,"POL ROF5-Ref-POL ROF6-Ref",0.10575065805,0.19938816455,0.00395716455,-0.01361234545,-0.18976896995,-0.32524853845,-0.29590121345,-0.29210786345,-0.16224927995,-0.05217905165,0.13531513035,0.20019966035,0.01054462685,-0.00600463095000001,0.24504418705,0.27168507805,0.74927867805,1.10440585755,0.72811841355,0.80318811755,0.63433430755,0.48452265755,0.40253758055,0.23041480555,0.070166012,-0.189677828,-0.009653677,0.030577473,0.13728339155,0.10551582505,0.22058967405,0.69161717405,0.99675130905,1.01259485055,0.99464274155,0.93523694155,1716,"DG_s09",8.688,9.313,10.234,10.234,28,4,10,10,0.921,"Left",28,4,24,24,0,0,0,-24,0,-24,24,24,"Advent",18,-6,28,10,4,10
"52",4,"POL LAM5-Ref-POL LAM6-Ref",0.414036016,-0.042410884,-0.423009974,-0.520008239,-0.2281383575,-0.1411969075,-0.1114615325,0.2935489275,0.4157482,0.47717951,0.4397488299,0.0253234584,-0.0777196206,-0.0361279856,0.4252759595,0.812228581,0.61960942645,0.56786163145,0.126024056545,-0.237360998455,-0.267378968905,-0.141203142905,0.096443332,0.0944858775,0.1129864225,0.0689928375,-0.2567727125,-0.09444094375,0.07489576935,0.22207567835,0.2937558131,0.26965633385,0.03081457575,-0.26513277425,-0.2060201249,-0.4218255649,1716,"DG_s09",8.688,9.313,10.234,10.234,28,4,10,10,0.921,"Left",28,4,24,24,0,0,0,-24,0,-24,24,24,"Advent",18,-6,28,10,4,10
"53",4,"POL ROF6-Ref-POL ROF7-Ref",-0.0612357785,-0.174220028,-0.3322491145,-0.460975438,-0.1883381005,0.120278638,0.266007559812,0.147390828312,0.176800336312,0.149404697312,0.3727323005,0.473629835,0.28291661725,0.24245787275,0.18094264775,0.28723429125,0.611140951,0.571804041,0.52897912,0.4095089845,0.060930379,-0.021467216,-0.145129651,-0.2214362685,-0.340574678,-0.166234856,-0.1146395495,-0.1057456695,-0.0598367545,-0.2139883765,-0.322349327,-0.258576827,-0.348054527,-0.418049077,-0.446390377,-0.4601579725,1716,"DG_s09",8.688,9.313,10.234,10.234,28,4,10,10,0.921,"Left",28,4,24,24,0,0,0,-24,0,-24,24,24,"Advent",18,-6,28,10,4,10
"54",4,"POL RHP6-Ref-POL RHP7-Ref",0.08102259815,0.26405053765,0.46237520765,0.54673506265,0.7132639975,0.807325726,0.467421876,0.112177326,-0.234547124,-0.4911645935,-0.2545267715,-0.0341394815,-0.1293978815,-0.2243405815,-0.294704779,-0.436125169,-0.347568269,-0.244914169,-0.3767812435,-0.4287238935,-0.349253692,-0.171479492,0.128703908,0.278029456,0.476629012,0.843300062,0.89228457225,0.83235711425,0.94941865675,0.55541135425,0.4150300465,0.572867476,0.330380261,0.3921449035,0.3459296615,0.374318107,1716,"DG_s09",8.688,9.313,10.234,10.234,28,4,10,10,0.921,"Left",28,4,24,24,0,0,0,-24,0,-24,24,24,"Advent",18,-6,28,10,4,10
"55",4,"POL RPC1-Ref-POL RPC2-Ref",-0.194421405,-0.272092205,-0.346212735,-0.2125023835,-0.0300078335,0.1849664665,0.3958801365,0.264004164,0.125865131,0.325830431,0.123749081,0.0973819865,-0.0422706805,-0.3453327975,0.0038642025,-0.0034806655,0.1094026745,0.242939085,-0.167629115,-0.181668,-0.220573335,-0.1798261785,0.2073780715,0.2284665415,0.1898473865,-0.0559129105,-0.1539422105,-0.1058513655,-0.090954284,-0.0727314308,-0.3899316808,-0.5886109208,-0.5336456503,-0.340214165,-0.2575925675,-0.0784770745,1716,"DG_s09",8.688,9.313,10.234,10.234,28,4,10,10,0.921,"Left",28,4,24,24,0,0,0,-24,0,-24,24,24,"Advent",18,-6,28,10,4,10
"56",4,"POL LAM1-Ref-POL LAM2-Ref",0.875503717,0.733753104,0.667832579,1.072895379,1.0856948715,1.037727956,1.048454921,1.036526521,1.1294749765,1.4351238,1.30572908,1.012543775,0.831009588,0.480515188,0.362931203,0.315219258,0.311967695,0.277831445,0.597475362,1.119231312,1.155944602,1.466814302,1.602997085,1.2652365085,1.2238435255,1.2758461755,0.95741001,0.9338472415,0.979659585,0.85996084,1.032775335,0.97930059,1.0315295775,0.930353258485,1.167317128985,1.444971638985,1716,"DG_s09",8.688,9.313,10.234,10.234,28,4,10,10,0.921,"Left",28,4,24,24,0,0,0,-24,0,-24,24,24,"Advent",18,-6,28,10,4,10
"57",4,"POL RAM5-Ref-POL RAM6-Ref",-0.5905995095,-0.9053623495,-0.57753698,-1.139914805,-1.324739065,-1.641252995,-1.888156363,-1.836035863,-1.740830773,-1.828140053,-2.131028935,-2.095153298,-1.954675573,-1.924098973,-1.677483395,-1.513871257,-1.491355572,-1.180735072,-1.223019893,-1.191768393,-1.271746243,-1.603377478,-1.602369825,-1.604537665,-1.63064721,-1.624220725,-1.667388585,-1.950407795,-2.08047215,-1.9782345475,-1.7255392975,-1.4839442975,-1.395222298,-1.404930815,-1.468464165,-1.429099165,1716,"DG_s09",8.688,9.313,10.234,10.234,28,4,10,10,0.921,"Left",28,4,24,24,0,0,0,-24,0,-24,24,24,"Advent",18,-6,28,10,4,10
"58",4,"POL LAM6-Ref-POL LAM7-Ref",-0.1267290525,-0.249635548,-0.464214923,-0.4135512015,-0.266262219,-0.0971834315,0.0440439685,0.0194299735,-0.132014059,-0.2255268085,-0.4146405085,-0.433963945,-0.4088748565,-0.509646069,-0.223381769,-0.2572598425,-0.26035822,-0.1752145755,-0.4405886255,-0.5186954155,-0.549923084,-0.4178961285,-0.088613719,0.144272336,0.2919847878,0.3595896878,0.3350509783,0.3916935733,0.4635285225,0.265215884,0.029065434,-0.1555849615,-0.2800716745,-0.186632259,-0.16178489395,-0.23291349845,1716,"DG_s09",8.688,9.313,10.234,10.234,28,4,10,10,0.921,"Left",28,4,24,24,0,0,0,-24,0,-24,24,24,"Advent",18,-6,28,10,4,10
"59",4,"POL ROF3-Ref-POL ROF4-Ref",-0.08793419345,-0.53466877345,-0.62693854745,-0.68846963645,-0.42979322645,-0.2827611027,-0.3740576307,-0.2990796092,-0.4105064842,-0.29563262795,-0.09920296595,0.06048833755,-0.12933299745,-0.30355296145,-0.47226530695,-0.49861066345,-0.50836801345,-0.48982069945,-0.07892060395,0.19058262755,0.81713912755,1.01208666555,0.42087606555,0.17148831655,-0.39548447845,-0.60798152045,-0.68686502045,-0.82842590145,-0.52565285645,-0.44653105745,-0.25971089645,-0.19868193545,-0.27847460545,-0.42485719045,-0.26530105645,-0.39492809745,1716,"DG_s09",8.688,9.313,10.234,10.234,28,4,10,10,0.921,"Left",28,4,24,24,0,0,0,-24,0,-24,24,24,"Advent",18,-6,28,10,4,10
"60",4,"POL ROF4-Ref-POL ROF5-Ref",2.21272932125,2.10390382125,2.12134245125,1.44230384125,0.62266375125,0.25387540125,-0.06004914375,-0.01859230375,-0.13035086375,-0.07384280225,0.08643567775,0.05308820075,0.25296880575,0.24957440675,0.41547743675,0.42052386875,0.41168178625,0.64755102375,0.62739582875,0.58300999375,0.37680737125,0.03622332125,-0.46500829875,-0.56930014875,-0.45510609025,-0.08886874025,0.11670483675,0.23564428675,0.25092411325,0.06029962825,0.04665217475,0.41532932475,0.46443385975,0.29663871225,0.59854058875,0.52337948875,1716,"DG_s09",8.688,9.313,10.234,10.234,28,4,10,10,0.921,"Left",28,4,24,24,0,0,0,-24,0,-24,24,24,"Advent",18,-6,28,10,4,10
"61",4,"POL LAM3-Ref-POL LAM4-Ref",-0.2028779805,-0.320476155,-0.1669274345,-0.3540017295,-0.3060126345,-0.35880915855,-0.35741449905,-0.41894391905,-0.32309319255,-0.1156361635,-0.2575676585,-0.2077757485,-0.2618522305,-0.3767337305,-0.3564720355,-0.1599720855,0.33831987,0.331157464,0.167380019,0.141157902,-0.123333048,-0.215099352,0.059832108,-0.0653627525,-0.3589464025,-0.4433167755,-0.3342953905,-0.313360418,-0.031789893,-0.013758235,-0.213721735,-0.03888988,-0.274311955,-0.1429125085,-0.3714756085,-0.540122646,1716,"DG_s09",8.688,9.313,10.234,10.234,28,4,10,10,0.921,"Left",28,4,24,24,0,0,0,-24,0,-24,24,24,"Advent",18,-6,28,10,4,10
"62",4,"POL RHP4-Ref-POL RHP5-Ref",-0.404399207,-0.1969900945,-0.130213703,-0.00499347,0.083388185,-0.052655884,-0.005777902,0.028850995,0.38404888,0.2044476275,0.147043252,0.01101393875,-0.19087436125,-0.01115293875,-0.17002454375,-0.4784986275,-0.6939202775,-0.7223663095,-0.6460732595,-0.3137729345,0.0809445655,-0.05543313,-0.07403808,-0.347458305,-0.920725055,-1.02738758,-1.04452423,-0.97332603,-0.67953984,-0.300868315,-0.249416665,-0.155788565,-0.378899405,-0.64268933,-0.407042965,-0.3624403275,1716,"DG_s09",8.688,9.313,10.234,10.234,28,4,10,10,0.921,"Left",28,4,24,24,0,0,0,-24,0,-24,24,24,"Advent",18,-6,28,10,4,10
"63",4,"POL RPC5-Ref-POL RPC6-Ref",-0.434869381,-0.3811904815,-0.459475133,-0.448639005,0.0618027945,-0.13160937,-0.00323972559999997,0.0560114139000001,-0.3462813011,-0.1161492256,-0.3429180675,-0.583918917,-0.737198652,-1.0968816625,-0.9987109325,-0.9680366015,-0.6708229515,-0.4938597515,-0.4555415015,-0.0837370325,0.0265492675000001,0.1580737875,0.0433962575000001,0.0519433615,-0.0857819885,0.0225821415,0.1235166615,-0.3571775925,-0.4495158125,-0.4605752125,-0.4625493255,-0.2771573055,-0.4458019805,-0.4032139305,-0.2203293375,-0.152735193,1716,"DG_s09",8.688,9.313,10.234,10.234,28,4,10,10,0.921,"Left",28,4,24,24,0,0,0,-24,0,-24,24,24,"Advent",18,-6,28,10,4,10
"64",4,"POL RPC4-Ref-POL RPC5-Ref",-0.13543942,-0.114024909,-0.179800261,-0.40876830555,0.04467498095,0.10804870995,0.05713524395,-0.1364740115,-0.5380153465,-0.426691968,-0.485535068,-0.3952433275,-0.357750726,-0.5800541645,-0.6218166145,-0.629047805,-0.67522378455,-0.48564762955,-0.30663462855,-0.06085902855,0.2693846345,0.18506066905,-0.00531023194999999,0.06212597055,0.10382957055,0.411082781,0.793907881,0.6715301275,0.2356303275,-0.0738074975,-0.3273651975,-0.4797481965,-0.2603782715,0.3451486535,0.490324971,0.62670188395,1716,"DG_s09",8.688,9.313,10.234,10.234,28,4,10,10,0.921,"Left",28,4,24,24,0,0,0,-24,0,-24,24,24,"Advent",18,-6,28,10,4,10
"65",4,"POL RPC3-Ref-POL RPC4-Ref",0.91890438085,0.696820566,0.4603746135,0.1111527235,0.3560208035,0.569170428,0.833356863,1.052863755,0.623986025,0.3283868505,-0.0547568945,-0.228545709,-0.10934847615,0.05458483735,0.63561283735,0.58110846985,0.520140032,0.8421468185,0.4629577635,0.4871758485,0.4684796635,0.3664543135,0.4214471535,0.5043218345,0.4989693465,0.6945792465,0.7368382615,0.5432859255,0.6045820595,0.1566744095,0.0729029055,0.3668060805,0.4500169105,0.9919532605,1.1568240345,1.2021207585,1716,"DG_s09",8.688,9.313,10.234,10.234,28,4,10,10,0.921,"Left",28,4,24,24,0,0,0,-24,0,-24,24,24,"Advent",18,-6,28,10,4,10
"66",4,"POL RAM6-Ref-POL RAM7-Ref",-0.690991932,-0.742950197,-0.434012747,-0.329478791,-0.192184258,-0.018527318,-0.1132679185,-0.2491671245,-0.3678251475,-0.4466263585,-0.4483643565,-0.1240336565,-0.0213823335,0.0786542175,0.225387316,-0.00754126899999996,-0.244299269,-0.471592319,-0.844160019,-0.706063137,-0.675641849,-0.5440325565,-0.2000527065,-0.1137907035,0.2572089085,0.463560816,0.347829646,0.139193196,-0.300252854,-0.4520691065,-0.638303376,-0.783741076,-0.747609976,-0.8685099535,-0.714414670095,-0.639890220095,1716,"DG_s09",8.688,9.313,10.234,10.234,28,4,10,10,0.921,"Left",28,4,24,24,0,0,0,-24,0,-24,24,24,"Advent",18,-6,28,10,4,10
"67",4,"POL RAM3-Ref-POL RAM4-Ref",-0.0398348319,-0.8416847819,-1.0690749369,-1.2852171389,-1.15003775245,-0.94105840215,-0.73598701965,-0.53292721515,-0.6013022066,-0.5133461299,-0.4588105724,-0.5221670334,-0.1926705769,-0.1970446939,0.0067265956,0.3452301786,0.1375767711,0.1476555131,-0.2529409164,-0.5831647729,-0.7706116154,-0.9237364674,-0.9108600174,-0.7246205389,-0.2272331889,0.1872330611,0.6515269611,0.6581491126,0.5151782126,0.5498476126,0.2924849176,-0.0679682324000001,-0.3684351324,-0.7606851974,-0.9543210524,-0.8665061614,1716,"DG_s09",8.688,9.313,10.234,10.234,28,4,10,10,0.921,"Left",28,4,24,24,0,0,0,-24,0,-24,24,24,"Advent",18,-6,28,10,4,10
"68",4,"POL RAM2-Ref-POL RAM3-Ref",-0.2681884099,-0.5337209049,-0.6251000325,-0.48955733415,-0.47358992965,-0.52577215965,-0.40735311465,-0.440405663,-0.48785203,-0.1816621,0.017864505,0.136143929,0.1899110415,0.03631564,0.03075459,-0.032672589,0.033490609095,0.400982810595,0.526874245595,0.377675600595,0.3674152625,0.1185405865,-0.1349256135,0.3165365865,0.8472042765,0.761401646,0.948949861,0.672803309,0.00899615899999999,-0.095478624,-0.197143149,-0.029736907,0.016196544,0.00776062849999999,-0.2310011465,-0.4578222895,1716,"DG_s09",8.688,9.313,10.234,10.234,28,4,10,10,0.921,"Left",28,4,24,24,0,0,0,-24,0,-24,24,24,"Advent",18,-6,28,10,4,10
"69",4,"POL RPC2-Ref-POL RPC3-Ref",-0.100705189,-0.470155829,-0.630515258,-0.386474318,-0.357178729,-0.136667189,-0.0272591595,-0.3401121095,-0.4420123045,-0.5742711495,-0.84104947,-0.781135388,-0.733966836,-0.892418886,-0.64518207,-0.584666163,-0.652373058,-0.644503558,-0.843127874,-1.047805213,-0.98727875,-0.940431885,-0.7601765605,-0.5682968925,-0.2666828625,-0.1250754025,-0.29954485715,-0.16859212515,-0.42344676515,-0.58983934015,-0.51470526,-0.75430156,-0.95137662,-0.72680984,-0.59858914,-0.5447940315,1716,"DG_s09",8.688,9.313,10.234,10.234,28,4,10,10,0.921,"Left",28,4,24,24,0,0,0,-24,0,-24,24,24,"Advent",18,-6,28,10,4,10
"70",4,"POL ROF1-Ref-POL ROF2-Ref",0.065717068,0.0566793925,-0.02619353165,-0.04007904165,0.01839352835,0.04298952985,0.0651123,-0.048606098,-0.1489061785,-0.2800339535,-0.2426357335,-0.0729024855,-0.1980140585,0.00733874649999999,0.1414165665,-0.0641867965,0.0360792375,-0.1004300175,-0.24664002,0.061977243,0.3281955075,0.407573814,0.5117319115,0.4081971615,0.0796789165,0.00302658,-0.1810365385,-0.395276217345,-0.024341667345,0.085237094155,0.108672942655,-0.0234531785,-0.4005935885,-0.16063627,-0.05789189,0.02285476,1716,"DG_s09",8.688,9.313,10.234,10.234,28,4,10,10,0.921,"Left",28,4,24,24,0,0,0,-24,0,-24,24,24,"Advent",18,-6,28,10,4,10
"71",4,"POL RHP5-Ref-POL RHP6-Ref",-0.2647798235,-0.2588330285,0.105681908,0.267835084,0.1328761075,0.1155677625,-0.1102066895,-0.0813232155,0.1036936165,0.0919812665,-0.024977618,-0.163805968,-0.27707425,-0.2683392,-0.23883133,-0.2028748525,-0.3027719525,-0.3435457525,-0.1523972745,-0.0553666085,0.202450349,0.464633289,0.278657141,0.0742824975,-0.09659031,-0.174999374,0.246942276,0.300811896,0.237800871,-0.015334255,-0.466104455,-0.46043732,-0.3389602975,-0.1982167085,-0.07687091,-0.02633449,1716,"DG_s09",8.688,9.313,10.234,10.234,28,4,10,10,0.921,"Left",28,4,24,24,0,0,0,-24,0,-24,24,24,"Advent",18,-6,28,10,4,10
"72",4,"POL LAM2-Ref-POL LAM3-Ref",-0.0730617495,0.00844590049999999,0.2789403155,0.142938716,0.164139216,0.00223458300000001,-0.245011922,-0.2931783025,-0.5778741635,-0.4466034805,-0.415412016,-0.3472673,-0.3557613575,-0.5349762075,-0.574205092,-0.569937443,-0.7080889635,-0.6304642005,-0.6337760505,-0.5910790375,-0.6579230985,-0.6029520145,-0.4582518345,-0.446563446,-0.066085846,-0.0778699875,-0.1370215275,-0.151811069,-0.112889869,0.2233809255,0.9947176055,1.7993365805,1.686648063,1.2973458565,0.8776239065,0.0622704765,1716,"DG_s09",8.688,9.313,10.234,10.234,28,4,10,10,0.921,"Left",28,4,24,24,0,0,0,-24,0,-24,24,24,"Advent",18,-6,28,10,4,10
"73",5,"POL ROF1-Ref-POL ROF2-Ref",0.430781366,0.3078129535,0.380698868,0.789103968,0.852303863,0.8217165505,1.037255343,0.910904643,1.096916393,1.317689728,1.034080928,0.650223378,0.18945548,0.039171835,-0.041421215,0.0712300850000001,0.272884543,0.849489973,1.455564573,1.544426409,1.2770857505,0.7043920855,0.4849584865,0.4939909225,0.915688621,1.010788181,0.788965295,0.810125139,0.6442509275,0.5478842725,0.591209849,0.810536753,0.675602574615,0.660044969615,0.898539684615,0.884470644615,1717,"DG_s09",11.234,11.844,12.781,12.781,22,6,10,10,0.937,"Right",22,6,16,16,0,0,0,-16,0,-16,16,16,"Advent",12,-4,10,22,10,6
"74",5,"POL RAM6-Ref-POL RAM7-Ref",-0.4629091116,-0.1915617266,-0.10471323985,-0.10964575385,-0.080169835,0.034965665,0.207879205,0.324494989,0.217934749,0.069969809,-0.030238091,-0.048767582,-0.00386741200000001,0.135295928,0.433443728,0.915374869,1.197490989,1.217315389,0.771106989,0.230304182,-0.202964868,-0.372527183,-0.3247477335,-0.4895904265,-0.5408480265,-0.7762324615,-0.986682561,-0.918271111,-0.7491998395,-0.6759216125,-0.601576762,-0.6485665415,-0.682923913,-0.660876465,-0.8064460205,-0.7316203103,1717,"DG_s09",11.234,11.844,12.781,12.781,22,6,10,10,0.937,"Right",22,6,16,16,0,0,0,-16,0,-16,16,16,"Advent",12,-4,10,22,10,6
"75",5,"POL RPC4-Ref-POL RPC5-Ref",-0.5698154615,-1.0333143115,-1.1034777115,-1.01505166,-0.930441715,-0.6910366915,-0.8890524845,-1.1975511645,-1.3448778595,-1.5104204725,-1.2929349795,-1.1553998095,-0.914377374,-0.9597343045,-1.02903611979,-0.73236498979,-0.89673045029,-0.69274498279,-0.5939161175,-0.7847158875,-0.6559017225,-0.620258195,-0.697718913,-0.823181665,-0.558680255,-0.46299728,-0.3775422595,-0.328821692,-0.449167742,-0.712333217,-0.7541282105,-0.398587956,-0.5107736955,-0.6540086705,-0.9350807295,-1.3935422295,1717,"DG_s09",11.234,11.844,12.781,12.781,22,6,10,10,0.937,"Right",22,6,16,16,0,0,0,-16,0,-16,16,16,"Advent",12,-4,10,22,10,6
"76",5,"POL RAM3-Ref-POL RAM4-Ref",0.14006783105,0.26860081285,0.51758355885,0.4945615425,0.65455989014,0.46229568314,0.17211573714,0.02389878714,-0.1899333455,-0.229452556,0.029742344,0.147905744,0.178983844,0.1702719195,0.2508869695,0.6621538695,1.0552364695,1.5301359245,1.31849524495,0.81895629495,0.63093170245,0.32011112295,0.1265398025,0.221971924,0.3695822665,0.364084586,0.351590986,0.2346206145,-0.1871693855,-0.3651704755,-0.3380579255,-0.2373241705,-0.1711543905,-0.0327465885,0.16933281908,0.39605425908,1717,"DG_s09",11.234,11.844,12.781,12.781,22,6,10,10,0.937,"Right",22,6,16,16,0,0,0,-16,0,-16,16,16,"Advent",12,-4,10,22,10,6
"77",5,"POL RPC1-Ref-POL RPC2-Ref",0.33211138935,0.54618440435,0.891970987,0.950697527,0.811572168,0.6273192495,0.2521589675,0.4267574925,0.3555195665,0.310297725,0.413850012,0.551802412,1.009897167,1.407479867,1.36196993675,1.12738548625,0.98854792625,0.81530913125,0.9966296765,1.056025867,0.7623669505,0.8475783455,0.7720144755,0.8185122355,0.9597572765,0.6750974765,0.4119179265,0.1590682965,0.466528732,0.606673167,0.644923202,0.849352952,0.509986602,0.33794010865,0.44576653915,0.15604646915,1717,"DG_s09",11.234,11.844,12.781,12.781,22,6,10,10,0.937,"Right",22,6,16,16,0,0,0,-16,0,-16,16,16,"Advent",12,-4,10,22,10,6
"78",5,"POL LAM2-Ref-POL LAM3-Ref",-0.3466428958,-0.174212998,-0.0124108586,0.12816804705,0.19126442605,0.26051972605,0.27173491265,0.299655562,0.2659919775,0.03617915235,-0.08912092115,-0.31115950115,-0.29741724315,-0.3384888306,-0.2254675601,-0.1815606016,-0.3347120201,-0.2281536075,-0.3910215525,-0.443961791,-0.452278841,-0.426837526,0.210107469,0.393104669,0.784106869,1.059802254,0.5139102495,0.4106126035,0.0728424035,-0.5035083965,-0.649318492,-0.806584396,-0.6850457565,-0.5522753565,-0.5183420065,-0.5533669065,1717,"DG_s09",11.234,11.844,12.781,12.781,22,6,10,10,0.937,"Right",22,6,16,16,0,0,0,-16,0,-16,16,16,"Advent",12,-4,10,22,10,6
"79",5,"POL ROF5-Ref-POL ROF6-Ref",-0.58783924385,-1.10495000885,-1.24271245885,-1.21550579935,-1.06061827435,-0.88369940435,-0.61373644835,-0.38079583735,-0.28964719735,-0.14816347735,-0.30934279085,-0.37398242085,-0.53518698185,-0.85674812185,-0.76817644585,-1.01560676335,-1.08780666735,-0.65592266235,-0.65228558735,-0.48880907985,-0.30372787485,-0.33644977985,-0.45449229735,-0.73159028735,-0.69254143835,-0.73997858835,-0.50055729435,-0.32560865435,-0.16697950635,-0.34316125135,-0.44651384135,-0.25598523635,-0.51451242835,-0.3927787452,-0.4276134532,-0.7582598482,1717,"DG_s09",11.234,11.844,12.781,12.781,22,6,10,10,0.937,"Right",22,6,16,16,0,0,0,-16,0,-16,16,16,"Advent",12,-4,10,22,10,6
"80",5,"POL ROF6-Ref-POL ROF7-Ref",-0.23637492096,-0.248604293,-0.563389793,-0.3239894535,-0.28291321,-0.36222964,-0.227910885,0.083603206,0.0986927075,0.0437693075,-0.1446111975,-0.6845054475,-0.8029548425,-0.796895446,-0.407347041,-0.212049987,0.132102003,0.2384476665,0.2485942615,0.4143947875,0.2872584025,0.9123384925,0.7891371425,0.6481725645,0.5828404195,0.4044620695,0.402981064,0.681114872,0.938051112,0.6232222365,0.562072252,0.481508292,0.4065295454,0.2256735324,0.4503378424,0.4954963424,1717,"DG_s09",11.234,11.844,12.781,12.781,22,6,10,10,0.937,"Right",22,6,16,16,0,0,0,-16,0,-16,16,16,"Advent",12,-4,10,22,10,6
"81",5,"POL ROF3-Ref-POL ROF4-Ref",0.4270033176,0.1585219581,-0.0614582869,0.2150636131,-0.0324849119,0.0858837506,0.1113475491,-0.3105647254,-0.3615252454,-0.4339163429,-0.5110497564,-0.2290001319,-0.0259513319,-0.02946790785,0.05594069065,-0.21858379885,-0.43787808885,-0.3361662879,-0.4555904564,-0.1458372519,-0.0637166519,0.1176539231,0.1070341911,-0.2509209389,-0.2354402039,-0.4866069189,-0.4588480069,-0.5470386774,-0.6306764304,-0.1419426054,0.1968327926,0.3140943251,0.6930280681,0.5133153681,0.2395201826,0.6622512856,1717,"DG_s09",11.234,11.844,12.781,12.781,22,6,10,10,0.937,"Right",22,6,16,16,0,0,0,-16,0,-16,16,16,"Advent",12,-4,10,22,10,6
"82",5,"POL ROF4-Ref-POL ROF5-Ref",-0.0847625525,-0.28591430035,-0.21702297035,-0.42978323785,-0.47667895785,-0.46132275,-0.584797583,-0.532789433,-0.4101050225,-0.3114503725,-0.2020550971,0.3349899029,0.2170480814,0.0347196249,-0.1448147525,-0.6645049025,-0.3603716415,0.159862905,0.814290357,1.067921157,1.165755337,0.604279792,-0.058652338,0.00811941199999999,-0.319206743,-0.193501636,-0.216156036,-0.639520186,-0.732379326,-0.637146438,-0.30814235,-0.2780431,-0.236505405,-0.443986755,-0.763226663,-0.674077113,1717,"DG_s09",11.234,11.844,12.781,12.781,22,6,10,10,0.937,"Right",22,6,16,16,0,0,0,-16,0,-16,16,16,"Advent",12,-4,10,22,10,6
"83",5,"POL RAM5-Ref-POL RAM6-Ref",0.00396718925,-0.10691689125,-0.02595516625,0.46447432025,2.06330397825,2.75809736325,2.79040596325,2.40444205525,0.66672640525,0.14267951525,-0.06051794275,0.04795346525,0.43626261525,0.66681552025,1.13284277325,2.16769627325,2.36692635675,2.24619203125,2.38303373125,1.38912313125,0.95517096775,0.91809744325,0.69214469325,0.60754759325,0.78722019825,0.65338337025,0.23929972025,0.00595352025,-0.36425185475,-0.45047677675,-0.52814837675,-0.60063712675,-0.64922277675,-0.62962061325,-0.46185790825,-0.22360870925,1717,"DG_s09",11.234,11.844,12.781,12.781,22,6,10,10,0.937,"Right",22,6,16,16,0,0,0,-16,0,-16,16,16,"Advent",12,-4,10,22,10,6
"84",5,"POL ROF2-Ref-POL ROF3-Ref",0.0208485879999999,-0.2375942165,-0.3111566165,0.037237212,0.114523937,0.2438209125,0.2677999525,-0.1618753475,-0.4755100975,-0.7017227935,-0.8480093945,-0.6442694445,-0.3921818445,-0.2779093695,-0.267647529,-0.4197106795,-0.395728812,-0.22350981115,-0.46585379065,-0.58170049015,-0.60448958765,-0.7461588615,-0.4106535115,-0.1522834115,-0.1194685015,-0.3410653535,-0.583124033,-0.591144833,-0.831354197,-0.379395572,-0.3353738025,-0.490132041,-0.132319007,-0.3042297835,-0.3194603835,-0.3839385775,1717,"DG_s09",11.234,11.844,12.781,12.781,22,6,10,10,0.937,"Right",22,6,16,16,0,0,0,-16,0,-16,16,16,"Advent",12,-4,10,22,10,6
"85",5,"POL RPC3-Ref-POL RPC4-Ref",-0.098710991,-0.0689884875000001,0.374402062,0.2565836055,0.0588017055,-0.06513407405,-0.41851247405,-0.45711183555,-0.38891690605,-0.2884719265,-0.2921383515,-0.411434207,-0.4793757615,-0.7825234615,-0.9139842665,-0.943120575,-0.8904843345,-0.883338314,-0.810204154,-0.770913072,-0.5088652375,-0.517101753,-0.732777533,-0.824039393,-0.9783778245,-1.0760657295,-0.920459233,-0.735595123,-0.713968284,-0.460682516,-0.436438812,-0.56584167385,-0.69001828635,-0.85202945435,-0.80791814385,-0.8059120265,1717,"DG_s09",11.234,11.844,12.781,12.781,22,6,10,10,0.937,"Right",22,6,16,16,0,0,0,-16,0,-16,16,16,"Advent",12,-4,10,22,10,6
"86",5,"POL RPC2-Ref-POL RPC3-Ref",-0.014984576,-0.744848607,-1.032277707,-0.813599087,-0.824335416,-0.712438246,-0.776363391,-1.145730882,-1.122312322,-1.183197058,-1.217719443,-1.209886602,-1.2023381995,-1.172023806,-1.284414256,-1.063092676,-1.0935978435,-1.170251445,-1.269925145,-1.600857065,-1.34436554,-1.113171585,-0.875175145,-0.534886105,-0.63652981,-0.52466411,-0.25187762,-0.4013325045,-0.3065267045,-0.4614529545,-0.4929450545,-0.15209192,-0.2959507205,-0.449743071955,-0.908649321955,-1.249273045455,1717,"DG_s09",11.234,11.844,12.781,12.781,22,6,10,10,0.937,"Right",22,6,16,16,0,0,0,-16,0,-16,16,16,"Advent",12,-4,10,22,10,6
"87",5,"POL LAM5-Ref-POL LAM6-Ref",-0.599995923,-0.496091893,-0.310684233,-0.125131548,0.0457764064999999,-0.1822938015,-0.3717140905,-0.591349016,-0.753550251,-0.656025928,-0.4977830475,-0.743470172,-0.6275521585,-0.5277444495,-0.708578151,-0.0717256510000001,0.114216242,-0.0255441630000001,0.196483397,-0.3806659535,-0.59517628,-0.603624759,-0.436406159,-0.0757554585,0.2160414115,0.30312582625,0.32949693625,0.27675440625,-0.24429249375,-0.1199181425,-0.4151742525,-0.70158592265,-0.60103095865,-0.58267988965,-0.35603568965,0.0318233105,1717,"DG_s09",11.234,11.844,12.781,12.781,22,6,10,10,0.937,"Right",22,6,16,16,0,0,0,-16,0,-16,16,16,"Advent",12,-4,10,22,10,6
"88",5,"POL RPC5-Ref-POL RPC6-Ref",-0.3679323625,-0.2179019625,0.1972136375,0.4742847775,0.3679830005,0.4220738855,0.0303350305,-0.0909413745,-0.0545538308,-0.1725664698,0.0364140852,0.1254557502,0.4199575165,0.3409660905,0.2843842905,0.1882400532,-0.1613910068,-0.0676768368,-0.1447370568,-0.1345331981,-0.0555072981,0.0204658229,-0.0031104801,-0.1819543515,0.0496925835,0.2060954225,0.259532973,0.325242273,0.048686788,-0.428265112,-0.3801594345,-0.1146871345,0.0603346805,0.0741774305,-0.2556436245,-0.5279909745,1717,"DG_s09",11.234,11.844,12.781,12.781,22,6,10,10,0.937,"Right",22,6,16,16,0,0,0,-16,0,-16,16,16,"Advent",12,-4,10,22,10,6
"89",5,"POL RAM2-Ref-POL RAM3-Ref",0.549842645,0.43506006,0.757145644,0.766407071,0.467309016,0.334072901,-0.200985099,-0.436895564,-0.306120634,-0.176293539,-0.090731689,0.144660768,0.318046888,0.394074053,0.356910453,0.3061489569,0.1676808069,0.2624448419,0.4129981944,0.473968173,0.806002173,0.766632933,0.671491578,0.5395454935,0.2520956285,0.0623928585,0.308228211,0.2989096455,0.0758764605,0.0290128255,-0.1100239355,0.08581115,0.7714627,1.19596595,1.460793861,1.457140536,1717,"DG_s09",11.234,11.844,12.781,12.781,22,6,10,10,0.937,"Right",22,6,16,16,0,0,0,-16,0,-16,16,16,"Advent",12,-4,10,22,10,6
"90",5,"POL RHP4-Ref-POL RHP5-Ref",-0.05578589895,0.08005182855,0.61756461355,1.13230217355,1.61253099855,1.52020963205,1.12152908205,0.73038302655,0.36774060305,0.34253461455,0.25932806905,-0.06219884045,-0.21567210195,-0.29347521045,-0.18329156495,-0.13639811495,-0.21847447995,-0.11929363145,-0.21735099495,0.24950902005,0.96570132005,1.19137404455,0.99820872805,0.57463235355,0.12884120355,-0.10957238945,0.09298774555,0.25559847005,0.44044582005,0.45595809355,0.42427183855,0.24415917905,-0.29793107095,-0.34759294595,-0.30049031395,0.06500499555,1717,"DG_s09",11.234,11.844,12.781,12.781,22,6,10,10,0.937,"Right",22,6,16,16,0,0,0,-16,0,-16,16,16,"Advent",12,-4,10,22,10,6
"91",5,"POL RAM4-Ref-POL RAM5-Ref",0.3797866515,0.6297779015,1.022627773,1.52424739,3.355453205,3.97158505,3.519042835,3.097987035,1.26952318,0.495296047,0.794703162,0.913917012,1.353275667,1.805331205,1.948021005,2.632474455,2.933025105,2.45039272,2.35170442,1.431762098,0.687524348,0.6962569525,0.5337874525,0.6373059245,0.870714304,0.88841004165,0.73673394165,0.70451405565,0.56737377865,0.5425124945,0.5517585395,0.3336272255,0.157449023,0.09946625,0.179131262,0.469319562,1717,"DG_s09",11.234,11.844,12.781,12.781,22,6,10,10,0.937,"Right",22,6,16,16,0,0,0,-16,0,-16,16,16,"Advent",12,-4,10,22,10,6
"92",5,"POL RHP5-Ref-POL RHP6-Ref",0.8392345685,0.9181238085,0.5432995085,0.5615604085,1.3826433485,1.269834523,1.394624304,1.708775654,1.07411068,1.1963492855,0.8583566495,0.3671514995,0.3675258235,0.190670509,0.313815589,0.235364364,0.0185798035,-0.080133097,-0.041088742,0.206856883,0.2195186435,0.316699935,0.333078555,0.191305605,0.32334196,0.1028830685,-0.0425331315,-0.2735755115,-0.4710745665,-0.3407501255,-0.3770321705,-0.3281872435,-0.1895591025,0.016869437,0.218461422,0.1372222142,1717,"DG_s09",11.234,11.844,12.781,12.781,22,6,10,10,0.937,"Right",22,6,16,16,0,0,0,-16,0,-16,16,16,"Advent",12,-4,10,22,10,6
"93",5,"POL LAM3-Ref-POL LAM4-Ref",0.3590323415,-0.06634646615,0.09027548535,-0.00763668615,-0.23223061465,0.022977813,-0.1938181455,-0.305682348,-0.4071340195,-0.496880979,-0.353436969,-0.130244574,-0.003359381,-0.2611290295,-0.4749328195,-0.5088686145,-0.6366975575,-0.490107252,-0.3086912535,-0.4368322035,-0.288641643,-0.31330817,-0.34322684295,-0.22321900745,0.00279973705,0.03357605105,0.0706268805,0.39416286,0.3190276945,0.38072027335,0.36052091535,0.22900256285,0.03840295835,0.308365375,0.603636983,0.3292158205,1717,"DG_s09",11.234,11.844,12.781,12.781,22,6,10,10,0.937,"Right",22,6,16,16,0,0,0,-16,0,-16,16,16,"Advent",12,-4,10,22,10,6
"94",5,"POL LAM6-Ref-POL LAM7-Ref",-1.234738907,-1.126432757,-0.798315462,-0.659457816,-0.4473758035,-0.2630851775,-0.4205656393,-0.8763001643,-0.9768345268,-1.2806914778,-1.504712816,-1.498093216,-1.483514716,-1.480772916,-1.41345828985,-1.28526893185,-1.39364963185,-1.46715983185,-1.512352208,-1.547981986,-1.3063003785,-1.043563135,-0.740721885,-0.229504865,0.3188038275,0.227940119,0.049449521,-0.3402544605,-0.8706964005,-0.3878805355,-0.3522959295,-0.514233848,-0.577011015,-1.0035472637,-0.8189346217,-0.6537779237,1717,"DG_s09",11.234,11.844,12.781,12.781,22,6,10,10,0.937,"Right",22,6,16,16,0,0,0,-16,0,-16,16,16,"Advent",12,-4,10,22,10,6
"95",5,"POL LAM1-Ref-POL LAM2-Ref",0.241006547,0.042718432,-0.104978954,-0.0530767195,-0.0915759205,-0.1204336055,0.0288465855,0.1555148335,0.177178463,0.581462863,0.620410278,0.505497056,0.720532856,0.325044616,0.3146563425,0.1690957535,-0.00370634649999999,0.0121061885,-0.094665398,0.4538369525,0.8916441475,1.071229197,1.487757762,1.1120415475,0.8171443005,0.811744651,0.44119646295,0.33815385875,0.37812594575,0.38410514575,0.3394306558,0.1658906945,-0.0110228405,-0.3118531855,-0.4442464075,-0.4220814075,1717,"DG_s09",11.234,11.844,12.781,12.781,22,6,10,10,0.937,"Right",22,6,16,16,0,0,0,-16,0,-16,16,16,"Advent",12,-4,10,22,10,6
"96",5,"POL RHP6-Ref-POL RHP7-Ref",0.3163305465,0.429840484,0.9288754825,1.3960323025,2.1386895275,2.34537482,2.26381382,1.97758987,1.15538797,1.0656624185,0.559647649,0.351723656,0.292621256,0.2154742075,0.254013392,0.349525555,0.387102215,0.396129105,0.636306401,0.772778481,0.8025788095,0.7288967395,0.3975720785,0.1348216655,0.20639562845,0.17064847845,0.31108928345,0.17068339645,-0.0215525050000001,0.03327978944,0.10390931899,0.26743992049,0.28111467049,0.47143283855,0.4277054915,0.30294094,1717,"DG_s09",11.234,11.844,12.781,12.781,22,6,10,10,0.937,"Right",22,6,16,16,0,0,0,-16,0,-16,16,16,"Advent",12,-4,10,22,10,6
"97",6,"POL RAM3-Ref-POL RAM4-Ref",-0.27593131045,-0.04507462545,0.21916145755,0.34332962355,0.60557422355,0.71929163855,0.82289910555,0.92378087005,0.85710671355,0.71818376855,0.44342315105,0.55277270055,0.73110180705,0.79190873705,0.99870185955,1.07573312955,0.81018246005,0.65343520005,0.40514519505,0.19322925955,0.06736932905,-0.13952119595,0.11996932805,0.1931652051,0.3664010096,0.4520748996,0.1411601256,0.04729510105,-0.08617735345,0.05578112005,0.22355337505,0.28988598155,0.54056743155,0.46079183105,0.29038242605,0.08089815255,1718,"DG_s09",13.781,14.391,14.969,14.969,30,15,10,10,0.578,"Left",30,15,15,15,0,0,0,-15,0,-15,15,15,"Advent",20,5,30,10,15,10
"98",6,"POL ROF4-Ref-POL ROF5-Ref",-0.378866801,-0.5152256255,-0.5104561605,-0.4060538355,-0.3640910855,-0.4635724305,-0.502704396,-0.504868833,-0.522406436,-0.270835842,-0.2118681415,-0.2226656295,-0.1758895265,-0.3239419205,-0.1996614125,-0.172385982,-0.1297839394,0.0542734906,-0.1436399134,-0.1146166359,0.0346344715,-0.1545855925,-0.019983635,-0.079295398,-0.227874175,-0.213028291,-0.0898613105,0.3495583945,0.3313855215,0.5943336715,0.5715407295,0.1475210715,0.2760529065,0.00939058650000001,-0.10167882725,-0.10406681925,1718,"DG_s09",13.781,14.391,14.969,14.969,30,15,10,10,0.578,"Left",30,15,15,15,0,0,0,-15,0,-15,15,15,"Advent",20,5,30,10,15,10
"99",6,"POL LAM1-Ref-POL LAM2-Ref",-0.801074436605,-0.397318775605,-0.077133637105,-0.026261514605,0.17758043453,-0.15279528947,-0.57513523247,-0.68029461647,-0.543959146,-0.075652933,0.078158783,-0.0878447585,-0.606045388,-1.109705688,-1.211797015,-0.89302655,-0.8309086,-0.78791505,-0.8246247825,-0.9335658355,-0.6170913205,-0.5852012905,-0.352325788,-0.344848331,-0.673179346,-0.6460373015,-0.9089070515,-0.9048636365,-0.7160437486,-0.9121429731,-0.9622851231,-0.9781182656,-0.9645509225,-0.8542511725,-0.8574973225,-0.881738508,1718,"DG_s09",13.781,14.391,14.969,14.969,30,15,10,10,0.578,"Left",30,15,15,15,0,0,0,-15,0,-15,15,15,"Advent",20,5,30,10,15,10
"100",6,"POL LAM5-Ref-POL LAM6-Ref",0.406911302,0.460912007,0.633412952,0.218027127,0.328765201,0.052451904,0.0322501515,0.2939092915,0.1558325265,0.0904650385,-0.1009732835,-0.20531971485,0.35562168515,0.88891393515,0.95303076426,1.12459548061,0.53124739561,0.11306661961,0.1441386455,-0.0823646455,0.3405233395,0.41590615765,0.42350634215,0.49976246815,0.06031620415,0.323245062,0.498742137,0.344398361,0.365677425,0.170939545,-0.005646637,0.0260116965,0.1541975215,0.064122034,-0.094887634,-0.1675704965,1718,"DG_s09",13.781,14.391,14.969,14.969,30,15,10,10,0.578,"Left",30,15,15,15,0,0,0,-15,0,-15,15,15,"Advent",20,5,30,10,15,10
"101",6,"POL RHP5-Ref-POL RHP6-Ref",-0.10965197285,-0.11781038835,0.73031296165,1.01113813815,1.56967166665,2.17079874665,1.46436620665,1.16935723865,0.65444499865,0.33865659865,0.27315942365,0.23627700915,0.38449410415,0.42752980415,0.76857187565,0.66674039565,0.47235258565,0.02784838065,-0.11436366935,0.06870833665,0.08007438665,0.16549828165,0.03188525965,0.13394202365,0.24053940515,0.32768710995,0.52873797545,0.84686735045,0.81653041395,0.60549236915,0.25480143415,-0.05884711085,-0.13465718585,0.07128120365,0.07625348865,-0.33051151635,1718,"DG_s09",13.781,14.391,14.969,14.969,30,15,10,10,0.578,"Left",30,15,15,15,0,0,0,-15,0,-15,15,15,"Advent",20,5,30,10,15,10
"102",6,"POL RAM5-Ref-POL RAM6-Ref",0.4741127105,0.5928792105,0.5697692484,0.6638403714,0.8337980364,1.1828430364,1.553560106,2.109678833,2.245197183,2.181190683,1.83625607575,2.22785852575,3.46548002575,3.35669077575,4.077909533,3.167624138,1.628377753,1.251346588,0.608259633,0.787576528,0.703825365,0.567928047,0.3997906885,0.105716165,0.191983483,0.382569066,0.5632371795,0.5639088335,0.2910526135,-0.00468383649999998,-0.2873106365,-0.331645267,-0.221680342,0.015543138,0.082125346,0.106219071,1718,"DG_s09",13.781,14.391,14.969,14.969,30,15,10,10,0.578,"Left",30,15,15,15,0,0,0,-15,0,-15,15,15,"Advent",20,5,30,10,15,10
"103",6,"POL ROF1-Ref-POL ROF2-Ref",0.837811555,0.787791604,0.944234322225,1.030080418725,0.686422818725,0.603333359725,0.4349532415,0.0825991700000001,0.323284168,0.656056455,0.664922205,0.671502415,0.684394187,0.645603,0.6966145155,0.6729937555,0.5600489265,0.5138290135,0.536395298,0.6422820495,0.7312193885,0.8157983765,0.7164393765,0.806302445,0.793099545,0.6073096,0.90320851,0.8953177805,0.9228290705,1.175870582,0.977080622,0.871209231,0.701246623,0.3789165265,0.2899743265,0.42873746155,1718,"DG_s09",13.781,14.391,14.969,14.969,30,15,10,10,0.578,"Left",30,15,15,15,0,0,0,-15,0,-15,15,15,"Advent",20,5,30,10,15,10
"104",6,"POL RAM6-Ref-POL RAM7-Ref",0.02635397895,-0.12321111655,-0.08873609805,0.24314245195,0.772922331,1.8504648295,2.0569765795,2.0987466795,1.8588350295,1.0833086295,0.9210983795,0.8220879295,1.2081662295,1.3647268295,1.2104581579,1.0475412329,0.5316463949,0.1831113849,0.0142545765,0.0033724515,-0.0824998455,-0.199841048,-0.063957868,-0.060328668,-0.110694523,-0.0348989595,0.1143742405,0.0432970055,0.1175487525,-0.0048882385,-0.031644508,0.20940258,0.198997131,0.213446724,-0.0538707565,-0.3411942095,1718,"DG_s09",13.781,14.391,14.969,14.969,30,15,10,10,0.578,"Left",30,15,15,15,0,0,0,-15,0,-15,15,15,"Advent",20,5,30,10,15,10
"105",6,"POL ROF5-Ref-POL ROF6-Ref",-0.1535563825,-0.1341044245,-0.5632646875,-0.457956919,-0.188866834,-0.04190348894,-0.10956242094,-0.19833658444,-0.43135153294,-0.4871029515,-0.4140397685,-0.4108135235,-0.2684461018,-0.1662017303,0.0494370917,0.3096369917,0.2988299785,0.27559608,7.9760000000012e-05,-0.40934204,-0.540978785,-0.398393508,-0.308906868,-0.1666487475,0.0685861075,-0.1863192375,-0.12096460715,-0.27666348115,-0.10929984615,0.20241651735,0.00543711199999999,-0.0359942845,-0.4410983245,-0.768217338,-0.636066418,-0.231707118,1718,"DG_s09",13.781,14.391,14.969,14.969,30,15,10,10,0.578,"Left",30,15,15,15,0,0,0,-15,0,-15,15,15,"Advent",20,5,30,10,15,10
"106",6,"POL RPC2-Ref-POL RPC3-Ref",-0.4823073162,-0.6349226212,-0.61809933,-0.59862958,-0.423568845,-0.3894713975,-0.6264354015,-0.6558967515,-0.750782403,-0.7323011005,-0.5907746095,-0.4514519455,-0.217616194,-0.192516979,-0.233223345,0.038983791,-0.127913071,-0.028764846,-0.048659171,-0.415762951,-0.347892219,-0.4165734455,-0.3731692955,-0.3972842155,-0.5530664205,-0.567470484,-0.669722134,-0.570251003,-0.338778403,-0.236002903,0.100689647,0.404630216,0.829169216,1.125314411,1.27445271,1.32901836,1718,"DG_s09",13.781,14.391,14.969,14.969,30,15,10,10,0.578,"Left",30,15,15,15,0,0,0,-15,0,-15,15,15,"Advent",20,5,30,10,15,10
"107",6,"POL LAM3-Ref-POL LAM4-Ref",-0.6402110255,-0.4816706755,-0.2758456405,-0.08686638,0.0893052200000001,0.2819301,0.04849786,-0.1064329395,-0.1765501895,-0.5149149545,-0.671076601,-0.786858821,-0.945938516,-0.841963951,-0.5119725795,-0.1446333295,-0.0919539,-0.4778885,-0.62823381,-0.787280282,-0.5118490215,-0.1191149065,-0.2820532965,-0.5541109245,-0.8903261745,-1.1289999895,-1.1907622895,-0.9296757295,-0.5492440295,-0.32271493265,0.07422173735,0.10650220235,-0.12335839175,-0.1738441106,-0.4899363106,-0.4424671001,1718,"DG_s09",13.781,14.391,14.969,14.969,30,15,10,10,0.578,"Left",30,15,15,15,0,0,0,-15,0,-15,15,15,"Advent",20,5,30,10,15,10
"108",6,"POL RHP4-Ref-POL RHP5-Ref",0.197958567,0.171068517,0.194176367,0.438989317,0.4776511655,0.4127262405,0.470560097,0.176657517,0.0719183385,-0.0107582665,-0.364876273,-0.178891537,-0.0665186115,-0.041116513,0.0816919095,0.1778897935,0.225387038,0.2403534545,0.349334732,0.323323302,0.210835972,0.295915702,0.064770352,-0.0403725455,-0.08937443,0.00597260499999999,0.2061511935,0.2604162175,0.273045416,0.120307961,0.2058917425,0.258224726,0.196669807,0.382793912,0.350833442,0.28061636895,1718,"DG_s09",13.781,14.391,14.969,14.969,30,15,10,10,0.578,"Left",30,15,15,15,0,0,0,-15,0,-15,15,15,"Advent",20,5,30,10,15,10
"109",6,"POL ROF3-Ref-POL ROF4-Ref",0.902361545,1.07293304,0.87166759,0.745888545,0.419683155,0.183962755,-0.078286945,-0.175571265,-0.10749881,-0.100885102,0.179306023,0.438582723,0.972360868,1.026779225,0.68569365,0.6142868165,0.122060311,0.194595951,0.503791001,0.7189918345,0.8383560385,0.9117836335,0.7623886725,0.3218105725,0.271851169,0.068188619,0.030661555,0.2518614445,0.5737840945,0.718707997,0.83655029925,0.58046660975,0.19058862475,0.40732947225,0.943245545,1.20377351,1718,"DG_s09",13.781,14.391,14.969,14.969,30,15,10,10,0.578,"Left",30,15,15,15,0,0,0,-15,0,-15,15,15,"Advent",20,5,30,10,15,10
"110",6,"POL RPC1-Ref-POL RPC2-Ref",0.3632542911,0.5267226041,0.61352798225,0.22535770725,0.31912480725,0.28536680725,0.3460386241,0.3115505201,0.0764725001,-0.0088522079,-0.2396619879,-0.1830366114,-0.0215602914,-0.02914198925,0.01796946075,-0.22066168675,-0.25629645625,-0.2835283534,-0.0320268334,0.2341729856,-0.0556260449,-0.2804380919,-0.6085099619,-0.8203483809,-0.8616357309,-0.8279725309,-0.6555696444,-0.4086176144,-0.3215997094,-0.0654243644,-0.0378765029,-0.0981650504,0.1218859346,0.2141108696,0.3274613716,0.4965667541,1718,"DG_s09",13.781,14.391,14.969,14.969,30,15,10,10,0.578,"Left",30,15,15,15,0,0,0,-15,0,-15,15,15,"Advent",20,5,30,10,15,10
"111",6,"POL RAM4-Ref-POL RAM5-Ref",0.1074702228,0.0878185713,0.19883146375,0.44150684875,0.57048372465,0.64011267115,0.5779664447,0.6080171947,0.6288657447,1.0405436447,1.3984341662,2.0757106662,3.3459680162,3.5939830162,4.1951448162,3.3887911012,1.9606518887,1.2321385927,0.4385226777,0.4605844627,0.3194273202,0.0393876162,-0.1707209688,-0.5036998388,-0.5542778838,-0.5274788838,-0.5257279838,-0.4768010838,-0.4128090838,-0.3227629838,-0.3021964138,-0.2458430238,-0.2387310388,-0.0667537043,-0.0236230643,0.00132240219999999,1718,"DG_s09",13.781,14.391,14.969,14.969,30,15,10,10,0.578,"Left",30,15,15,15,0,0,0,-15,0,-15,15,15,"Advent",20,5,30,10,15,10
"112",6,"POL LAM2-Ref-POL LAM3-Ref",-0.43199779085,-0.40067966135,-0.79178104135,-1.04527267135,-1.17900416785,-1.23049554735,-1.20563529735,-1.14400685585,-0.95346081085,-1.01065941085,-1.02097245085,-0.85597722235,-0.92535964735,-0.78959580235,-0.69588466235,-0.72953492085,-0.83621335235,-0.86011179735,-0.76800030935,-1.00060902885,-0.93867638835,-0.80366359085,-0.60224020735,-0.29743370435,-0.31866978835,-0.3681553826,-0.6244042991,-0.6764476601,-0.7568402651,-0.91723076835,-0.78834572835,-0.61369681235,-0.34259760235,-0.17847077235,-0.34630682735,-0.46637791085,1718,"DG_s09",13.781,14.391,14.969,14.969,30,15,10,10,0.578,"Left",30,15,15,15,0,0,0,-15,0,-15,15,15,"Advent",20,5,30,10,15,10
"113",6,"POL RPC5-Ref-POL RPC6-Ref",0.511596474,0.62762772,0.626865673,0.582151773,0.384543249,0.395698677,0.616221754,0.7080057315,1.0880771315,1.4697516075,1.388934417,1.3996059925,1.242844148,0.829310578,0.726173718,0.61025124385,0.32032543835,0.38610061335,0.39183066235,0.3492663345,0.503489899,0.386280494,0.2829231455,0.2401388995,0.417181185,0.4820233,0.5427804265,0.5322925115,0.1623366615,0.0929241965,-0.0463523775,0.095452497,0.197987697,0.2996415425,0.28579149,0.2132117155,1718,"DG_s09",13.781,14.391,14.969,14.969,30,15,10,10,0.578,"Left",30,15,15,15,0,0,0,-15,0,-15,15,15,"Advent",20,5,30,10,15,10
"114",6,"POL ROF6-Ref-POL ROF7-Ref",-0.688516704,-0.627764389,-0.525565542,-0.164592042,-0.100816113,0.051207937,-0.00124730000000001,-0.1714758385,-0.1447226885,0.1264359965,0.2248658235,-0.00230933799999999,-0.24621140175,-0.70739530975,-0.76373717365,-0.25576367365,0.0980803401,0.2927153931,0.41171258,0.34587143,-0.0942485,0.044624037,0.407646677,0.254326727,0.2646028155,-0.0428865665,-0.6443644665,-0.758559798,-0.5810062615,-0.5877089365,-0.4366923915,-0.20018431,0.027320645,0.107342266,0.103905076,0.078660476,1718,"DG_s09",13.781,14.391,14.969,14.969,30,15,10,10,0.578,"Left",30,15,15,15,0,0,0,-15,0,-15,15,15,"Advent",20,5,30,10,15,10
"115",6,"POL ROF2-Ref-POL ROF3-Ref",-0.2407367495,-0.1689442195,-0.139604983,0.1013887535,0.00369828600000002,-0.202124099,-0.093967554,-0.3807057065,-0.3076994775,-0.1847109715,-0.4915250215,-0.442180278,-0.110746857,-0.2075032122,-0.1181351842,-0.1015146339,-0.4190293539,-0.0451901897,-0.1356446027,-0.05590759,-0.1269405499,-0.6940892999,-0.5079835849,-0.5915371149,-0.562777835,-0.504708185,-0.745744715,-0.85322105,-0.7191571235,-0.7318730235,-0.7197133235,-0.7875810515,-0.671445103,-0.303286753,0.164615997,0.494658357,1718,"DG_s09",13.781,14.391,14.969,14.969,30,15,10,10,0.578,"Left",30,15,15,15,0,0,0,-15,0,-15,15,15,"Advent",20,5,30,10,15,10
"116",6,"POL RPC3-Ref-POL RPC4-Ref",0.0174240045,-0.1639609625,0.129982489,0.1410682585,0.01480438835,-0.08252774965,-0.08560165615,0.22299306835,0.209167882,0.203348567,0.1215428875,0.0369881875,0.200322394,0.31929272945,0.27299581055,0.14417541055,0.22255536055,0.1401194601,-0.0311854365,-0.0941655915,-0.4573491665,-0.1878542365,0.0239763825,-0.1501337125,-0.1872407875,-0.29620055,-0.425069664,-0.2911561445,-0.0217998945,0.0190055675,0.135140108,0.1865965055,0.2373098055,0.627792306,0.8636444605,0.9319933435,1718,"DG_s09",13.781,14.391,14.969,14.969,30,15,10,10,0.578,"Left",30,15,15,15,0,0,0,-15,0,-15,15,15,"Advent",20,5,30,10,15,10
"117",6,"POL RHP6-Ref-POL RHP7-Ref",-0.762812703,-0.859774483,-0.402606839,0.066982561,1.281452061,1.904191526,1.537210759,1.22994627,0.146417625,-0.756756275,-0.862996549,-0.746923975,-0.8388666945,-0.5216764485,-0.492110257,-0.203599092,0.0393329575000001,-0.1850690385,-0.321774639,-0.890309689,-1.195423724,-1.199728339,-0.898412639,-0.559534989,-0.433433283,-0.2441205785,-0.5060271285,-0.8632488785,-0.760935101,-0.5807854405,-0.3793736355,-0.1325159315,-0.2952492676,-0.6430133676,-0.7260834841,-0.4600841381,1718,"DG_s09",13.781,14.391,14.969,14.969,30,15,10,10,0.578,"Left",30,15,15,15,0,0,0,-15,0,-15,15,15,"Advent",20,5,30,10,15,10
"118",6,"POL LAM6-Ref-POL LAM7-Ref",0.910099336,0.6924421645,0.49828523931,0.18306819981,0.21041954981,0.33863981631,0.433398633,0.7993484225,0.6926270365,0.5815860415,0.6886174615,0.397530554,0.496049705,0.5101483015,0.307663935,0.2797560425,0.21228696995,0.33980045345,0.30302893845,0.31575343345,0.128092281,-0.130113599,0.013320167,-0.045225628,-0.00600756299999999,0.177452792,0.266266766,0.279694866,0.322947013465,0.413287701465,0.376294891965,0.896405991965,0.922989703,1.14905786,1.2034185145,0.755671118,1718,"DG_s09",13.781,14.391,14.969,14.969,30,15,10,10,0.578,"Left",30,15,15,15,0,0,0,-15,0,-15,15,15,"Advent",20,5,30,10,15,10
"119",6,"POL RPC4-Ref-POL RPC5-Ref",-0.10643194955,-0.04095441805,0.16239833195,0.3298066815,0.3191719265,0.300552312,0.209460547,0.20903476745,0.72823277245,1.00982877945,1.09057616045,0.98747444045,0.44014979045,0.00496584044999998,-0.21853877555,-0.31031847555,-0.21127479105,-0.03411643055,0.19815187095,0.26648447495,0.27771613795,0.29163769245,0.08074747645,0.02518625845,0.23203556095,0.21698225845,0.29844171795,0.42801116695,0.34918611695,0.32006114995,0.26663882595,0.61961544095,0.85439474095,1.13555814545,1.26682344945,0.85555944945,1718,"DG_s09",13.781,14.391,14.969,14.969,30,15,10,10,0.578,"Left",30,15,15,15,0,0,0,-15,0,-15,15,15,"Advent",20,5,30,10,15,10
"120",6,"POL RAM2-Ref-POL RAM3-Ref",0.153510206,0.377451196,0.561800106,0.525362302,0.398987472,0.601315332,0.715759042,0.612305687,0.571064492,0.3320070955,0.035710374,-0.015790221,0.044449448,0.3881426945,0.636963646,1.336996296,1.778517927,1.527211777,1.3481773336,0.8060798456,0.5412485956,0.7916579456,1.150484289,1.212190047,1.105789607,0.726762922,0.39656168315,0.37894632915,0.19067696915,0.11875430415,0.00130759300000005,-0.169738423,-0.118113873,-0.0778242975,0.5062851025,0.761229898,1718,"DG_s09",13.781,14.391,14.969,14.969,30,15,10,10,0.578,"Left",30,15,15,15,0,0,0,-15,0,-15,15,15,"Advent",20,5,30,10,15,10
"121",7,"POL ROF4-Ref-POL ROF5-Ref",-0.1460082295,0.0092862125,-0.0559451915,0.1945174435,-0.11722626485,-0.43005331735,-0.35424909885,-0.33678643735,-0.317003596,0.2061997245,0.4251631005,0.317766754,0.227819912,-0.1115270515,-0.3765613115,-0.3140883765,-0.404011997,-0.643210698,-0.308425593,-0.3104407285,0.080417351,0.202225511,0.556242611,0.7361517325,0.3727509525,0.372270547,-0.317048833,-0.460096839,-0.376989045,-0.29023049,-0.37733684,-0.6046892,-0.791279864,-0.717727691,-0.226321511,0.015170794,1719,"DG_s09",15.969,16.594,17.328,17.328,28,4,10,10,0.734,"Left",28,4,24,24,0,0,0,-24,0,-24,24,24,"Advent",18,-6,28,10,4,10
"122",7,"POL RPC2-Ref-POL RPC3-Ref",-0.537902538,-0.590051488,-0.712920462,-0.9020529895,-0.6217503375,-0.5008912375,-0.4726397245,-0.408227956,-0.656349058,-0.592778978,-0.4508955649,-0.43548496208,-0.29299814008,-0.32242338458,-0.36018658118,-0.5407975075,-0.4758062345,-0.67411627,-0.85924734,-0.6261580015,-0.85344555,-0.73209193,-0.54764417,-0.537637545,-0.1053084915,0.1456160385,0.559179304,0.769951154,0.905508754,1.138019754,1.226535754,1.718415904,2.025896304,1.860893404,1.607408104,0.9228951434,1719,"DG_s09",15.969,16.594,17.328,17.328,28,4,10,10,0.734,"Left",28,4,24,24,0,0,0,-24,0,-24,24,24,"Advent",18,-6,28,10,4,10
"123",7,"POL ROF1-Ref-POL ROF2-Ref",0.510930565,0.41663249,0.33128844,0.52520279,0.653249725,0.7774703525,0.5090316225,0.0884806455,0.0593655805,-0.03475911,-0.1140744775,-0.194276326,-0.260782911,-0.478384073,-0.3764839355,0.05950534,0.3637014155,0.5873829905,1.1060197505,0.7302789855,0.758380515,0.79230909,0.405766645,0.52724806,0.43935271,0.264107034,0.1723534585,0.027864291,-0.280967659,-0.471230183,-0.5080326625,-0.56566051,-0.09893976,0.29229084,0.319091596,0.570898556,1719,"DG_s09",15.969,16.594,17.328,17.328,28,4,10,10,0.734,"Left",28,4,24,24,0,0,0,-24,0,-24,24,24,"Advent",18,-6,28,10,4,10
"124",7,"POL LAM2-Ref-POL LAM3-Ref",-0.1541220565,-0.173747806,-0.564768051,-0.679794831,-0.9046228975,-1.0191662865,-0.967912868,-1.010536453,-1.1996768365,-1.24817845915,-1.20067234265,-1.17671299265,-1.24191774265,-1.30029296,-1.52431641,-1.53062438,-1.45942618,-1.43542688,-1.38915625,-1.2085570545,-0.9423032545,-0.702535183,-0.754264803,-0.6516442485,-0.6430210985,-0.78888778,-0.83306068,-0.7792846995,-0.8420382265,-0.679380973,-0.645055473,-0.6257028335,-0.7325269465,-0.636976075,-0.5299190625,-0.7341066675,1719,"DG_s09",15.969,16.594,17.328,17.328,28,4,10,10,0.734,"Left",28,4,24,24,0,0,0,-24,0,-24,24,24,"Advent",18,-6,28,10,4,10
"125",7,"POL LAM5-Ref-POL LAM6-Ref",-0.387836578,-0.258825929,-0.593594579,-0.7627271185,-0.9466256785,-0.762400974,-0.6064081775,-0.5772760775,-0.618134678,-0.708283313,-0.80070144695,-0.45975019695,-0.13787222145,-0.37145994845,-0.301201726,-0.575829926,-0.751595346,-0.768185234,-0.7967042905,-0.4999108605,-0.1238596655,0.0348179845,0.209148956,0.114073241,-0.280245192,-0.249311942,-0.3017148352,-0.4414251577,-0.3007022221,-0.3850490921,-0.5254851939,-0.6539272364,-0.843805539,-0.997831119,-1.167943524,-1.1042811855,1719,"DG_s09",15.969,16.594,17.328,17.328,28,4,10,10,0.734,"Left",28,4,24,24,0,0,0,-24,0,-24,24,24,"Advent",18,-6,28,10,4,10
"126",7,"POL ROF6-Ref-POL ROF7-Ref",-0.680475962,-0.38251470884,-0.32767737094,-0.33691280644,-0.57562230944,-0.5172027176,-0.5854671405,-0.6239703905,-0.405790859,-0.51572154,-0.257113865,0.119668435,0.2973501935,0.225364654,0.046858819,-0.108285966,-0.095736546,0.3129047195,0.5135647595,0.5352351895,0.1658031505,-0.1663030445,-0.180897553,-0.415507748,-0.322633014,-0.31567485845,-0.40684552995,-0.28980068395,-0.14693943995,-0.3843178905,-0.5964653055,-0.7203688015,-0.7954183925,-0.69559273115,-0.5511666839,-0.4978136739,1719,"DG_s09",15.969,16.594,17.328,17.328,28,4,10,10,0.734,"Left",28,4,24,24,0,0,0,-24,0,-24,24,24,"Advent",18,-6,28,10,4,10
"127",7,"POL LAM1-Ref-POL LAM2-Ref",-0.242212102,-0.2453966715,0.1258028185,0.094958225,0.329331356,0.5401105465,0.4945047965,0.66137663,0.2837633167,0.0429390612,-0.3919831888,-0.6981091388,-0.62613137115,-0.72261691565,-0.51384062115,-0.40412701615,-0.4608920705,-0.1199945605,0.03444406,-0.054434395,0.053724595,-0.30017982,-0.4323067515,-0.28226693,-0.14014136,0.253805295,0.097905986,-0.0474603855,-0.3340187955,-0.7749836025,-0.474213727,-0.281968062,-0.293380012,-0.253967715,-0.278089765,-0.240032835,1719,"DG_s09",15.969,16.594,17.328,17.328,28,4,10,10,0.734,"Left",28,4,24,24,0,0,0,-24,0,-24,24,24,"Advent",18,-6,28,10,4,10
"128",7,"POL RHP6-Ref-POL RHP7-Ref",1.0736430685,0.8907042405,1.135809581,0.687718641,0.23232029305,0.48489983505,0.10082550505,0.24180899905,0.682206752,0.794593905,1.00443756,0.970740556,0.957273201,0.946505098,0.711484728,0.458221828,0.1126165661,-0.0691467639,0.2253399311,0.4767337311,0.5143288455,0.1551274255,0.08510771015,0.15154099315,0.34841226315,0.76167960265,0.559362338,0.311693135,0.1812909175,-0.204903622,-0.212455449,-0.282074464,-0.3000004765,-0.1180630765,-0.2070515695,-0.2847352345,1719,"DG_s09",15.969,16.594,17.328,17.328,28,4,10,10,0.734,"Left",28,4,24,24,0,0,0,-24,0,-24,24,24,"Advent",18,-6,28,10,4,10
"129",7,"POL ROF5-Ref-POL ROF6-Ref",-0.239200442,-0.135817192,-0.0453640525,-0.0541763575,-0.09483957,0.00436941799999999,0.1122518635,0.5104135185,0.7083717075,0.5578428195,0.2916276345,-0.1692221655,-0.0573358855,0.2717198195,0.4893334745,0.6781073545,0.6291030545,0.3497477995,0.3904007945,0.6875010695,0.5714622995,0.7913645495,0.8607772995,0.5533738245,0.7449615595,0.7728621345,0.7319596845,0.7258252695,0.5540323665,0.6556010415,0.6346391065,0.5912750975,0.532481128,0.360549313,0.461559248,0.640986342,1719,"DG_s09",15.969,16.594,17.328,17.328,28,4,10,10,0.734,"Left",28,4,24,24,0,0,0,-24,0,-24,24,24,"Advent",18,-6,28,10,4,10
"130",7,"POL RAM4-Ref-POL RAM5-Ref",-0.0345147055,-0.060348536,0.163556494,0.275816254,0.229206904,0.200876529,-0.119757271,-0.187537381,-0.209248131,-0.378748021,-0.452813321,-0.402269321,-0.1673106105,0.2094323395,0.5035571395,0.6531937655,0.581829605,0.258248355,0.021271755,-0.210877171,-0.399670271,-0.354912721,-0.337673021,-0.1893985675,0.053033469,0.067941869,0.061179919,-0.1088215845,-0.183188232,0.037552618,0.095346723,0.1663387065,0.281880145,0.025169003,0.144129288,0.3837560045,1719,"DG_s09",15.969,16.594,17.328,17.328,28,4,10,10,0.734,"Left",28,4,24,24,0,0,0,-24,0,-24,24,24,"Advent",18,-6,28,10,4,10
"131",7,"POL RPC1-Ref-POL RPC2-Ref",-0.0209598608,0.1290608392,0.0503803537,-0.0558492578,0.0117794662,0.0904244862,0.2031281812,0.4081888677,0.51074984395,0.51586541395,0.40087936995,0.33067054445,0.1466445492,-0.0519175408,-0.1763743168,-0.3482290063,0.1407564887,0.6487174387,0.8616560662,0.8500495312,0.2724124312,-0.2738176688,-0.4311513423,-0.2110554673,-0.0902336123,-0.0925888623,-0.000540753800000016,0.0316101462,0.0263939912,0.2235931712,0.3057148587,0.2830372572,0.4945994877,0.7768372577,0.5137751777,0.2748489542,1719,"DG_s09",15.969,16.594,17.328,17.328,28,4,10,10,0.734,"Left",28,4,24,24,0,0,0,-24,0,-24,24,24,"Advent",18,-6,28,10,4,10
"132",7,"POL RAM3-Ref-POL RAM4-Ref",-0.552486812,-0.580189912,-0.624644212,-0.5078872145,-0.4139208595,-0.2169196695,-0.0769513525,-0.177090096,-0.2072379615,-0.23926155585,-0.44868192285,-0.52821177685,-0.42864693835,-0.086717434,0.331394316,0.583883563,0.615200235,0.390628385,0.14216597,0.3204272685,0.3571728735,0.0768688735,-0.0468729615,-0.384535307,-0.54324473445,-0.39915292945,0.13425472055,0.27987365555,0.323184328,0.418749253,-0.0634302245,-0.2355399745,-0.1966995995,-0.3009838295,-0.2087000045,0.0088694455,1719,"DG_s09",15.969,16.594,17.328,17.328,28,4,10,10,0.734,"Left",28,4,24,24,0,0,0,-24,0,-24,24,24,"Advent",18,-6,28,10,4,10
"133",7,"POL RAM5-Ref-POL RAM6-Ref",0.06598122925,0.15471467425,0.1220577437,0.2101867437,0.2639781437,0.1122925377,-0.11120016675,-0.09699496675,-0.13759506675,-0.0174125094,-0.0201431594,-0.0264326894,0.0412941606,0.05201485525,0.32920770525,0.39025360525,0.49692789375,0.35539081825,0.14714916825,-0.03303310175,-0.26539984025,-0.11023275525,0.13816271475,0.24407567875,0.58120077875,0.70467251725,0.49261930575,0.43463174175,0.23205214175,0.208197895235,0.316107111735,0.393330511735,0.348235411735,0.08273585825,0.01977177825,0.01672077825,1719,"DG_s09",15.969,16.594,17.328,17.328,28,4,10,10,0.734,"Left",28,4,24,24,0,0,0,-24,0,-24,24,24,"Advent",18,-6,28,10,4,10
"134",7,"POL RPC3-Ref-POL RPC4-Ref",-0.807101488,-0.7010853635,-0.5582314265,-0.5210940915,-0.5152655935,-0.656132198,-0.7237936915,-0.5604116315,-0.398343271,-0.1811983615,-0.311951053,-0.6234977895,-0.787674255,-0.6400432645,-0.1863156695,0.061715242,-0.119712001,-0.485477051,-0.991255008,-1.277389005,-1.082561306,-0.9136395935,-0.6453582745,-0.3005038025,-0.2459339505,-0.410386663,-0.6034479015,-0.7969867515,-0.3836736525,-0.0451476505,0.0441632745,0.2024238245,0.1525828245,0.2703220725,0.356692674,-0.000895923500000007,1719,"DG_s09",15.969,16.594,17.328,17.328,28,4,10,10,0.734,"Left",28,4,24,24,0,0,0,-24,0,-24,24,24,"Advent",18,-6,28,10,4,10
"135",7,"POL LAM3-Ref-POL LAM4-Ref",-1.1507860645,-1.310391343,-1.353130018,-1.349658977,-1.481878412,-1.438292887,-1.173142507,-0.8300012025,-0.7802440725,-0.6452762745,-0.9296830945,-1.0495591865,-1.2052239715,-1.3094259045,-1.1456326845,-1.3582007545,-1.2521389457,-0.7386055407,-0.8029491157,-0.6553176637,-0.7589224225,-1.3232403225,-1.5212101475,-1.7651454995,-1.7340237995,-1.6720647495,-1.6534923995,-1.5614963495,-1.3883899195,-0.8458101695,-0.6149385495,-0.5148331695,-0.7018809995,-1.170553079,-1.064170199,-0.972328264,1719,"DG_s09",15.969,16.594,17.328,17.328,28,4,10,10,0.734,"Left",28,4,24,24,0,0,0,-24,0,-24,24,24,"Advent",18,-6,28,10,4,10
"136",7,"POL RHP5-Ref-POL RHP6-Ref",0.595612466,0.5706943245,0.5732852295,0.5688555595,0.2385168735,0.296455086,0.384498177,0.1224889685,0.2645570045,0.7201536395,1.1489232085,1.252994717,1.2173888805,1.0130028805,0.623981609,0.6299219051,0.7409627416,0.4768309941,0.1090242156,0.07143757955,-0.19961014045,-0.19030282695,-0.16351817695,-0.381626337,-0.448348167,-0.499385533,-0.470230633,-0.309828969,-0.258358612,-0.174433149,0.011759001,0.172999237,0.523884665,0.340630952,0.139311002,-0.079198748,1719,"DG_s09",15.969,16.594,17.328,17.328,28,4,10,10,0.734,"Left",28,4,24,24,0,0,0,-24,0,-24,24,24,"Advent",18,-6,28,10,4,10
"137",7,"POL ROF2-Ref-POL ROF3-Ref",0.873723354,0.445407704,-0.032577111,-0.164725995,0.01618301,0.042070905,0.017972675,-0.0459705965,-0.1637786965,0.1939972085,0.2968224365,0.077066492,-0.135269108,-0.4016015285,-0.1730207615,0.2221852285,0.2986363935,0.325694614,0.219408214,0.011518414,-0.070928201,-0.317080951,-0.575938989,-0.5199735985,-0.4969140485,-0.5144158485,-0.5214126855,-0.357590641,0.054277209,0.362965409,0.4953198395,0.2421476895,-0.1476942105,-0.3225787965,-0.212587752,0.099657073,1719,"DG_s09",15.969,16.594,17.328,17.328,28,4,10,10,0.734,"Left",28,4,24,24,0,0,0,-24,0,-24,24,24,"Advent",18,-6,28,10,4,10
"138",7,"POL RPC5-Ref-POL RPC6-Ref",-0.0054657445,0.201437427,-0.105096173,0.08682431475,0.13193779175,0.04553300525,0.23924385425,0.106454579,0.260507629,0.318316629,0.3356535645,0.3962638631,0.1974482296,0.1904917546,0.1065095101,0.194461333,-0.0579475335,-0.3660053585,-0.4389621485,-0.5129069225,-0.2029643915,0.002640071,0.019519671,0.039571964,-0.194443967,-0.1612524395,0.011197914,-0.1049759055,0.1742633545,0.2729443645,0.356157811,0.7896389325,0.7721344225,0.3827124725,0.0483304225,-0.191853258,1719,"DG_s09",15.969,16.594,17.328,17.328,28,4,10,10,0.734,"Left",28,4,24,24,0,0,0,-24,0,-24,24,24,"Advent",18,-6,28,10,4,10
"139",7,"POL LAM6-Ref-POL LAM7-Ref",0.258435959,0.1526757385,0.1205992385,-0.1032834355,-0.1388622655,-0.19349512,-0.31813572,-0.242361296,0.113432504,-0.058685996,-0.18318469185,-0.29177442985,-0.51779869985,-0.25254233585,-0.25385832985,-0.22195766685,-0.2287579736,-0.2868107176,-0.17767350225,-0.06346134725,-0.1719059635,-0.0702429585,-0.22310003055,-0.14494871055,-0.03409412755,-0.0708969014,0.02290981565,-0.15020832235,-0.1500975579,-0.45899748405,-0.62997589455,-0.56079972655,-0.4838543275,-0.4160015543,-0.0298226643,-0.1675332893,1719,"DG_s09",15.969,16.594,17.328,17.328,28,4,10,10,0.734,"Left",28,4,24,24,0,0,0,-24,0,-24,24,24,"Advent",18,-6,28,10,4,10
"140",7,"POL ROF3-Ref-POL ROF4-Ref",0.7792725685,0.669837864,0.76409109,0.3865449,0.308878625,0.1101519045,0.02955754425,0.03518966975,0.00173656475,0.07864637975,0.1210529115,0.046437126,0.016161681,0.267183676,0.421016385,0.362187085,0.5532418025,0.5293988974,0.5267581644,0.7502602819,0.7038833034,0.575766738,0.421779693,0.5978585255,0.5827595955,0.595009135,0.548541726,0.3285508275,0.435468811,0.428108597,0.294284401,0.2042848495,0.078778257,-0.051470108,-0.030049023,0.222609227,1719,"DG_s09",15.969,16.594,17.328,17.328,28,4,10,10,0.734,"Left",28,4,24,24,0,0,0,-24,0,-24,24,24,"Advent",18,-6,28,10,4,10
"141",7,"POL RAM2-Ref-POL RAM3-Ref",0.3161487955,0.3209244225,0.232297494,0.3768622915,0.54229304215,0.44161183715,0.38259389715,0.29707379765,0.173720787,0.280828782,0.2550508305,0.12892118,0.52442446,0.93678046,1.27637406,1.4506710225,1.0171508925,0.6235394025,0.386591315,0.2398555225,0.2458881725,0.349298138,0.2252361205,0.1091144005,0.2792849055,0.2701967203,0.4301090903,0.5402935603,0.6017426553,0.704046315,0.90969955,0.971081225,0.919428406,0.747035871,0.634101886,0.714076956,1719,"DG_s09",15.969,16.594,17.328,17.328,28,4,10,10,0.734,"Left",28,4,24,24,0,0,0,-24,0,-24,24,24,"Advent",18,-6,28,10,4,10
"142",7,"POL RHP4-Ref-POL RHP5-Ref",0.395303707,0.042331057,-0.137714188,0.127133537,0.044254908,0.2167343805,0.4002377405,0.1967043055,0.352947237,0.2439748179,0.1082965279,0.1170550629,-0.0151234371,0.037366062,0.0411923898,-0.0820161102,-0.2186250752,-0.3312760777,-0.4355403055,-0.3565034055,-0.3115599555,-0.25233654,-0.2595436955,-0.4242343955,-0.4026023955,-0.395545146,-0.183124332,0.0602285955,0.169251746,0.390604781,0.2549357315,0.2119934323,0.0670306018,-0.2694615482,-0.2587588642,0.0679244575,1719,"DG_s09",15.969,16.594,17.328,17.328,28,4,10,10,0.734,"Left",28,4,24,24,0,0,0,-24,0,-24,24,24,"Advent",18,-6,28,10,4,10
"143",7,"POL RAM6-Ref-POL RAM7-Ref",-0.18133606795,-0.01752629795,0.15117483205,0.30904524105,0.49560223655,0.37230503655,0.22487048205,-0.05252051795,-0.31450545945,-0.28341536845,-0.28677195995,-0.36084990995,-0.20712712995,0.05806008255,0.19555686705,0.57037871705,0.85497983705,0.68795172205,0.71608281805,0.71925767805,0.55906861055,0.64547236555,0.56967342605,0.62462051605,0.6318409945,0.3159445545,0.2321761345,-0.0183445655,-0.23485907645,-0.22324202645,-0.38059055145,-0.48100065145,-0.26932970145,-0.21455883345,-0.0380626717,0.1555997768,1719,"DG_s09",15.969,16.594,17.328,17.328,28,4,10,10,0.734,"Left",28,4,24,24,0,0,0,-24,0,-24,24,24,"Advent",18,-6,28,10,4,10
"144",7,"POL RPC4-Ref-POL RPC5-Ref",-0.8353740115,-0.7892404615,-1.0089772315,-1.0403923095,-0.7496907315,-0.6060086985,-0.4811150485,-0.6111045205,-0.7463820935,-0.7981253845,-0.7439051985,-0.8071969235,-0.7314531505,-0.7018664895,-0.7495925755,-0.666713659,-0.956998309,-1.140760762,-1.230229012,-1.2151178353,-1.152483811,-1.189086961,-1.113122166,-1.1005272362,-1.1174507195,-0.7729701195,-0.3756533145,0.0154496574999999,0.6383434165,0.7554414665,0.9232609665,1.1271964665,0.9909382165,0.8541594665,0.4707824165,-0.0248223335000001,1719,"DG_s09",15.969,16.594,17.328,17.328,28,4,10,10,0.734,"Left",28,4,24,24,0,0,0,-24,0,-24,24,24,"Advent",18,-6,28,10,4,10
"145",8,"POL RAM5-Ref-POL RAM6-Ref",-0.6971358721,-0.5137406086,-0.4475528345,-0.381934661,-0.00692283100000002,-0.0474833198,0.0301123037,0.3121030337,0.0694499987,0.409131549,0.545514759,0.3768660135,1.5753064485,1.6221650485,1.4401947935,1.3870652385,-0.00833259149999999,-0.4555255865,0.0874099684999999,0.363688549,0.570999204,0.904851794,0.2361792995,-0.0593492265,0.2787119985,0.2978355535,0.1911662925,0.2368865105,-0.1622014505,-0.3568791505,-0.346941032,-0.3778953275,-0.4608105665,-0.7346228165,-0.7857339795,-0.842699206,1720,"DG_s09",18.328,18.938,19.734,19.75,10,10,4,4,0.796,"Left",4,4,0,0,0,0,0,0,0,0,0,0,"10-10",6,6,10,4,10,4
"146",8,"POL LAM5-Ref-POL LAM6-Ref",-0.1708836575,-0.300556746,-0.4783111785,-0.3196017665,-0.1403079575,-0.284840794,-0.3264527715,-0.5832396835,-0.7989468625,-0.621311445,-0.658829745,-0.367103975,-0.194770815,-0.4279407575,-0.174471063,-0.111584283,0.081784527,0.323269326,0.7345509315,0.8189296315,0.8401664315,1.0080198825,0.9812693325,0.859314365,0.4786677145,0.3381189645,-0.0341005445,-0.1632776315,0.180040719,0.063172489,-0.1034682295,-0.1998246565,-0.49159290515,-0.29618292515,-0.15105248165,-0.03047755015,1720,"DG_s09",18.328,18.938,19.734,19.75,10,10,4,4,0.796,"Left",4,4,0,0,0,0,0,0,0,0,0,0,"10-10",6,6,10,4,10,4
"147",8,"POL LAM6-Ref-POL LAM7-Ref",-0.427192791,-0.456712363,-0.2457711845,-0.2586048845,-0.2450315345,-0.3879130655,-0.459470974,-0.198576469,-0.031425872,0.422267878,0.5345261675,0.2112984625,0.0745918655,-0.283793619,-0.1201765285,0.3887742715,0.8527080715,1.0641556245,1.3017843745,0.9344252505,0.7743448505,0.977956632,0.922118832,0.9793918205,0.7536251205,0.5344362625,0.1260370775,0.032854848,0.303941943,0.392287778,0.476008698,1.010766213,0.862204913,0.710697215,0.82584623,0.4478149435,1720,"DG_s09",18.328,18.938,19.734,19.75,10,10,4,4,0.796,"Left",4,4,0,0,0,0,0,0,0,0,0,0,"10-10",6,6,10,4,10,4
"148",8,"POL ROF1-Ref-POL ROF2-Ref",0.0101774245,-0.2879414005,-0.51143189,-0.47122537,-0.91905537,-1.129702995,-0.98979905,-0.72944925,-0.5413102725,-0.4518416225,-0.502819916,-0.491025056,-0.6140329935,-0.4966036345,-0.56311400945,-0.91913666945,-0.85303967395,-0.90877980045,-1.199754882,-1.246731832,-1.1701777775,-1.051901665,-0.669034315,-0.566744471,-0.6644384945,-0.7521066385,-0.8419255135,-0.7914447425,-0.67565062465,-0.50116423565,-0.25941521065,0.26716032435,0.2583351555,0.00243514849999993,-0.1930421615,-0.433592346,1720,"DG_s09",18.328,18.938,19.734,19.75,10,10,4,4,0.796,"Left",4,4,0,0,0,0,0,0,0,0,0,0,"10-10",6,6,10,4,10,4
"149",8,"POL LAM1-Ref-POL LAM2-Ref",0.360833961125,0.386494726125,0.237797546125,0.064503980125,0.1087195947,0.1436763897,0.3433902297,0.4751535677,0.4438036152,0.7089580152,0.4488403552,0.2034113682,0.0941519457,-0.2583958743,-0.1711079128,0.1518918372,0.3939739862,0.1357564062,0.0089875047,-0.3015370453,-0.4503308943,-0.27255377425,-0.25378762425,-0.19581517425,-0.21741442425,-0.2651487643,-0.00250481430000001,0.3483638857,0.6493979357,0.6415145857,0.72045513746,0.91314559246,1.33395629246,1.67417435296,1.5660340862,1.2682682312,1720,"DG_s09",18.328,18.938,19.734,19.75,10,10,4,4,0.796,"Left",4,4,0,0,0,0,0,0,0,0,0,0,"10-10",6,6,10,4,10,4
"150",8,"POL RAM4-Ref-POL RAM5-Ref",-0.2948060075,-0.2841188505,-0.4444006975,-0.4068164145,-0.0023514845,0.00849088049999999,0.4121778405,0.7744061375,0.3967118775,0.6053743275,0.9611360775,1.1932223275,3.0960316875,3.7668885705,3.2291783105,2.7325799665,0.8978278955,-0.1806018045,-0.0550681995,0.1035248935,0.4052234445,1.1101662945,0.7927557295,0.6390001395,1.1472881595,1.5344106595,1.792720453,1.778236994,1.115120494,0.521587994,0.4302315105,0.2362688105,0.0256542605,-0.4701733895,-0.7313515295,-0.6760965295,1720,"DG_s09",18.328,18.938,19.734,19.75,10,10,4,4,0.796,"Left",4,4,0,0,0,0,0,0,0,0,0,0,"10-10",6,6,10,4,10,4
"151",8,"POL RAM3-Ref-POL RAM4-Ref",0.4987423532,0.6332102642,0.6988460377,0.5019370017,0.3889477527,0.4753514927,0.9676374342,2.3266079842,3.1711937087,3.0150808437,3.1508923437,2.2312775437,1.6817092437,1.8692071037,1.7506656037,1.6660735037,1.4686789237,1.3893764237,0.9306609292,0.6805659226,0.9234960526,1.1683371026,1.4075649471,1.5951545537,1.4489918487,1.4114698487,1.2927514192,1.0307675392,0.7793957442,0.4215295482,0.6086445777,1.1428115577,1.2825621122,1.2470337617,0.9354035767,0.5005637367,1720,"DG_s09",18.328,18.938,19.734,19.75,10,10,4,4,0.796,"Left",4,4,0,0,0,0,0,0,0,0,0,0,"10-10",6,6,10,4,10,4
"152",8,"POL ROF3-Ref-POL ROF4-Ref",-0.7115356865,-0.8059790365,-0.7936935865,-0.8482681315,-0.66814331,-0.42150433915,-0.13686178915,-0.10378031915,-0.42267241915,-0.62372609,-0.87540649,-0.7713004335,-0.6668899335,-0.5294624178,-0.4404798178,-0.5012947343,-0.2680878843,-0.1142214,0.1154669,0.22241632,0.07989786,0.08533902,-0.191025445,-0.06342742,-0.1979944965,-0.2548130265,-0.0206235615,-0.2935349095,-0.2926814225,-0.2618543575,-0.4334138875,-0.361343159315,-0.419984946315,-0.422785056315,-0.517124076315,-0.4804843585,1720,"DG_s09",18.328,18.938,19.734,19.75,10,10,4,4,0.796,"Left",4,4,0,0,0,0,0,0,0,0,0,0,"10-10",6,6,10,4,10,4
"153",8,"POL ROF4-Ref-POL ROF5-Ref",0.765174516,0.723919266,0.631365216,0.566960692,0.281872092,0.327101642,0.143775962,0.188352757,0.199199307,0.0550345425,0.0664390155,-0.0273505445,-0.0796676795,-0.356167315,-0.3665109046,-0.0931157546,0.1246495754,0.4599129754,0.477046639,0.226379134,-0.030608511,-0.217400654,-0.26325056805,-0.41717101305,-0.13157313805,-0.10677171505,-0.158215296,0.225941154,0.255512364,-0.000261715999999995,0.1494035745,-0.0167512445,-0.05823014,0.30244836,0.1395754925,0.2202788665,1720,"DG_s09",18.328,18.938,19.734,19.75,10,10,4,4,0.796,"Left",4,4,0,0,0,0,0,0,0,0,0,0,"10-10",6,6,10,4,10,4
"154",8,"POL RPC5-Ref-POL RPC6-Ref",-0.27703077495,-0.57167331045,-0.73875856045,-0.90841524045,-0.81226382845,-0.76339678645,-1.08461298645,-0.97213620445,-0.92048010045,-0.86464270695,-0.71312105995,-0.75187674395,-0.94713095895,-0.76412711495,-0.72862084195,-0.65551469495,-0.40612297995,-0.27272912395,-0.11759668795,-0.37845655295,-0.73074210295,-1.04849786095,-0.85302251695,-0.31220421695,0.14069283305,0.45290309105,0.26495769105,-0.00549040894999997,-0.16933140895,-0.32520360895,-0.59407165895,-0.80827061895,-1.00851148395,-1.27204173395,-1.18468977245,-1.09116029495,1720,"DG_s09",18.328,18.938,19.734,19.75,10,10,4,4,0.796,"Left",4,4,0,0,0,0,0,0,0,0,0,0,"10-10",6,6,10,4,10,4
"155",8,"POL LAM3-Ref-POL LAM4-Ref",-0.0209791262,0.2552657513,0.2201317628,-0.1084916372,-0.2564085577,-0.4988809577,-0.5116783947,-0.5261688447,-0.3607696247,-0.4035403247,-0.4849948747,-0.5466878247,-0.5979597517,-0.6060850017,-0.3675336102,-0.1146595661,-0.1520133891,-0.0655752541,0.1428809044,0.2129634253,0.2872802143,0.3974629293,0.3777126793,0.2601683383,0.2451259443,0.0252242943,-0.2479729057,-0.2135089677,-0.1337051702,0.4936889798,0.7757382298,0.7671449843,0.5551143718,0.0080682418,-0.1784666057,-0.0060796822,1720,"DG_s09",18.328,18.938,19.734,19.75,10,10,4,4,0.796,"Left",4,4,0,0,0,0,0,0,0,0,0,0,"10-10",6,6,10,4,10,4
"156",8,"POL LAM2-Ref-POL LAM3-Ref",1.5047587315,1.288036105,0.9188117821,0.5572951321,0.0588836321,-0.1285191914,-0.3683671185,-0.3516204185,-0.3942188185,-0.3750320185,-0.0711183725,0.3091479275,0.7074751275,1.1847590275,1.2820977815,1.0591061655,1.0719391405,0.678128227,0.591599077,0.761006743,0.579321514,0.6762323025,0.7371662525,0.6460178625,0.4946008665,0.431698656,0.231386676,0.027317276,0.1408569325,0.112491086,0.407584666,0.5625277085,0.527160652,0.554658841,0.360986286,0.2641759335,1720,"DG_s09",18.328,18.938,19.734,19.75,10,10,4,4,0.796,"Left",4,4,0,0,0,0,0,0,0,0,0,0,"10-10",6,6,10,4,10,4
