"","trial","electrodes","bin_1","bin_2","bin_3","bin_4","bin_5","bin_6","bin_7","bin_8","bin_9","bin_10","bin_11","bin_12","bin_13","bin_14","bin_15","bin_16","bin_17","bin_18","bin_19","bin_20","bin_21","bin_22","bin_23","bin_24","bin_25","bin_26","bin_27","bin_28","bin_29","bin_30","bin_31","bin_32","bin_33","bin_34","bin_35","bin_36","X","SID","newround_time","choice_time","buttonpress_time","reveal_time","self_payoff","other_payoff","self_foregone","other_foregone","RT","side_chosen","self_var_payoff","other_var_payoff","ineq_var_abs","ineq_choice_abs","ineq_foregone_abs","ineq_foregone","ineq_disadvent","ineq_advent","ineq_disadvent_choice","ineq_advent_choice","ineq_var","ineq_choice","chose_equality","self_diff","other_diff","L_self","R_self","L_other","R_other"
"1",2,"POL RPC5-Ref-POL RPC6-Ref",0.5174420745,1.0269427745,1.4889922745,1.8220054,1.97969,1.960034,1.8094433,1.59855225,1.38984835,1.2126833155,1.0612118055,0.9149962055,0.7644038055,0.61818654,0.49606735,0.42358965,0.42009575,0.48961195,0.62082165425,0.78896000575,0.96214820575,1.10429795575,1.1712602265,1.117366312,0.931331812,0.720118962,0.6619578505,0.8378951135,1.2342561635,1.7009581635,2.0216489,2.09645125,1.9232552,1.5740161995,1.1820436995,0.8953731995,1714,"DG_s09",3,3.625,4.797,4.797,12,12,10,10,1.172,"Left",12,12,0,0,0,0,0,0,0,0,0,0,"Equal",2,2,12,10,12,10
"2",2,"POL RPC4-Ref-POL RPC5-Ref",-0.1608350415,-0.2473561415,-0.1788857285,0.1168041715,0.6501352215,1.2342579215,1.6589537585,1.8716997585,1.8771517585,1.7106043085,1.4180311585,1.041174108,0.621253323,0.228126373,-0.029551927,-0.1034955115,-0.017957814,0.150308086,0.2751948675,0.290800822,0.2167239595,0.1092848095,0.009874878,-0.0801621415,-0.1916008915,-0.3461962415,-0.4752195915,-0.5230475415,-0.4813526415,-0.3803919415,-0.3251049415,-0.3600225915,-0.4403383915,-0.4980264415,-0.4916684415,-0.4161516415,1714,"DG_s09",3,3.625,4.797,4.797,12,12,10,10,1.172,"Left",12,12,0,0,0,0,0,0,0,0,0,0,"Equal",2,2,12,10,12,10
"3",2,"POL RHP6-Ref-POL RHP7-Ref",-0.93192680365,-0.97627470365,-0.95887635365,-0.91757630365,-0.88723375365,-0.88491350365,-0.91474630365,-0.97776645365,-1.07110180365,-1.15839740365,-1.16366220365,-1.03840897415,-0.76676363415,-0.38622008415,0.00825896585000002,0.33183423635,0.51167519635,0.48873469635,0.23506890735,-0.17703439265,-0.46411271255,-0.45397676255,-0.11844172355,0.45580157645,0.98145194635,1.29758019635,1.39423219635,1.32139819635,1.15180519635,0.94496839635,0.72923189635,0.49450029635,0.20897499785,-0.15004050215,-0.58153965215,-0.95495970215,1714,"DG_s09",3,3.625,4.797,4.797,12,12,10,10,1.172,"Left",12,12,0,0,0,0,0,0,0,0,0,0,"Equal",2,2,12,10,12,10
"4",2,"POL ROF2-Ref-POL ROF3-Ref",-0.963795906,-0.497980106,0.031148544,0.4699069205,0.8024888205,1.0189562705,1.0979232705,1.0099302705,0.7461077205,0.344567046,-0.111035794,-0.522504294,-0.818957194,-0.9779666195,-1.0241565795,-1.0100870795,-0.9856800795,-0.9813051795,-1.0070873295,-1.0591294295,-1.0992561795,-1.0489757815,-0.8623086265,-0.5454223265,-0.1614021765,0.1689946255,0.3478428705,0.3341405705,0.1278721235,-0.2254707265,-0.5835236265,-0.7759149731,-0.7603111611,-0.5933788611,-0.4307616611,-0.419601858,1714,"DG_s09",3,3.625,4.797,4.797,12,12,10,10,1.172,"Left",12,12,0,0,0,0,0,0,0,0,0,0,"Equal",2,2,12,10,12,10
"5",2,"POL ROF5-Ref-POL ROF6-Ref",-0.16471965,-0.19140245,-0.18262895,-0.1546161,-0.12580115,-0.0821683,0.0243301500000001,0.2327331433,0.5494481933,0.9265786433,1.2794299933,1.5458957,1.70340905,1.7540235,1.7067738,1.5661501,1.329675614,1.001802564,0.631531164,0.362462514,0.28229031,0.390934955,0.629169755,0.847583105,0.963707495,0.9824696,0.9300743068,0.8372030583,0.7294558583,0.6242595083,0.5339720015,0.4674702,0.42731185,0.4068134,0.39011075,0.34997515,1714,"DG_s09",3,3.625,4.797,4.797,12,12,10,10,1.172,"Left",12,12,0,0,0,0,0,0,0,0,0,0,"Equal",2,2,12,10,12,10
"6",2,"POL LAM5-Ref-POL LAM6-Ref",0.6110414,0.86988005,1.0798408,1.1769098,1.1195463,0.91148185,0.60285205,0.2658019,-0.041372045,-0.2949184892,-0.5057322892,-0.7029203892,-0.9091016442,-1.08101085,-1.15262145,-1.12552095,-1.02242465,-0.9239712,-0.89507325,-0.87759515,-0.8050086425,-0.6527263925,-0.4486077425,-0.2721721425,-0.18632065,-0.18831325,-0.21548465,-0.1958567,-0.09486385,0.0679432,0.2231884,0.29725195,0.2557081,0.10814915,-0.106341506,-0.337890416,1714,"DG_s09",3,3.625,4.797,4.797,12,12,10,10,1.172,"Left",12,12,0,0,0,0,0,0,0,0,0,0,"Equal",2,2,12,10,12,10
"7",2,"POL LAM6-Ref-POL LAM7-Ref",1.028609539,1.297670422,1.420188372,1.399391372,1.255492472,1.035193622,0.818573122,0.695265822,0.718646872,0.887922322,1.146558372,1.408624622,1.601685472,1.680790872,1.634984172,1.493737722,1.314036322,1.149827272,1.021307972,0.910822472,0.785469102,0.621859204,0.422749504,0.217925204,0.056091124,-0.018270578,0.00877639200000002,0.1177570093,0.2593057943,0.3723819993,0.40849439363,0.33693207633,0.17704529133,0.05790083633,0.0819454455,0.2671651455,1714,"DG_s09",3,3.625,4.797,4.797,12,12,10,10,1.172,"Left",12,12,0,0,0,0,0,0,0,0,0,0,"Equal",2,2,12,10,12,10
"8",2,"POL LAM3-Ref-POL LAM4-Ref",0.511166970265,0.381327465265,0.113544533615,-0.258704716385,-0.682702866385,-0.971451911385,-1.031284129735,-0.858883204235,-0.467193554235,-0.017814654235,0.386471445765,0.700339620265,0.876799620265,0.882425970265,0.711430570265,0.388708865765,-0.034923584235,-0.484262784235,-0.845085484235,-1.029999929735,-1.018558079735,-0.824234621685,-0.518908491685,-0.176778291685,0.157966008315,0.430861700265,0.590004770265,0.604992970265,0.476662020265,0.241422095765,-0.033975954235,-0.272213754235,-0.418445354235,-0.465164529735,-0.449670079735,-0.427499779735,1714,"DG_s09",3,3.625,4.797,4.797,12,12,10,10,1.172,"Left",12,12,0,0,0,0,0,0,0,0,0,0,"Equal",2,2,12,10,12,10
"9",2,"POL ROF4-Ref-POL ROF5-Ref",-0.21598035,-0.1436612,-0.08845155,-0.04898125,-0.01404035,0.0215607,0.06451575,0.1209091,0.1895554,0.263693885,0.338951283,0.417482683,0.497866533,0.563098548,0.57959626,0.50489243,0.30984438,0.01124988,-0.22021413,-0.2700146,-0.120376881,0.202546219,0.526250719,0.741775219,0.8486967,0.8853636,0.90293345,0.9379116,0.98717015,1.0083626,0.955702,0.809868398685,0.579815198685,0.293121898685,-0.004571201315,-0.2192033,1714,"DG_s09",3,3.625,4.797,4.797,12,12,10,10,1.172,"Left",12,12,0,0,0,0,0,0,0,0,0,0,"Equal",2,2,12,10,12,10
"10",2,"POL RPC2-Ref-POL RPC3-Ref",0.3184061835,0.5333069835,0.7124643835,0.802323215,0.78681604,0.6811599055,0.5231173055,0.3580919055,0.2216485155,0.13375215,0.10558975,0.14511378,0.25439880625,0.41321025625,0.56966405625,0.65741252125,0.624392074135,0.461247574135,0.232469124135,0.077529079135,0.0783953645,0.2321482445,0.4628685945,0.6234766495,0.621402206,0.446049326,0.146101526,-0.101434179,-0.1842527,-0.09325681,0.14763709145,0.39549424145,0.56480569145,0.65559305145,0.667545605,0.59818706233,1714,"DG_s09",3,3.625,4.797,4.797,12,12,10,10,1.172,"Left",12,12,0,0,0,0,0,0,0,0,0,0,"Equal",2,2,12,10,12,10
"11",2,"POL RAM6-Ref-POL RAM7-Ref",0.8367484745,1.0283532485,1.0805529485,1.0154327985,0.8722711985,0.6983753135,0.5351912334,0.4087999934,0.3305927234,0.3032455336,0.3251360287,0.3889116187,0.4782851387,0.5708279635,0.6430304985,0.6779673985,0.6735114985,0.6474657985,0.6307892985,0.6491766985,0.7143879485,0.8087007985,0.8905762485,0.9188831985,0.8652554985,0.72220660555,0.51122180555,0.28519635555,0.10551255555,0.0177699985,0.0289596985,0.0966922485,0.1533050985,0.1445389485,0.0552943485,-0.0849483515,1714,"DG_s09",3,3.625,4.797,4.797,12,12,10,10,1.172,"Left",12,12,0,0,0,0,0,0,0,0,0,0,"Equal",2,2,12,10,12,10
"12",2,"POL LAM1-Ref-POL LAM2-Ref",-0.737828,-0.80301625,-0.8129739,-0.7930565,-0.77789825,-0.80164865,-0.87771345,-0.9900865,-1.1056626,-1.1907422,-1.227861,-1.2209433,-1.18670155,-1.14649655,-1.12073005,-1.1285258,-1.19091285,-1.325793053,-1.521975753,-1.695199953,-1.7345141755,-1.5936551725,-1.3026659225,-0.9809456225,-0.77458435,-0.76218695,-0.9526260135,-1.2946115635,-1.6662359135,-1.9169001135,-1.984323915,-1.88454806965,-1.70949361965,-1.58864648465,-1.57770173195,-1.6799467773,1714,"DG_s09",3,3.625,4.797,4.797,12,12,10,10,1.172,"Left",12,12,0,0,0,0,0,0,0,0,0,0,"Equal",2,2,12,10,12,10
"13",2,"POL RPC3-Ref-POL RPC4-Ref",0.4127645895,0.480334665,0.531098165,0.599928715,0.696194115,0.783423515,0.798353965,0.6940633665,0.4932491215,0.2929807715,0.18216512725,0.18875920075,0.27678914575,0.36014614575,0.37060049795,0.29068674795,0.12959059795,-0.09442565205,-0.32637301,-0.445304885,-0.417090835,-0.2552667275,-0.023588641,0.13578609535,0.17305739035,0.10585823285,-0.02402205365,-0.17104449,-0.296303485,-0.364954635,-0.343627335,-0.207190729,0.047601621,0.386347221,0.743907821,1.039502315,1714,"DG_s09",3,3.625,4.797,4.797,12,12,10,10,1.172,"Left",12,12,0,0,0,0,0,0,0,0,0,0,"Equal",2,2,12,10,12,10
"14",2,"POL RAM5-Ref-POL RAM6-Ref",-0.69961835,-0.74365555,-0.77202165,-0.82693936905,-0.92413597905,-1.03556517905,-1.12266697905,-1.17891301,-1.2366592,-1.3457305,-1.5225529,-1.72000445,-1.86790105,-1.9364791,-1.93978675,-1.9261452,-1.924321,-1.88140655,-1.74106249,-1.4781021395,-1.1141818895,-0.7248986895,-0.3740613995,-0.0952927499999999,0.09905615,0.19753685,0.18139845,0.0383015500000001,-0.228133846,-0.596679133,-1.026368533,-1.443631383,-1.704594787,-1.7759194,-1.68400605,-1.4946602,1714,"DG_s09",3,3.625,4.797,4.797,12,12,10,10,1.172,"Left",12,12,0,0,0,0,0,0,0,0,0,0,"Equal",2,2,12,10,12,10
"15",2,"POL LAM2-Ref-POL LAM3-Ref",-0.0149028499999999,-0.0673961999999999,-0.0915656999999999,-0.10276165,-0.1348429,-0.21129,-0.3214083,-0.43019705,-0.50776015,-0.5435801,-0.5430467,-0.51555305,-0.4657588,-0.39713065,-0.3198657,-0.2560906,-0.2336956,-0.2691495,-0.34732995,-0.4137081,-0.4068218,-0.3023582,-0.1326133,0.0212599,0.07107435,-0.0365819999999999,-0.3052251165,-0.6906774365,-1.1109379365,-1.4599474365,-1.66800197,-1.73427965,-1.7046151,-1.6506458,-1.60699425,-1.55963535,1714,"DG_s09",3,3.625,4.797,4.797,12,12,10,10,1.172,"Left",12,12,0,0,0,0,0,0,0,0,0,0,"Equal",2,2,12,10,12,10
"16",2,"POL RHP4-Ref-POL RHP5-Ref",0.2328539771,0.2137954736,0.2093817236,0.2487195436,0.33590183365,0.45098911715,0.56396204715,0.65276144715,0.71075349715,0.75629874715,0.84038869715,1.01525774715,1.29203214715,1.62414144715,1.91485964715,2.06384914715,2.02014814715,1.79886049715,1.47288249715,1.14754909715,0.91353684715,0.81152859715,0.81322584715,0.83660014715,0.79251929715,0.62488915415,0.33517095415,-0.02751909585,-0.38968659585,-0.62446730285,-0.71791410285,-0.70170685285,-0.61494000285,-0.54949675285,-0.50520235285,-0.45780340285,1714,"DG_s09",3,3.625,4.797,4.797,12,12,10,10,1.172,"Left",12,12,0,0,0,0,0,0,0,0,0,0,"Equal",2,2,12,10,12,10
"17",2,"POL ROF3-Ref-POL ROF4-Ref",-1.302355875,-1.622256475,-1.925669675,-2.0931902265,-2.09384842,-1.953674233765,-1.747698260215,-1.624047808715,-1.575883073465,-1.5268310097,-1.43677933325,-1.32442443475,-1.26405435,-1.3207727905,-1.5006783905,-1.7619754405,-2.0284953405,-2.20695355,-2.23973015,-2.107559089,-1.829901189,-1.463191139,-1.065964489,-0.70287975,-0.4386916,-0.3241811,-0.38501965,-0.61579525,-0.9848704435,-1.4311949435,-1.8443201935,-2.1099863935,-2.2056709,-2.15846575,-2.04061085,-1.93238435,1714,"DG_s09",3,3.625,4.797,4.797,12,12,10,10,1.172,"Left",12,12,0,0,0,0,0,0,0,0,0,0,"Equal",2,2,12,10,12,10
"18",2,"POL ROF1-Ref-POL ROF2-Ref",-0.7706479773,-0.9163693908,-0.8026509143,-0.4468645143,-0.0165357643,0.2767840357,0.4017633692,0.3830686692,0.2706373192,0.1187192692,-0.0298778108,-0.15569204945,-0.26114447445,-0.36033367445,-0.47106699445,-0.6044445558,-0.7641021808,-0.9539159808,-1.1460010808,-1.2243304808,-1.1417027808,-0.9018069273,-0.5610141773,-0.2722218773,-0.1143846773,-0.09543327525,-0.16687643525,-0.2403264002,-0.2460402352,-0.17125954075,-0.05688518075,0.0254835842,0.0246282692,-0.0630650388,-0.2143565388,-0.3990794888,1714,"DG_s09",3,3.625,4.797,4.797,12,12,10,10,1.172,"Left",12,12,0,0,0,0,0,0,0,0,0,0,"Equal",2,2,12,10,12,10
"19",2,"POL RAM2-Ref-POL RAM3-Ref",-1.0746183695,-1.151013267,-0.9685754825,-0.5548009825,-0.0644233825,0.32978875,0.5733916,0.6689152,0.6490727,0.5516117,0.3979445,0.19399755,-0.0532930500000001,-0.3194974115,-0.5599936115,-0.7339163515,-0.8316675415,-0.87826523,-0.91800838,-0.98796939,-1.10201505,-1.2561471,-1.434984,-1.6158118,-1.76188485,-1.85366325,-1.8787656,-1.8340396,-1.74366945,-1.6270345,-1.51452565,-1.44077665,-1.41526245,-1.41353505,-1.4105461,-1.4056309,1714,"DG_s09",3,3.625,4.797,4.797,12,12,10,10,1.172,"Left",12,12,0,0,0,0,0,0,0,0,0,0,"Equal",2,2,12,10,12,10
"20",2,"POL RHP5-Ref-POL RHP6-Ref",0.0810785000000001,0.00367554999999997,0.01805995,0.15729645,0.427973774,0.715899399,0.924189949,1.062833949,1.160007725,1.23305165,1.2719193,1.24904945,1.1502641895,0.9949345895,0.8199703395,0.6532024895,0.50831055,0.38379585,0.30010555,0.3273621,0.5225151005,0.8962484505,1.3991777005,1.9207245005,2.35710855,2.64922085,2.77693185,2.73992085,2.54086355,2.18853825,1.708251646,1.150065396,0.618213546,0.262757896,0.09573395,0.07189865,1714,"DG_s09",3,3.625,4.797,4.797,12,12,10,10,1.172,"Left",12,12,0,0,0,0,0,0,0,0,0,0,"Equal",2,2,12,10,12,10
"21",2,"POL RPC1-Ref-POL RPC2-Ref",0.33311856955,0.47862011955,0.59695466955,0.69694019,0.8063428,0.9492005,1.12154145,1.28993735,1.4095328,1.44992765,1.4144471,1.33441925,1.24612415,1.17065695,1.1098482,1.0517798,0.98348745,0.90616595,0.8395511,0.81239885,0.8422949,0.9218756,1.02053775,1.09704625,1.1153865,1.0514947,0.8956728455,0.6572810455,0.3671059955,0.0769126955,-0.1544795,-0.29017965,-0.32455655,-0.27634125,-0.1793211,-0.05785405,1714,"DG_s09",3,3.625,4.797,4.797,12,12,10,10,1.172,"Left",12,12,0,0,0,0,0,0,0,0,0,0,"Equal",2,2,12,10,12,10
"22",2,"POL RAM3-Ref-POL RAM4-Ref",-0.6362886101,-0.8462231325,-0.929739,-0.88955895,-0.73954435,-0.575890865,-0.46937955675,-0.38880020225,-0.29342180225,-0.15034893725,0.0514337045,0.295996,0.54762475,0.76309955,0.90404765,0.94709445,0.89066275,0.7543336,0.57273535,0.3851919,0.21579405,0.06533075,-0.079581527,-0.232618007,-0.393600607,-0.545859907,-0.66212998,-0.71705885,-0.7058726,-0.648344,-0.57921145,-0.5382643,-0.5532253,-0.6331966,-0.7580651,-0.84731175,1714,"DG_s09",3,3.625,4.797,4.797,12,12,10,10,1.172,"Left",12,12,0,0,0,0,0,0,0,0,0,0,"Equal",2,2,12,10,12,10
"23",2,"POL RAM4-Ref-POL RAM5-Ref",0.2233835,0.1940751,0.1363929,0.0532034,-0.0557621,-0.16729015,-0.2283263,-0.23297935,-0.18933755,-0.1327076,-0.12389935,-0.1579407,-0.19580495,-0.20573915,-0.1744301,-0.10714095,-0.02870755,0.04778755,0.1224767,0.19689195,0.274292335,0.3615067,0.46614452,0.58993047,0.723005635,0.83547817,0.8874026,0.8509406,0.7210156042,0.5203450042,0.3054266042,0.1444229542,0.06921925,0.07555925,0.12682955,0.1671755,1714,"DG_s09",3,3.625,4.797,4.797,12,12,10,10,1.172,"Left",12,12,0,0,0,0,0,0,0,0,0,0,"Equal",2,2,12,10,12,10
"24",2,"POL ROF6-Ref-POL ROF7-Ref",-0.6449970675,-0.1651334175,0.3093634115,0.5861511865,0.6000846365,0.3594382865,-0.0521869395,-0.45533303485,-0.68235294935,-0.69647519935,-0.56339822335,-0.444358528,-0.4875179685,-0.7092986685,-1.0234051685,-1.2886050685,-1.4232584135,-1.4167658635,-1.3105047635,-1.1951593635,-1.1211714135,-1.0934445635,-1.1057677135,-1.1416532135,-1.1736730635,-1.1741413135,-1.1224636085,-1.0127381932,-0.8577327932,-0.6846239932,-0.5279862482,-0.4222119635,-0.3964424635,-0.4744851185,-0.6671124335,-0.9383748835,1714,"DG_s09",3,3.625,4.797,4.797,12,12,10,10,1.172,"Left",12,12,0,0,0,0,0,0,0,0,0,0,"Equal",2,2,12,10,12,10
"25",3,"POL LAM6-Ref-POL LAM7-Ref",-0.426536479,-0.281613279,-0.135114729,0.0100161598,0.1745140098,0.3731181598,0.6071303098,0.865284271,1.124732821,1.357394671,1.536916421,1.642397171,1.666770171,1.619277171,1.532575171,1.459777671,1.438377171,1.463397171,1.489425171,1.455115821,1.318473921,1.078728621,0.7673626949,0.4259991949,0.1006615449,-0.1691338551,-0.366508279,-0.501186079,-0.595038029,-0.640378379,-0.597159579,-0.4330730685,-0.1378201205,0.2480954795,0.6457195295,0.987075669,1715,"DG_s09",5.797,6.422,7.688,7.688,10,10,8,8,1.266,"Left",8,8,0,0,0,0,0,0,0,0,0,0,"10-10",2,2,10,8,10,8
"26",3,"POL ROF2-Ref-POL ROF3-Ref",-0.41255330749,-0.55583881,-0.70111039,-0.84407224,-0.99525604,-1.14490499,-1.18929909,-1.11016199,-0.92428314,-0.69676944,-0.59379164,-0.65385389,-0.77078504,-0.80126169,-0.680668283,-0.409100233,-0.093153783,0.141934867,0.24600921,0.1897044885,-0.0431952115,-0.3916793115,-0.6072284615,-0.55939538895,-0.22118153895,0.33067936105,0.82874736105,1.14119596,1.24454371,1.15281131,0.90325441,0.564301655,0.24905174,0.05401524,0.00543353999999999,0.056949595,1715,"DG_s09",5.797,6.422,7.688,7.688,10,10,8,8,1.266,"Left",8,8,0,0,0,0,0,0,0,0,0,0,"10-10",2,2,10,8,10,8
"27",3,"POL LAM5-Ref-POL LAM6-Ref",-0.9434636,-0.7882692,-0.5507039,-0.3113475,-0.1029044,0.06688165,0.19781935,0.29609785,0.38884035,0.51751735,0.70748285,0.94792185,1.18961685,1.35970435,1.38612385,1.22582685,0.87502335,0.36778625,-0.2200658755,-0.7528015755,-1.07625896295,-1.13673451295,-0.96207518745,-0.65554048745,-0.3579066,-0.13660145,-0.0105921499999999,0.01864285,-0.0375424500000001,-0.15795905,-0.3183341,-0.4848046,-0.6058406,-0.62725765,-0.52456175,-0.32064775,1715,"DG_s09",5.797,6.422,7.688,7.688,10,10,8,8,1.266,"Left",8,8,0,0,0,0,0,0,0,0,0,0,"10-10",2,2,10,8,10,8
"28",3,"POL RPC4-Ref-POL RPC5-Ref",0.03512095,0.0762981025,0.1963124575,0.3407478075,0.4237779162,0.4071987837,0.3071372787,0.1606895287,0.01678917,-0.0466054,0.02508609,0.21386884,0.45232309,0.63107104,0.670646475,0.5952023103,0.5201572203,0.5856771703,0.8573752953,1.29993486,1.78273595,2.1293411,2.2174258,2.01966905,1.59455299,1.062024955,0.569105105,0.226279855,0.066055365,0.06775062,0.16941560955,0.28931649455,0.36594172355,0.35708638855,0.243939599,0.044885014,1715,"DG_s09",5.797,6.422,7.688,7.688,10,10,8,8,1.266,"Left",8,8,0,0,0,0,0,0,0,0,0,0,"10-10",2,2,10,8,10,8
"29",3,"POL LAM2-Ref-POL LAM3-Ref",0.6503599565,0.7716981915,0.8114786415,0.7714276415,0.6627665915,0.4982790135,0.2886095135,0.0452621635,-0.2038311865,-0.3864240585,-0.4382989085,-0.3489361835,-0.14452868165,0.09909796835,0.31259946835,0.47902549335,0.6025364915,0.6864391915,0.7211445915,0.6837696915,0.55129964095,0.31580529095,-0.00520440905,-0.29392480905,-0.4140428085,-0.3493760485,-0.1110666485,0.1958842515,0.4499928015,0.6456410915,0.7884830415,0.8785724415,0.9073625915,0.8620764915,0.7400539915,0.5648184295,1715,"DG_s09",5.797,6.422,7.688,7.688,10,10,8,8,1.266,"Left",8,8,0,0,0,0,0,0,0,0,0,0,"10-10",2,2,10,8,10,8
"30",3,"POL RPC5-Ref-POL RPC6-Ref",0.588138173,0.912130523,1.207105423,1.454152925,1.62315795,1.6789714,1.58924565,1.336641406,0.930419456,0.494977406,0.279701756,0.310822697,0.552362397,0.866930697,1.0100121015,0.9720232495,0.8293851995,0.7098363995,0.7089332831,0.8365843381,1.0232572881,1.1325703896,1.0632280315,0.8495723815,0.6591848315,0.6320866185,0.8171626885,1.1705558885,1.5641587885,1.9192443,2.20778675,2.3959041,2.4395251,2.30307375,1.983214725,1.5102801765,1715,"DG_s09",5.797,6.422,7.688,7.688,10,10,8,8,1.266,"Left",8,8,0,0,0,0,0,0,0,0,0,0,"10-10",2,2,10,8,10,8
"31",3,"POL RAM2-Ref-POL RAM3-Ref",-0.3910337,-0.0116206000000001,0.61379915,1.3158985,1.9573325,2.576001,3.3681525,4.585719,6.403521,8.7949775,11.479092,13.9845365,15.8158265,16.6065365,16.2018565,14.7104065,12.4713125,9.9629745,7.6830955,5.9573,4.8300335,4.1223155,3.5628435,2.9385705,2.1770835,1.325968,0.5102604,-0.13450145,-0.5545413,-0.7929447,-0.95084225,-1.1140771,-1.2863523,-1.4265068,-1.515340895,-1.57110354525,1715,"DG_s09",5.797,6.422,7.688,7.688,10,10,8,8,1.266,"Left",8,8,0,0,0,0,0,0,0,0,0,0,"10-10",2,2,10,8,10,8
"32",3,"POL RHP6-Ref-POL RHP7-Ref",0.42824665,0.404415,0.3314939,0.27740565,0.304866085,0.440188338,0.668031488,0.939454038,1.202601203,1.4246448,1.5889087,1.6893784,1.7228522,1.6797294,1.5442157,1.29969891925,0.94465956925,0.56419586925,0.34873926925,0.365757725,0.616713575,1.024243025,1.414402825,1.73053565,1.95617465,2.06051635,2.0036091,1.76178185,1.35107096385,0.85763311385,0.47596656385,0.32152526885,0.4005313695,0.6609732695,0.9578125195,1.2180240145,1715,"DG_s09",5.797,6.422,7.688,7.688,10,10,8,8,1.266,"Left",8,8,0,0,0,0,0,0,0,0,0,0,"10-10",2,2,10,8,10,8
"33",3,"POL ROF3-Ref-POL ROF4-Ref",0.0404795,-0.03387735,-0.03532295,0.0654385115,0.2527195115,0.4316406265,0.4647422185,0.300239807,0.00556505699999998,-0.164866308,-0.167083105,-0.00694306285000001,0.23125076615,0.30279146615,0.20774087115,0.00831532899999998,-0.2379499,-0.4304124,-0.49168515,-0.44953155,-0.34513805,-0.28489705,-0.35058915,-0.3562523,-0.190226134,0.207701516,0.832488366,1.464118516,1.95404485,2.2079436,2.1804621,1.8938092,1.444340785,0.98866119935,0.66871255635,0.52483225635,1715,"DG_s09",5.797,6.422,7.688,7.688,10,10,8,8,1.266,"Left",8,8,0,0,0,0,0,0,0,0,0,0,"10-10",2,2,10,8,10,8
"34",3,"POL RHP4-Ref-POL RHP5-Ref",-0.494754494,-0.437623194,-0.332665044,-0.244715144,-0.173829163,-0.040267913,0.230145687,0.659696087,1.190058006,1.708182406,2.117880906,2.363220406,2.417554906,2.277427406,1.958016306,1.477462906,0.871304127,0.253143227,-0.152870373,-0.2846439242,-0.1742349452,0.0702684548,0.2405725048,0.295578356,0.2649830905,0.160294347,-0.029256003,-0.305030703,-0.5312452875,-0.614056344,-0.558857344,-0.396551044,-0.274331094,-0.256579094,-0.293553744,-0.341456494,1715,"DG_s09",5.797,6.422,7.688,7.688,10,10,8,8,1.266,"Left",8,8,0,0,0,0,0,0,0,0,0,0,"10-10",2,2,10,8,10,8
"35",3,"POL RAM5-Ref-POL RAM6-Ref",-0.097849,-0.27884725,-0.4204813,-0.4896434,-0.49592065,-0.47728,-0.4614592,-0.4172609,-0.31385445,-0.1461175,0.054667045,0.226110038615,0.343895883615,0.429021263615,0.517390468615,0.628993025,0.75165348,0.85440295,0.9187912,0.9583456,1.01171765,1.1080689,1.2396749,1.36766545,1.4446022,1.43240035,1.32462625,1.1608506,1.00943425,0.9436773,0.9967592,1.12260075,1.22549835,1.2175557,1.062044025,0.7903736203,1715,"DG_s09",5.797,6.422,7.688,7.688,10,10,8,8,1.266,"Left",8,8,0,0,0,0,0,0,0,0,0,0,"10-10",2,2,10,8,10,8
"36",3,"POL RAM6-Ref-POL RAM7-Ref",0.0970270341,0.2284497991,0.2480859991,0.1875407841,0.1279363141,0.1566219121,0.3237115121,0.6271037621,1.0224081121,1.4547787491,1.8802909991,2.2542134991,2.5209544991,2.6249204991,2.5367179991,2.2681834991,1.8656596491,1.3883683626,0.8883493286,0.4157282286,0.0428844286,-0.1475406349,-0.1232775664,0.1004794986,0.4544986486,0.8287428486,1.1461443141,1.3660758491,1.4746843491,1.4839965991,1.4196301991,1.3041331491,1.1519348491,0.9762902991,0.7977322991,0.6535307991,1715,"DG_s09",5.797,6.422,7.688,7.688,10,10,8,8,1.266,"Left",8,8,0,0,0,0,0,0,0,0,0,0,"10-10",2,2,10,8,10,8
"37",3,"POL ROF6-Ref-POL ROF7-Ref",0.5401382,0.60973655,0.61755955,0.5594044,0.4273672,0.208595355,-0.1076659315,-0.5145735815,-0.9402212815,-1.2115334365,-1.2713108,-1.119205186,-0.810291901,-0.502333651,-0.253076751,-0.0798126650000001,0.0119899999999999,0.0355335999999999,0.00884894999999997,-0.0623453500000001,-0.18805620985,-0.38502086485,-0.65096671485,-0.94780341485,-1.214927155,-1.39528835,-1.46450325,-1.43997185,-1.3661956,-1.27846555,-1.1788861,-1.0590384,-0.913432075,-0.748633534,-0.586750434,-0.439756784,1715,"DG_s09",5.797,6.422,7.688,7.688,10,10,8,8,1.266,"Left",8,8,0,0,0,0,0,0,0,0,0,0,"10-10",2,2,10,8,10,8
"38",3,"POL ROF5-Ref-POL ROF6-Ref",0.383596845,0.552006295,0.703190145,0.813281095,0.866841395,0.863377345,0.817237895,0.748613145,0.667228245,0.565468495,0.425257195,0.2369055452,0.0145061952,-0.2092825048,-0.3976295548,-0.511312205,-0.525546355,-0.455748125,-0.349377225,-0.279384925,-0.317886725,-0.490233505,-0.713950005,-0.829206205,-0.796494705,-0.59605160615,-0.29185225615,-0.02565510615,0.16985674385,0.275250295,0.295793795,0.250304145,0.1500031375,-0.0110100075,-0.2414214075,-0.4868301075,1715,"DG_s09",5.797,6.422,7.688,7.688,10,10,8,8,1.266,"Left",8,8,0,0,0,0,0,0,0,0,0,0,"10-10",2,2,10,8,10,8
"39",3,"POL RPC2-Ref-POL RPC3-Ref",-0.56804716235,-0.60296110645,-0.47017908145,-0.22191408145,-0.02172528145,0.0574100954,0.0717346204,0.0782290204,0.0722202454,-0.0137689991,-0.2305556991,-0.4631292991,-0.5927130741,-0.5826410296,-0.4431550246,-0.28614762595,-0.13354160595,0.10184444405,0.47106133905,0.9432852904,1.4082009204,1.7251697204,1.7768167204,1.5060722704,0.9484077539,0.2909228539,-0.1705354261,-0.3196940961,-0.1603552296,0.1863116204,0.5154583504,0.7873464704,1.0221406204,1.2246856704,1.3730457204,1.4285497204,1715,"DG_s09",5.797,6.422,7.688,7.688,10,10,8,8,1.266,"Left",8,8,0,0,0,0,0,0,0,0,0,0,"10-10",2,2,10,8,10,8
"40",3,"POL RAM3-Ref-POL RAM4-Ref",0.80621645,0.91452695,1.00866345,1.07901095,1.12840745,1.26655445,1.73877995,2.81837145,4.66091995,7.17870645,10.01023695,12.64571895,14.59819195,15.53345695,15.33618695,14.12039195,12.16708095,9.82627645,7.44518295,5.29906995,3.54788245,2.24833745,1.36006345,0.77356195,0.37492175,0.067045,-0.2106215,-0.4535254,-0.62004925,-0.6803218,-0.64471965,-0.5660017,-0.5123638,-0.52385475,-0.58023075,-0.6201075,1715,"DG_s09",5.797,6.422,7.688,7.688,10,10,8,8,1.266,"Left",8,8,0,0,0,0,0,0,0,0,0,0,"10-10",2,2,10,8,10,8
"41",3,"POL RHP5-Ref-POL RHP6-Ref",-0.202560959,-0.402364609,-0.515689614,-0.52112958655,-0.43671377155,-0.30083927155,-0.13253186655,0.06453642445,0.26974985945,0.43213300945,0.49727855945,0.43837775945,0.25501663445,-0.02974173405,-0.37576288405,-0.73757223405,-1.06510485905,-1.29163914055,-1.38693084055,-1.34968669055,-1.19261519055,-0.96180228055,-0.6886152921,-0.3982995421,-0.1250095921,0.0885351479,0.19565580945,0.16638570945,0.00358017399999999,-0.224264976,-0.3674020535,-0.3133060535,-0.04823846805,0.33875003195,0.66361005945,0.77190480945,1715,"DG_s09",5.797,6.422,7.688,7.688,10,10,8,8,1.266,"Left",8,8,0,0,0,0,0,0,0,0,0,0,"10-10",2,2,10,8,10,8
"42",3,"POL ROF4-Ref-POL ROF5-Ref",0.01428675835,0.18875097835,0.40999902335,0.65933706835,0.91576386835,1.15457836835,1.34792246835,1.46153596835,1.46131696835,1.33033566835,1.07739146835,0.73056821235,0.32518876235,-0.09413723765,-0.42732813765,-0.56824033165,-0.50926884765,-0.29669309765,-0.05078019765,0.09732895235,0.12000914245,0.03448128245,-0.12773141755,-0.30583366755,-0.41592814165,-0.40710455715,-0.27937112215,-0.08875317215,0.06944472785,0.12618985335,0.05768955785,-0.11709439215,-0.33032244215,-0.50812054215,-0.61973643165,-0.67788008165,1715,"DG_s09",5.797,6.422,7.688,7.688,10,10,8,8,1.266,"Left",8,8,0,0,0,0,0,0,0,0,0,0,"10-10",2,2,10,8,10,8
"43",3,"POL RPC1-Ref-POL RPC2-Ref",0.39876828295,0.33947284795,0.30673561595,0.30620413695,0.33618216645,0.41398195145,0.56338802345,0.7858222645,1.059623365,1.354112365,1.638050715,1.873812915,2.000441415,1.941166465,1.655976265,1.1764234475,0.6040002475,0.1511031975,-0.01517978,0.1168196375,0.4721409875,0.8506899375,1.078908265,1.124972465,1.023856515,0.84071125,0.638436723065,0.454704333065,0.291526433065,0.120782248065,-0.058831475,-0.162786535,-0.121568331,0.072936469,0.365752269,0.632654219,1715,"DG_s09",5.797,6.422,7.688,7.688,10,10,8,8,1.266,"Left",8,8,0,0,0,0,0,0,0,0,0,0,"10-10",2,2,10,8,10,8
"44",3,"POL LAM1-Ref-POL LAM2-Ref",-0.4131842696,-0.3423366196,-0.2340484696,-0.1437996696,-0.0924270046,-0.0678827196,-0.0597661546,-0.0728526046,-0.1148657696,-0.1759076046,-0.2177382196,-0.1884865597,-0.0542161097,0.1819660403,0.4737467903,0.7536875304,0.9726039804,1.1179844804,1.2087614304,1.2759504304,1.3423869304,1.4148034304,1.4894549304,1.5622404304,1.6322644304,1.6928709304,1.7275934304,1.7253549304,1.6969379304,1.6759324304,1.7018284304,1.7927124304,1.9283619304,2.0556369304,2.1083004304,2.0292819304,1715,"DG_s09",5.797,6.422,7.688,7.688,10,10,8,8,1.266,"Left",8,8,0,0,0,0,0,0,0,0,0,0,"10-10",2,2,10,8,10,8
"45",3,"POL LAM3-Ref-POL LAM4-Ref",-0.78398712465,-0.62171260215,-0.32403660215,-0.0685889321500001,0.0665889,0.1067465,0.0832482,0.00717364999999992,-0.121336845,-0.29339347875,-0.48161387875,-0.64354372875,-0.74297768375,-0.767305115,-0.7271612105,-0.6491665695,-0.5544416695,-0.4467944545,-0.328297709,-0.2144102,-0.1358839,-0.12897725,-0.222334681,-0.427504731,-0.731179481,-1.050881381,-1.2389088,-1.27115575,-1.1637801,-0.99926465,-0.9191148,-0.92698705,-0.9781437,-1.02913525,-1.06127905,-1.0811437,1715,"DG_s09",5.797,6.422,7.688,7.688,10,10,8,8,1.266,"Left",8,8,0,0,0,0,0,0,0,0,0,0,"10-10",2,2,10,8,10,8
"46",3,"POL ROF1-Ref-POL ROF2-Ref",0.36115045,0.57458461,0.74575917,0.825878065,0.798927165,0.681788355,0.519343145,0.38552795,0.3491296,0.43830707,0.6292923765,0.8375602765,0.95278976255,0.88794449255,0.64090823605,0.43770273605,0.4363212675,0.6669666175,1.0809202175,1.4352265175,1.60155455,1.61683535,1.55722625,1.4723312,1.359189495,1.18562531,0.97827321,0.862838379,0.930916084,1.191648869,1.545530069,1.80865115,1.86611415,1.698236844,1.357760309,0.978948459,1715,"DG_s09",5.797,6.422,7.688,7.688,10,10,8,8,1.266,"Left",8,8,0,0,0,0,0,0,0,0,0,0,"10-10",2,2,10,8,10,8
"47",3,"POL RPC3-Ref-POL RPC4-Ref",-0.1803995759,-0.2418855878,-0.2302717878,-0.1063659419,0.1304204831,0.430593445,0.7058927,0.8666619,0.85272255,0.6542035,0.3047348145,-0.1328750355,-0.4708344855,-0.551272791,-0.3630249555,0.0637275445,0.5627491445,0.9733265,1.25931335,1.4079382,1.4196092,1.3127437,1.12464015,0.8996447,0.6667605,0.42645565,0.161157792,-0.136271108,-0.446182408,-0.734689608,-0.92163135,-0.92298255,-0.72153262865,-0.33191577865,0.16340512135,0.64078767135,1715,"DG_s09",5.797,6.422,7.688,7.688,10,10,8,8,1.266,"Left",8,8,0,0,0,0,0,0,0,0,0,0,"10-10",2,2,10,8,10,8
"48",3,"POL RAM4-Ref-POL RAM5-Ref",-0.08494505,-0.22372265,-0.3436519,-0.37222435,-0.2657892045,0.00218039549999999,0.4247035455,0.9535764455,1.5450978,2.15289645,2.7260837,3.2092942,3.5517887,3.7256252,3.7288872,3.5777337,3.3026242,2.9417417,2.5414297,2.1548737,1.8183312,1.5336376,1.27333555,1.00616985,0.7344030211,0.508602445,0.397364795,0.428846595,0.5708481739,0.7470885,0.87271185,0.8983323,0.8197121,0.66811309,0.4968441883,0.3616850833,1715,"DG_s09",5.797,6.422,7.688,7.688,10,10,8,8,1.266,"Left",8,8,0,0,0,0,0,0,0,0,0,0,"10-10",2,2,10,8,10,8
"49",4,"POL ROF2-Ref-POL ROF3-Ref",-0.588868955,-0.582059605,-0.399145855,-0.0835239,0.26718755,0.53846505,0.631881,0.51577805,0.2439504,-0.08426565,-0.3885450365,-0.6525865415,-0.9293683915,-1.2430731415,-1.396733505,-1.300580294,-0.933200694,-0.359061894,0.143341356,0.4450616,0.527524,0.41864665,0.15418825,-0.241521794,-0.730304044,-1.143500144,-1.331000194,-1.2857716235,-1.0560116735,-0.8221424735,-0.7130770235,-0.67887265,-0.64881115,-0.6025165,-0.57412855,-0.62661087,1716,"DG_s09",8.688,9.313,10.234,10.234,28,4,10,10,0.921,"Left",28,4,24,24,0,0,0,-24,0,-24,24,24,"Advent",18,-6,28,10,4,10
"50",4,"POL RAM4-Ref-POL RAM5-Ref",0.6372641035,0.7457594035,0.7937748535,0.7944308035,0.7806328535,0.7940430535,0.8600544535,0.9659321035,1.0606381035,1.0791758035,0.9727998035,0.726836782,0.364451992,-0.030292858,-0.288172058,-0.34162103315,-0.20267179315,0.05773420685,0.28662770685,0.4301318035,0.5086620535,0.5556253035,0.5926036035,0.6220779535,0.6246228535,0.5716325535,0.4474176985,0.254639765,0.012103465,-0.241321985,-0.44015378,-0.5364340465,-0.5270646465,-0.4425329465,-0.3511302965,-0.3066160965,1716,"DG_s09",8.688,9.313,10.234,10.234,28,4,10,10,0.921,"Left",28,4,24,24,0,0,0,-24,0,-24,24,24,"Advent",18,-6,28,10,4,10
"51",4,"POL ROF5-Ref-POL ROF6-Ref",0.37160674845,0.64577529845,0.85242899845,0.94794964845,0.909982254,0.730835904,0.439799854,0.199701989,0.149124445,0.32130688995,0.69933978995,1.13487263995,1.50271654495,1.7683516,1.9165375,1.95231525,1.9043666,1.82302665,1.75668365,1.72625735,1.72139735,1.7057386,1.63450925,1.470395555,1.20466410835,0.91130170835,0.73366775215,0.75355594715,0.9600991438,1.2350339938,1.398383,1.36604569,1.171257233615,0.903372833615,0.628923633615,0.378966693615,1716,"DG_s09",8.688,9.313,10.234,10.234,28,4,10,10,0.921,"Left",28,4,24,24,0,0,0,-24,0,-24,24,24,"Advent",18,-6,28,10,4,10
"52",4,"POL LAM5-Ref-POL LAM6-Ref",0.30060574435,0.39675699435,0.48164198435,0.52397823,0.49208353015,0.37912033015,0.22826938015,0.12164002515,0.1160454069,0.2140301319,0.3635955819,0.4821428819,0.52275605,0.50129446,0.48139091,0.54062161,0.730702785,1.05175355,1.4468667,1.8262422,2.1038428,2.2237838,2.1746613,1.9860363,1.7112727,1.41088715,1.13388855,0.91202755,0.75955245,0.66703875,0.60346105,0.526930489,0.400544159,0.208683659,-0.029923691,-0.25228373,1716,"DG_s09",8.688,9.313,10.234,10.234,28,4,10,10,0.921,"Left",28,4,24,24,0,0,0,-24,0,-24,24,24,"Advent",18,-6,28,10,4,10
"53",4,"POL ROF6-Ref-POL ROF7-Ref",0.10916145,0.0674411,-0.02866545,-0.1152955,-0.13549095,-0.06767725,0.0734891740500001,0.24505641905,0.40251871905,0.51541611905,0.560904025,0.5248962405,0.4137548405,0.2604384405,0.1128607105,0.01037105,-0.03055695,-0.01481,0.04129535,0.1173718,0.1872595,0.21480655,0.161843,0.00576675000000004,-0.2462655,-0.42912055,-0.4637163,-0.3490744,-0.10706195,0.09347805,0.1804552,0.16730675,0.08825695,-0.0131881,-0.0974147,-0.13611085,1716,"DG_s09",8.688,9.313,10.234,10.234,28,4,10,10,0.921,"Left",28,4,24,24,0,0,0,-24,0,-24,24,24,"Advent",18,-6,28,10,4,10
"54",4,"POL RHP6-Ref-POL RHP7-Ref",-0.31020133686,-0.23660960086,-0.08312675086,0.11441229914,0.30043299914,0.43458506314,0.50357151314,0.50859491314,0.45616766314,0.35294203314,0.20217506564,0.00612771564,-0.22907188436,-0.48525250436,-0.69436748686,-0.78896193686,-0.76575888686,-0.65545838686,-0.54569908686,-0.51723678686,-0.55977643686,-0.60437868686,-0.59444453686,-0.51949538686,-0.41613043686,-0.35632878686,-0.37121233686,-0.41793053686,-0.43348158686,-0.38721353686,-0.28934233686,-0.18641208186,-0.12073917686,-0.09483744186,-0.08519042686,-0.06514912976,1716,"DG_s09",8.688,9.313,10.234,10.234,28,4,10,10,0.921,"Left",28,4,24,24,0,0,0,-24,0,-24,24,24,"Advent",18,-6,28,10,4,10
"55",4,"POL RPC1-Ref-POL RPC2-Ref",-0.14015797225,-0.25565380725,-0.35468205725,-0.43559425725,-0.49819695725,-0.54317865725,-0.57928930725,-0.62741615725,-0.69618670725,-0.73193590725,-0.67017915725,-0.48154613225,-0.17086737725,0.18075317275,0.47509047275,0.65489899775,0.69035789275,0.57892386825,0.35044326825,0.07715351825,-0.12408498175,-0.16346229005,-0.04093799005,0.16235885995,0.31080256995,0.31736668375,0.23369384375,0.1892127425,0.2802193325,0.5328734515,0.8794270415,1.19307539275,1.36913904275,1.34072614275,1.08668484875,0.64458791375,1716,"DG_s09",8.688,9.313,10.234,10.234,28,4,10,10,0.921,"Left",28,4,24,24,0,0,0,-24,0,-24,24,24,"Advent",18,-6,28,10,4,10
"56",4,"POL LAM1-Ref-POL LAM2-Ref",0.6436750665,0.6811667165,0.6625408665,0.6183351665,0.5744752665,0.5379694165,0.4919034665,0.4053835165,0.255898282,0.044757642,-0.203876458,-0.444136108,-0.6121971735,-0.6708896335,-0.6277476835,-0.5222031835,-0.4175670835,-0.3601475335,-0.3601418335,-0.4017357835,-0.4487732835,-0.4553112335,-0.38850800965,-0.24607575965,-0.05631235965,0.13706759035,0.3010767665,0.4251344665,0.5109110665,0.5604243165,0.5681864165,0.5163472165,0.3824861565,0.158751366,-0.129355134,-0.414187934,1716,"DG_s09",8.688,9.313,10.234,10.234,28,4,10,10,0.921,"Left",28,4,24,24,0,0,0,-24,0,-24,24,24,"Advent",18,-6,28,10,4,10
"57",4,"POL RAM5-Ref-POL RAM6-Ref",0.1766733837,0.2903465437,0.297242025,0.281652215,0.311302915,0.395946855,0.49388668,0.54293529,0.52314119,0.47274094,0.44994874,0.48293729,0.54762939,0.58474894,0.54216078,0.435005695,0.337674955,0.318334355,0.395347515,0.5157084,0.59388424,0.57336579,0.44710673,0.24835418,0.02618478,-0.15788032,-0.24759181,-0.226907565,-0.11420464725,0.04358511275,0.19188621275,0.29640351775,0.329984115,0.263639547,0.077501047,-0.206969603,1716,"DG_s09",8.688,9.313,10.234,10.234,28,4,10,10,0.921,"Left",28,4,24,24,0,0,0,-24,0,-24,24,24,"Advent",18,-6,28,10,4,10
"58",4,"POL LAM6-Ref-POL LAM7-Ref",-0.6449821,-0.87381033,-1.1070951065,-1.3448881065,-1.5938434065,-1.8518781765,-2.06266155,-2.1343614,-2.0304023415,-1.7612811715,-1.4063648215,-1.0892682215,-0.88323693,-0.8177677,-0.891051,-1.0791580335,-1.3466129835,-1.6429519335,-1.8913164835,-2.02360445,-2.01949795,-1.89955825,-1.72283082435,-1.54669628435,-1.39192038435,-1.26472773435,-1.17064561,-1.1128144,-1.0899993,-1.10206795,-1.155400935,-1.261600002,-1.419938552,-1.595307402,-1.727755767,-1.77527275,1716,"DG_s09",8.688,9.313,10.234,10.234,28,4,10,10,0.921,"Left",28,4,24,24,0,0,0,-24,0,-24,24,24,"Advent",18,-6,28,10,4,10
"59",4,"POL ROF3-Ref-POL ROF4-Ref",0.8062733955,1.1573259885,1.4360785085,1.6083868085,1.6590320085,1.5882883085,1.4152117585,1.2101614585,1.0825627085,1.0959531085,1.2402076585,1.4305464585,1.5283425585,1.4402073585,1.1616950754,0.7664822604,0.3964987104,0.1598128604,0.0584629435,0.0168523085,-0.0873364415,-0.2883336915,-0.3928928915,-0.3207572335,-0.0432891335,0.3853343665,0.7416179665,0.9376524585,0.9383575085,0.7647933205,0.5162888705,0.3186506955,0.2339081722,0.2479465777,0.2791545977,0.2397875727,1716,"DG_s09",8.688,9.313,10.234,10.234,28,4,10,10,0.921,"Left",28,4,24,24,0,0,0,-24,0,-24,24,24,"Advent",18,-6,28,10,4,10
"60",4,"POL ROF4-Ref-POL ROF5-Ref",0.1803811158,0.4485219658,0.7302621658,0.9824205658,1.1445206,1.1452744,0.9361660445,0.5203833445,0.1670124445,0.0838508195,0.291250825,0.762498575,1.207776925,1.39935465,1.309858558,0.980999218,0.552370018,0.244092918,0.163454035,0.313331175,0.606863925,0.873973225,1.03288255,1.0599054,0.9490366475,0.7408644975,0.57579417295,0.61079462295,0.90497202545,1.41128362545,1.95496165,2.33915335,2.46772055,2.3306959,1.97101985,1.453775388,1716,"DG_s09",8.688,9.313,10.234,10.234,28,4,10,10,0.921,"Left",28,4,24,24,0,0,0,-24,0,-24,24,24,"Advent",18,-6,28,10,4,10
"61",4,"POL LAM3-Ref-POL LAM4-Ref",0.128089,0.0617576000000002,-0.0722885499999999,-0.27312875,-0.5159366,-0.74570038,-0.90170478,-0.95504108,-0.92391323,-0.8638687,-0.8359693,-0.872255195,-0.9679964855,-1.0958704355,-1.2286835355,-1.3582398405,-1.4972305,-1.6509936,-1.76779395,-1.7917749,-1.7035987,-1.5129900249,-1.2802067199,-1.0474083199,-0.8069955699,-0.543104645,-0.25269085,0.0477384000000001,0.3242164,0.530509,0.6179795,0.555361,0.3530679,0.06954715,-0.22203885,-0.4839415,1716,"DG_s09",8.688,9.313,10.234,10.234,28,4,10,10,0.921,"Left",28,4,24,24,0,0,0,-24,0,-24,24,24,"Advent",18,-6,28,10,4,10
"62",4,"POL RHP4-Ref-POL RHP5-Ref",-1.0168149275,-1.0111307775,-0.9402146775,-0.8459226275,-0.7743501775,-0.7778007275,-0.8918805775,-0.9968582275,-0.9645655126,-0.7546413226,-0.3646642726,0.0557851774,0.3720456125,0.5610112725,0.6384876725,0.6378194725,0.5841930225,0.4827185725,0.3226129225,0.0937447445,-0.1843877555,-0.4387971055,-0.5910908055,-0.6215402325,-0.5613438775,-0.4871728175,-0.4721424175,-0.5286078125,-0.6329036675,-0.7535709275,-0.8564724275,-0.9076915775,-0.8894280275,-0.8048144275,-0.6742289275,-0.5326700586,1716,"DG_s09",8.688,9.313,10.234,10.234,28,4,10,10,0.921,"Left",28,4,24,24,0,0,0,-24,0,-24,24,24,"Advent",18,-6,28,10,4,10
"63",4,"POL RPC5-Ref-POL RPC6-Ref",-0.4467336105,-0.6357034085,-0.6890726085,-0.5846765685,-0.3368906617,-0.0120604617,0.3240979383,0.6366969483,0.9127781415,1.1635378915,1.4125651915,1.6703729915,1.9172384915,2.1051384915,2.1745149915,2.0866914915,1.8542299915,1.5524794915,1.2872483915,1.1280393915,1.0775023915,1.0787787415,1.0562651915,0.9728684415,0.8403481915,0.6910855415,0.5511251415,0.4319091915,0.3334006915,0.2535631415,0.1960929915,0.1659137415,0.1593784415,0.1584033415,0.1336992165,0.0551490915,1716,"DG_s09",8.688,9.313,10.234,10.234,28,4,10,10,0.921,"Left",28,4,24,24,0,0,0,-24,0,-24,24,24,"Advent",18,-6,28,10,4,10
"64",4,"POL RPC4-Ref-POL RPC5-Ref",0.80042120235,0.93002471235,0.95310371,0.86809121575,0.66879266575,0.36917201575,0.16155400575,0.157115367,0.368687317,0.784743917,1.223101117,1.5814874,1.8455081,1.9891758,1.97663385,1.79660915,1.50725655,1.2381845,1.09094435,1.0748767,1.13045545,1.1715836,1.1793086,1.2148951,1.3321324,1.5255168,1.7316364,1.86725075,1.87304775,1.7356638,1.4888237,1.19141708065,0.89380552065,0.61357167065,0.34479332065,0.11945719,1716,"DG_s09",8.688,9.313,10.234,10.234,28,4,10,10,0.921,"Left",28,4,24,24,0,0,0,-24,0,-24,24,24,"Advent",18,-6,28,10,4,10
"65",4,"POL RPC3-Ref-POL RPC4-Ref",0.6795933255,0.376565453,0.108875818,0.041358818,0.200503068,0.4974145405,0.7158924255,0.7111141255,0.4821892905,0.1064321905,-0.2876662095,-0.5747165095,-0.6816548245,-0.5801710358,-0.3050348358,0.0714848642,0.4780511142,0.8358594255,1.0835298755,1.1941731755,1.1683962755,1.0188419255,0.7636345255,0.4308188715,0.0766602715,-0.2141276785,-0.3791537785,-0.4171456745,-0.3830123745,-0.3574108745,-0.3810001745,-0.4236260745,-0.4412430245,-0.4255756245,-0.4119385245,-0.4634105245,1716,"DG_s09",8.688,9.313,10.234,10.234,28,4,10,10,0.921,"Left",28,4,24,24,0,0,0,-24,0,-24,24,24,"Advent",18,-6,28,10,4,10
"66",4,"POL RAM6-Ref-POL RAM7-Ref",-0.8546988975,-0.8742548975,-0.8331675975,-0.7558171475,-0.6546810475,-0.5275959975,-0.3732726975,-0.2042466575,-0.0515055305,0.0439030995,0.0453079995,-0.0696002905,-0.3015201175,-0.5668102975,-0.6808696975,-0.6132901725,-0.363157503,-0.00909780299999999,0.279077797,0.492725322,0.6482207025,0.7632597525,0.8505476525,0.9164531025,0.9609928525,0.9765144025,0.9483710025,0.8583943025,0.6901438325,0.4405882085,0.1263077585,-0.2181996915,-0.5268702215,-0.7294162975,-0.8185571475,-0.8087205975,1716,"DG_s09",8.688,9.313,10.234,10.234,28,4,10,10,0.921,"Left",28,4,24,24,0,0,0,-24,0,-24,24,24,"Advent",18,-6,28,10,4,10
"67",4,"POL RAM3-Ref-POL RAM4-Ref",-0.160988256,-0.034776056,0.158319744,0.36640377255,0.53715740255,0.65060141255,0.70631732755,0.719993439,0.7126887049,0.6919064539,0.6541995439,0.5943788039,0.508643458,0.402661699,0.293270944,0.202817194,0.152401944,0.153779494,0.196305194,0.249906294,0.285212094,0.287988594,0.263135794,0.227433794,0.199102794,0.193112394,0.215510144,0.260463344,0.312500144,0.350527444,0.358779244,0.340114344,0.316282444,0.316965644,0.361148694,0.442355099,1716,"DG_s09",8.688,9.313,10.234,10.234,28,4,10,10,0.921,"Left",28,4,24,24,0,0,0,-24,0,-24,24,24,"Advent",18,-6,28,10,4,10
"68",4,"POL RAM2-Ref-POL RAM3-Ref",0.34201736735,0.53496471735,0.72024037235,0.88192363,0.99573633,1.04024963,1.00519383,0.894159825,0.72342887335,0.51902927335,0.30815842335,0.11233802835,-0.05538262,-0.19569097,-0.30286867,-0.35363342,-0.33019287,-0.22576277,-0.05932552,0.1219901,0.2749460232,0.3811125482,0.4511724582,0.5140627382,0.597237165,0.70942959,0.83516728,0.94462003,1.00780018,1.00881218,0.96207768,0.90879868,0.89133208,0.93090653,1.01138908,1.08842568,1716,"DG_s09",8.688,9.313,10.234,10.234,28,4,10,10,0.921,"Left",28,4,24,24,0,0,0,-24,0,-24,24,24,"Advent",18,-6,28,10,4,10
"69",4,"POL RPC2-Ref-POL RPC3-Ref",0.20929125,0.20200445,0.12284595,0.066019,0.13633095,0.3820453585,0.8105782585,1.2944044585,1.6915155585,1.91730675,1.92428855,1.7143955965,1.3324082815,0.8575607315,0.4549703315,0.256048785,0.268541,0.463210667,0.7237015995,0.9672704495,1.2274612995,1.5355737825,1.89070935,2.25161355,2.5496078,2.7145681,2.6857756,2.41846415,1.905729522,1.216197522,0.656491872,0.369304572,0.3448406,0.5418255,0.72724151,0.841790913,1716,"DG_s09",8.688,9.313,10.234,10.234,28,4,10,10,0.921,"Left",28,4,24,24,0,0,0,-24,0,-24,24,24,"Advent",18,-6,28,10,4,10
"70",4,"POL ROF1-Ref-POL ROF2-Ref",0.6903992975,0.7286012975,0.8231207975,1.0186314975,1.2969420475,1.5852853975,1.7953735475,1.8776510475,1.8329720475,1.6879495475,1.4754089975,1.2254728475,0.9655886475,0.7219127975,0.5186457475,0.3814414475,0.3407318475,0.4197634975,0.6213575975,0.9122635475,1.2149963475,1.4328890475,1.4820979975,1.3215197975,0.9700418415,0.4989343915,0.0106723415,-0.3882398585,-0.6163598025,-0.6427844025,-0.4937525575,-0.23998372785,0.02746682215,0.22543132215,0.2994237039,0.23844679475,1716,"DG_s09",8.688,9.313,10.234,10.234,28,4,10,10,0.921,"Left",28,4,24,24,0,0,0,-24,0,-24,24,24,"Advent",18,-6,28,10,4,10
"71",4,"POL RHP5-Ref-POL RHP6-Ref",0.5193418,0.626668585,0.7098624885,0.8257710885,0.9918678385,1.1710777535,1.29367085,1.30639165,1.2303901,1.1501708,1.13924005,1.2168357,1.34301735,1.4451724,1.47119545,1.40804215,1.26541079,1.070830197,0.886195717,0.7823370995,0.7846737545,0.8622347975,0.9332673875,0.9092713555,0.7557321105,0.4921122605,0.1760961505,-0.0469714,-0.13420795,-0.088097,0.0711091,0.23565885,0.385304,0.5269718235,0.66020043135,0.77824478135,1716,"DG_s09",8.688,9.313,10.234,10.234,28,4,10,10,0.921,"Left",28,4,24,24,0,0,0,-24,0,-24,24,24,"Advent",18,-6,28,10,4,10
"72",4,"POL LAM2-Ref-POL LAM3-Ref",0.89471035,1.12646085,1.34296385,1.51754985,1.61492685,1.60253535,1.46073585,1.18927085,0.8078784,0.35114235,-0.1378221295,-0.6058332295,-0.9948969295,-1.2695855795,-1.43615255,-1.5266339,-1.5745619,-1.60066405,-1.6100943,-1.5998901,-1.5630591,-1.4833659,-1.3401086345,-1.1260448245,-0.8600430745,-0.5758541245,-0.30091129,-0.05612335,0.13201805,0.2262889,0.19126045,0.0150566999999999,-0.272368246,-0.602913246,-0.908054846,-1.154021446,1716,"DG_s09",8.688,9.313,10.234,10.234,28,4,10,10,0.921,"Left",28,4,24,24,0,0,0,-24,0,-24,24,24,"Advent",18,-6,28,10,4,10
"73",5,"POL ROF1-Ref-POL ROF2-Ref",0.73072545135,1.17704935135,1.48464795285,1.62185595285,1.58618025285,1.39827600285,1.10417762285,0.77556623045,0.48751158045,0.28815608045,0.18523201045,0.14863280285,0.14075135285,0.16876735835,0.29602711335,0.58679816335,1.05471821335,1.64266545785,2.24392365285,2.76449920285,3.14986220285,3.37216120285,3.41105020285,3.25268370285,2.90642320285,2.40835095285,1.81538200285,1.19526927935,0.61359582935,0.13147257935,-0.16417462065,-0.21864043215,-0.05042738515,0.27471176485,0.62634531485,0.88063624985,1717,"DG_s09",11.234,11.844,12.781,12.781,22,6,10,10,0.937,"Right",22,6,16,16,0,0,0,-16,0,-16,16,16,"Advent",12,-4,10,22,10,6
"74",5,"POL RAM6-Ref-POL RAM7-Ref",-0.36735905,-0.37818905,-0.2325751102,0.0885616898,0.5364486898,0.9744260398,1.333014,1.56589165,1.637907,1.52705675,1.2370688595,0.8129670095,0.4186445595,0.263247955,0.4152328455,0.8535246955,1.4235876955,1.92183705,2.27796355,2.47979805,2.53046455,2.43889855,2.21973705,1.8983225,1.51250225,1.1020936995,0.7030727495,0.3475429995,0.0599762495,-0.1472979,-0.27386565,-0.32874265,-0.3282495,-0.2928169,-0.24568935,-0.21078845,1717,"DG_s09",11.234,11.844,12.781,12.781,22,6,10,10,0.937,"Right",22,6,16,16,0,0,0,-16,0,-16,16,16,"Advent",12,-4,10,22,10,6
"75",5,"POL RPC4-Ref-POL RPC5-Ref",-0.409979847,-0.378952447,-0.403819897,-0.394608726,-0.283767431,-0.080479481,0.127140219,0.230157633,0.194229058,0.0605733098,-0.0919225302,-0.1874424062,-0.1787148212,-0.054970273,0.160806967,0.422785093,0.682963983,0.906957983,1.071011483,1.159282583,1.162640083,1.075062883,0.894497383,0.632020283,0.3271790425,0.0581324075,-0.0953092605,-0.1112189105,-0.04240792,0.006586856,-0.0455938295,-0.2073369295,-0.4548186795,-0.7347436205,-0.840999717,-0.735131954,1717,"DG_s09",11.234,11.844,12.781,12.781,22,6,10,10,0.937,"Right",22,6,16,16,0,0,0,-16,0,-16,16,16,"Advent",12,-4,10,22,10,6
"76",5,"POL RAM3-Ref-POL RAM4-Ref",0.0644719500000001,0.0518696500000001,0.0887471000000001,0.1900222,0.35213055,0.48482755,0.52171725,0.4422099,0.3324875,0.2975614,0.35464225,0.48249915,0.56907405,0.55760405,0.57118542,0.709102719,1.011640869,1.433309319,1.827253649,2.08664035,2.1677129,2.0708217,1.8312842,1.5054033725,1.1568318225,0.8461776725,0.6137698225,0.4630492,0.36864255,0.3048515,0.2848109,0.3446735,0.504256897,0.744428152,0.995034652,1.181840402,1717,"DG_s09",11.234,11.844,12.781,12.781,22,6,10,10,0.937,"Right",22,6,16,16,0,0,0,-16,0,-16,16,16,"Advent",12,-4,10,22,10,6
"77",5,"POL RPC1-Ref-POL RPC2-Ref",0.100941095,-0.04787906,-0.204845515,-0.1940719175,0.0218736325,0.4202378825,0.8385770325,1.08578365,1.1262849,0.97600713,0.6683941835,0.2706283835,-0.0245218165,-0.0939110975,0.077987149,0.427275649,0.738873499,0.87321295,0.820134925,0.623305394,0.347399544,0.071369494,-0.139090381,-0.281036,-0.3556837,-0.31822125,-0.1617417577,0.1105074423,0.4758489923,0.8461260923,1.15391685,1.36584725,1.45016145,1.3767091,1.133918213,0.746393393,1717,"DG_s09",11.234,11.844,12.781,12.781,22,6,10,10,0.937,"Right",22,6,16,16,0,0,0,-16,0,-16,16,16,"Advent",12,-4,10,22,10,6
"78",5,"POL LAM2-Ref-POL LAM3-Ref",-0.561617095,-0.605614545,-0.522423395,-0.337386975,-0.13549721465,0.0157391596,0.0848180501,0.0454522301,-0.11845418025,-0.3490293545,-0.454424945,-0.363057363,-0.051001713,0.423752087,0.864574287,1.194106405,1.377598005,1.397936505,1.260914355,1.001202505,0.6739684215,0.3365768215,0.0344567715,-0.1982069285,-0.332287795,-0.354992495,-0.278705695,-0.13973943991,0.01190292509,0.13965467509,0.23017722509,0.28363497,0.304782355,0.29867768,0.272419335,0.232848016255,1717,"DG_s09",11.234,11.844,12.781,12.781,22,6,10,10,0.937,"Right",22,6,16,16,0,0,0,-16,0,-16,16,16,"Advent",12,-4,10,22,10,6
"79",5,"POL ROF5-Ref-POL ROF6-Ref",-0.25181585,-0.3325343,-0.40689875,-0.4500917,-0.4665769,-0.4838011,-0.53280251,-0.6287425529,-0.7562177529,-0.8792962529,-0.9693905429,-1.02093615,-1.05392295,-1.1074367,-1.21703935,-1.38749385,-1.55371645,-1.61595575,-1.531043,-1.29923917,-0.99087007,-0.71764892,-0.54384557,-0.502005295,-0.598349699,-0.810001199,-1.085249249,-1.349296204,-1.5279301,-1.57582835,-1.4803514,-1.2688464143,-0.9955223643,-0.7087156143,-0.4362295143,-0.17793865,1717,"DG_s09",11.234,11.844,12.781,12.781,22,6,10,10,0.937,"Right",22,6,16,16,0,0,0,-16,0,-16,16,16,"Advent",12,-4,10,22,10,6
"80",5,"POL ROF6-Ref-POL ROF7-Ref",-0.832366588,-0.748224888,-0.5823195679,-0.3943485179,-0.2033541679,-0.0178845179,0.137769262,0.219021562,0.180775562,0.00884485934999996,-0.24303094065,-0.44860589065,-0.50412135465,-0.378547202,-0.110906502,0.212789198,0.533085312,0.822378312,1.055390462,1.199931062,1.232138562,1.154162062,0.985836712,0.757260562,0.509508712,0.284024712,0.109764262,-0.00706018800000002,-0.081946738,-0.126500738,-0.135710888,-0.106031538,-0.050851688,-0.00299043800000004,0.00529621199999997,-0.024453538,1717,"DG_s09",11.234,11.844,12.781,12.781,22,6,10,10,0.937,"Right",22,6,16,16,0,0,0,-16,0,-16,16,16,"Advent",12,-4,10,22,10,6
"81",5,"POL ROF3-Ref-POL ROF4-Ref",1.379073924,1.8221978,2.0683213,2.0609944,1.79844905,1.337046065,0.799054815,0.376240965,0.191900765,0.2460415965,0.4492103465,0.61789129195,0.61295034695,0.45904625045,0.36867420745,0.484611562,0.838031107,1.336926357,1.7304014,1.88433425,1.804688,1.5913864,1.4103077,1.3774833,1.506804,1.7294501,1.9139823,1.95918345,1.8471935,1.61289125,1.31295657,0.9960550055,0.6828397555,0.3878777555,0.2001737355,0.2042288875,1717,"DG_s09",11.234,11.844,12.781,12.781,22,6,10,10,0.937,"Right",22,6,16,16,0,0,0,-16,0,-16,16,16,"Advent",12,-4,10,22,10,6
"82",5,"POL ROF4-Ref-POL ROF5-Ref",-0.4725385802,-0.4405552302,-0.30111984455,-0.1203884,0.0139377500000001,0.05487195,-0.00305899999999992,-0.13530915,-0.3032964981,-0.4741525631,-0.6368033631,-0.7993733631,-0.964086465,-1.0929057,-1.13441275,-1.07495375,-0.94337956,-0.80991447,-0.73580434,-0.72726714,-0.76017923,-0.80892912,-0.86236955,-0.92396655,-0.9956553,-1.0692731,-1.1320518,-1.1764188,-1.20685415,-1.22799365,-1.2340894,-1.2233877,-1.20597655,-1.1864161,-1.1232095,-0.9483448865,1717,"DG_s09",11.234,11.844,12.781,12.781,22,6,10,10,0.937,"Right",22,6,16,16,0,0,0,-16,0,-16,16,16,"Advent",12,-4,10,22,10,6
"83",5,"POL RAM5-Ref-POL RAM6-Ref",-0.29699155,-0.2589622,-0.1233009,0.11833495,0.4406623,0.7897905,1.0989274,1.31935995,1.43283795,1.43312345,1.32832345,1.15606745,0.99642745,0.95374645,1.07254245,1.32564895,1.65716495,1.99089845,2.26710745,2.44763095,2.47854445,2.31335995,1.95585445,1.44355425,0.82901897,0.186788695,-0.352008955,-0.65701143,-0.7190342257,-0.6021155507,-0.4464374407,-0.3969161322,-0.4779008065,-0.6540221565,-0.8677966665,-1.06252175,1717,"DG_s09",11.234,11.844,12.781,12.781,22,6,10,10,0.937,"Right",22,6,16,16,0,0,0,-16,0,-16,16,16,"Advent",12,-4,10,22,10,6
"84",5,"POL ROF2-Ref-POL ROF3-Ref",-0.3303407655,-0.0770662855,0.2581585145,0.5206612645,0.65821588,0.68527,0.63885025,0.55626417,0.4576384508,0.3413458408,0.1967668908,0.0182581208000001,-0.19117666,-0.4142969,-0.5698432,-0.5857729,-0.45943775,-0.2216933305,0.03721823675,0.26181643675,0.48447908675,0.74621586725,1.04456895,1.31950485,1.47993905,1.457931,1.2490321,0.9070988825,0.5156575825,0.1542583825,-0.1166804675,-0.26576645,-0.3042607,-0.27378785,-0.23707975,-0.25950805,1717,"DG_s09",11.234,11.844,12.781,12.781,22,6,10,10,0.937,"Right",22,6,16,16,0,0,0,-16,0,-16,16,16,"Advent",12,-4,10,22,10,6
"85",5,"POL RPC3-Ref-POL RPC4-Ref",0.4300471,0.41852645,0.2866192,0.09399205,0.0100075000000001,0.0767880950000001,0.304358289,0.626137689,0.873278889,1.012712594,1.04379245,0.99416957,0.91748696,0.87788122,0.91529082,1.03631865,1.20976091,1.36798645,1.44180875,1.382099,1.1686173065,0.8183913565,0.4290000065,0.2277726065,0.26953541955,0.54601741955,0.98032861955,1.36498641955,1.64860195,1.8215811,1.8701344,1.7745801,1.5275724535,1.1608615135,0.7619613635,0.4387982135,1717,"DG_s09",11.234,11.844,12.781,12.781,22,6,10,10,0.937,"Right",22,6,16,16,0,0,0,-16,0,-16,16,16,"Advent",12,-4,10,22,10,6
"86",5,"POL RPC2-Ref-POL RPC3-Ref",-0.755924603,-0.797903403,-0.698805184,-0.4356540015,-0.0195390015,0.4577154485,0.8762561295,1.158859747,1.278538997,1.255762997,1.142076047,0.996531547,0.870779697,0.799803397,0.798262447,0.864714447,0.986636297,1.143451597,1.306002497,1.439710997,1.508382497,1.479522497,1.332649947,1.060868047,0.668738307,0.179284757,-0.353249943,-0.755950143,-0.975615403,-1.054893053,-1.034372603,-1.025408253,-1.042138653,-1.049315803,-1.014190353,-0.909528303,1717,"DG_s09",11.234,11.844,12.781,12.781,22,6,10,10,0.937,"Right",22,6,16,16,0,0,0,-16,0,-16,16,16,"Advent",12,-4,10,22,10,6
"87",5,"POL LAM5-Ref-POL LAM6-Ref",0.6883438755,0.7038471755,0.6070377053,0.3960944553,0.1116660053,-0.1277864947,-0.2446766245,-0.2462771245,-0.1903608745,-0.1862278745,-0.2112449245,-0.136773274,0.115311126,0.571086076,1.146639776,1.7093864255,2.1841242755,2.5230969255,2.6968849255,2.6973189255,2.5385389255,2.2565149255,1.9023800255,1.5287314255,1.1773489255,0.8729032255,0.6258489005,0.4391035974,0.3103528524,0.2345147674,0.2032266974,0.2013145805,0.2093969605,0.2063843505,0.1730462455,0.1024688655,1717,"DG_s09",11.234,11.844,12.781,12.781,22,6,10,10,0.937,"Right",22,6,16,16,0,0,0,-16,0,-16,16,16,"Advent",12,-4,10,22,10,6
"88",5,"POL RPC5-Ref-POL RPC6-Ref",0.17720471755,0.32839961755,0.44669472755,0.51895641755,0.53525071755,0.4859267063,0.3785199163,0.2501616663,0.1445038163,0.08119497755,0.03873636755,-0.03420918245,-0.17320608245,-0.35211908245,-0.49122788245,-0.54835938245,-0.52100478245,-0.42656533245,-0.29003678245,-0.10308890845,0.13885259155,0.40579774155,0.64326874155,0.81125021755,0.90385496755,0.93397146755,0.91731931755,0.86309966755,0.76201481755,0.58712195015,0.31812405015,-0.02847039985,-0.39112994985,-0.63978843245,-0.66762488245,-0.45085528995,1717,"DG_s09",11.234,11.844,12.781,12.781,22,6,10,10,0.937,"Right",22,6,16,16,0,0,0,-16,0,-16,16,16,"Advent",12,-4,10,22,10,6
"89",5,"POL RAM2-Ref-POL RAM3-Ref",-0.21729111,-0.341654175,-0.433005875,-0.419247475,-0.27530243815,-0.01908353815,0.26810126185,0.45494296185,0.454950272,0.247412272,-0.087117828,-0.351563778,-0.451361025,-0.390438375,-0.244057075,-0.174036375,-0.234783525,-0.389839225,-0.541629525,-0.586194125,-0.505185025,-0.332310615,-0.165882395,-0.119059945,-0.222752595,-0.459432455,-0.694410675,-0.795750575,-0.758411775,-0.587551975,-0.394480425,-0.277871425,-0.181345758435,-0.033179868435,0.206070431565,0.530158681565,1717,"DG_s09",11.234,11.844,12.781,12.781,22,6,10,10,0.937,"Right",22,6,16,16,0,0,0,-16,0,-16,16,16,"Advent",12,-4,10,22,10,6
"90",5,"POL RHP4-Ref-POL RHP5-Ref",1.5617232395,1.9443955395,2.2116067895,2.3317187895,2.3069227895,2.1525222895,1.9064333895,1.6139093895,1.3171016895,1.0630207395,0.8790094895,0.7542968395,0.653063901,0.539301682,0.411762982,0.322318312,0.3343257835,0.4729367025,0.7085660025,0.9596965225,1.1395041395,1.2057631395,1.1650436895,1.0528343395,0.9121604895,0.7781275895,0.6708049895,0.5986008395,0.5647604895,0.5708787895,0.6242719895,0.7437634395,0.9443868895,1.2198037395,1.5322386395,1.8105729895,1717,"DG_s09",11.234,11.844,12.781,12.781,22,6,10,10,0.937,"Right",22,6,16,16,0,0,0,-16,0,-16,16,16,"Advent",12,-4,10,22,10,6
"91",5,"POL RAM4-Ref-POL RAM5-Ref",0.304359821,0.658582071,1.146735471,1.732519571,2.3364663,2.875118,3.2846625,3.5308305,3.6012975,3.495449,3.216559,2.77314825,2.19746675,1.592574214,1.16704652195,1.07513012195,1.36331212195,1.95437015795,2.61527235,3.136657,3.399488,3.3620725,3.063575,2.60031685,2.09511365,1.66029065,1.36018435,1.19893725,1.1256831,1.06271235,0.949427264,0.766948664,0.544922414,0.345698414,0.21663565,0.16265615,1717,"DG_s09",11.234,11.844,12.781,12.781,22,6,10,10,0.937,"Right",22,6,16,16,0,0,0,-16,0,-16,16,16,"Advent",12,-4,10,22,10,6
"92",5,"POL RHP5-Ref-POL RHP6-Ref",2.1300136705,2.6577205205,3.0403665205,3.2518280205,3.2974485205,3.1978050205,2.9724000205,2.6212870205,2.1340499205,1.51549974,0.83775559,0.31261989,0.0857861135,0.152392194,0.417437844,0.649843994,0.68836776675,0.52557127175,0.21675767175,-0.15366942825,-0.4687078245,-0.6451036295,-0.6774958295,-0.5758286295,-0.3843544295,-0.1362185585,0.1734938415,0.5234036415,0.8666697915,1.1435538205,1.2970670205,1.2907007205,1.1230509205,0.829664544,0.483469844,0.180768544,1717,"DG_s09",11.234,11.844,12.781,12.781,22,6,10,10,0.937,"Right",22,6,16,16,0,0,0,-16,0,-16,16,16,"Advent",12,-4,10,22,10,6
"93",5,"POL LAM3-Ref-POL LAM4-Ref",0.8108426079,0.6859527579,0.4505417774,0.1392469774,-0.2003880726,-0.4515863226,-0.5210484921,-0.4194099185,-0.2168168285,-0.064927389,-0.080664839,-0.2258637626,-0.3501879526,-0.3346018226,-0.1387194226,0.1860355774,0.4968159274,0.6789528079,0.6858518579,0.5376558239,0.3139104254,0.0972183754,-0.0798594246,-0.2427652906,-0.4472533921,-0.6270499421,-0.6654536921,-0.5422673476,-0.2610609476,0.0575280024,0.2770980524,0.3818447079,0.3875017079,0.3329272579,0.2677458079,0.2244797579,1717,"DG_s09",11.234,11.844,12.781,12.781,22,6,10,10,0.937,"Right",22,6,16,16,0,0,0,-16,0,-16,16,16,"Advent",12,-4,10,22,10,6
"94",5,"POL LAM6-Ref-POL LAM7-Ref",-0.48088918315,-0.40462301945,-0.17621186945,0.12828673055,0.37935693055,0.48041261685,0.38633385185,0.10042360185,-0.32618164815,-0.69456504815,-0.85500563315,-0.81001423315,-0.59757553315,-0.39920093315,-0.35160688315,-0.44611508315,-0.64561718315,-0.87645068315,-1.01274953315,-0.99796663315,-0.82574558315,-0.54023187265,-0.25624530265,-0.04036300265,0.07203430235,0.0680509961,-0.0358138739,-0.1866245739,-0.3072481289,-0.33806396815,-0.26531277765,-0.12775512765,-0.000181477649999998,0.05139282035,-0.00478575514999999,-0.16301880515,1717,"DG_s09",11.234,11.844,12.781,12.781,22,6,10,10,0.937,"Right",22,6,16,16,0,0,0,-16,0,-16,16,16,"Advent",12,-4,10,22,10,6
"95",5,"POL LAM1-Ref-POL LAM2-Ref",0.317084255635,0.134244615635,-0.0688716765,-0.1359991715,-0.009404099,0.318875301,0.759865501,1.129165651,1.3292030285,1.3119248785,1.0897278735,0.79302168545,0.63351053545,0.72960643545,1.09344139045,1.6144135785,2.0989739785,2.4315583785,2.5636458785,2.4830663785,2.2146114785,1.8177838785,1.3702553235,0.9420600377,0.5782867377,0.3103584877,0.1700643427,0.164438968,0.265563293,0.412856943,0.520605238,0.530171855,0.46321888,0.425637859,0.516803264,0.7672228575,1717,"DG_s09",11.234,11.844,12.781,12.781,22,6,10,10,0.937,"Right",22,6,16,16,0,0,0,-16,0,-16,16,16,"Advent",12,-4,10,22,10,6
"96",5,"POL RHP6-Ref-POL RHP7-Ref",0.361553556,0.600153476,0.849185576,1.100758576,1.35908002,1.6362302,1.93440865,2.2249417,2.4566571,2.5683611,2.5080181,2.25754485,1.8381150355,1.3334599855,0.9428955125,0.8335868575,1.042453072,1.505838622,2.024766595,2.417709,2.6212866,2.6360991,2.5014881,2.2769814,2.02399085,1.79000765,1.60002645,1.4563245,1.34708,1.25464155,1.15976685,1.0448056955,0.8966014105,0.7080074105,0.4798655105,0.252636965,1717,"DG_s09",11.234,11.844,12.781,12.781,22,6,10,10,0.937,"Right",22,6,16,16,0,0,0,-16,0,-16,16,16,"Advent",12,-4,10,22,10,6
"97",6,"POL RAM3-Ref-POL RAM4-Ref",-0.33514523,-0.4895110735,-0.49508527,-0.314977705,0.039257495,0.443994595,0.7669071565,0.9664077415,1.0481750915,1.0519368415,1.0309853415,1.0176493415,1.0133573415,1.0078719915,0.9896598415,0.9511971415,0.8935770915,0.8150019915,0.7141906915,0.6077849915,0.5298074915,0.5134220915,0.5649015915,0.6502004915,0.7061720415,0.6697683415,0.506587464,0.222542014,-0.134774286,-0.444992486,-0.6102863085,-0.6301403585,-0.5451511585,-0.4624798085,-0.4653475085,-0.5384302085,1718,"DG_s09",13.781,14.391,14.969,14.969,30,15,10,10,0.578,"Left",30,15,15,15,0,0,0,-15,0,-15,15,15,"Advent",20,5,30,10,15,10
"98",6,"POL ROF4-Ref-POL ROF5-Ref",-0.48681438075,-0.47068280105,-0.44059266605,-0.40658936105,-0.39577736805,-0.42064855775,-0.43909278575,-0.38604234075,-0.24136615375,-0.05881252375,0.05033292425,-0.00734888825000002,-0.24486943825,-0.60449273825,-0.99141378825,-1.27707422575,-1.39316267575,-1.34706062575,-1.17829292575,-0.97948567575,-0.81209737575,-0.67884788075,-0.5641986079,-0.4486177579,-0.3285701579,-0.2280221529,-0.18083907575,-0.19885802575,-0.25734497075,-0.32117859575,-0.3759892612,-0.4392740612,-0.5405556162,-0.6910322412,-0.88720877575,-1.12374917575,1718,"DG_s09",13.781,14.391,14.969,14.969,30,15,10,10,0.578,"Left",30,15,15,15,0,0,0,-15,0,-15,15,15,"Advent",20,5,30,10,15,10
"99",6,"POL LAM1-Ref-POL LAM2-Ref",0.4694160673,0.5957001323,0.7905618823,1.1027672973,1.538135615,2.03896955,2.49958945,2.808664,2.888237,2.7247405,2.3770548,1.9544063,1.5674301,1.27805535,1.0831834,0.93352415895,0.76865169895,0.55020914895,0.28738554895,0.06790999,-0.03071155,-0.00669635000000002,0.0957657000000001,0.1662219,0.1139666,-0.05834015,-0.18531105,-0.18997405,-0.05719495,0.197250635,0.41440937,0.529663045,0.542217995,0.47336171,0.366543175,0.2764274,1718,"DG_s09",13.781,14.391,14.969,14.969,30,15,10,10,0.578,"Left",30,15,15,15,0,0,0,-15,0,-15,15,15,"Advent",20,5,30,10,15,10
"100",6,"POL LAM5-Ref-POL LAM6-Ref",0.1267912,0.07424995,0.0139396500000001,0.0510526,0.2254663016,0.5312327516,0.8538073016,1.0883987016,1.1995424,1.1820742,1.0529330985,0.8459930985,0.6034036985,0.3676168485,0.1843435,0.0835479,0.0619491000000001,0.09425905,0.13811005,0.15955255,0.16404535,0.18578035,0.251776,0.36861708,0.5152924576,0.6495226126,0.7408285276,0.7779970676,0.76052293545,0.69453873045,0.58662006545,0.44504769545,0.2939796,0.17308815,0.11881445,0.1522209,1718,"DG_s09",13.781,14.391,14.969,14.969,30,15,10,10,0.578,"Left",30,15,15,15,0,0,0,-15,0,-15,15,15,"Advent",20,5,30,10,15,10
"101",6,"POL RHP5-Ref-POL RHP6-Ref",-0.4107148372,-0.3893850372,-0.3346192872,-0.2416447872,-0.1133990872,0.0569351575,0.2775456725,0.5398093725,0.8261910725,1.1013483778,1.3238120628,1.4753457628,1.5565892128,1.5704710628,1.5165838128,1.3972611128,1.2177508128,0.9811260188,0.6878904038,0.3470751538,0.0274738038,-0.1584224022,-0.1794000872,-0.0643740872,0.0884309128,0.1458866628,0.0753469628,-0.0714187872,-0.2002501872,-0.2533615372,-0.2287216872,-0.1741800372,-0.1683884872,-0.2542781872,-0.4233517872,-0.5252032872,1718,"DG_s09",13.781,14.391,14.969,14.969,30,15,10,10,0.578,"Left",30,15,15,15,0,0,0,-15,0,-15,15,15,"Advent",20,5,30,10,15,10
"102",6,"POL RAM5-Ref-POL RAM6-Ref",-0.1466656125,0.4568571875,1.1583510525,1.8161142365,2.3517328365,2.7037743365,2.8431838365,2.7843198365,2.5837493365,2.3167498365,2.0212298365,1.6830918365,1.2803622865,0.8269944365,0.3958229365,0.0972497365,0.000272736500000037,0.0844350865,0.2693612365,0.4535642365,0.5615014865,0.5634634365,0.4592272365,0.2739739665,0.0398310215,-0.2178470285,-0.4689948285,-0.6795579085,-0.8303383135,-0.9243496635,-0.9805676635,-1.0195645635,-1.0489283135,-1.0684514635,-1.0837229135,-1.1094549135,1718,"DG_s09",13.781,14.391,14.969,14.969,30,15,10,10,0.578,"Left",30,15,15,15,0,0,0,-15,0,-15,15,15,"Advent",20,5,30,10,15,10
"103",6,"POL ROF1-Ref-POL ROF2-Ref",0.010806138975,0.055274533975,0.074466058575,0.044876790675,-0.040841629325,-0.174815224325,-0.335446193925,-0.481455473925,-0.575799723925,-0.615718073925,-0.628261073925,-0.659358573925,-0.743901873925,-0.864979573925,-0.955670173925,-0.984804823925,-0.954361173925,-0.891648873925,-0.840474823925,-0.789414223925,-0.705735973925,-0.571077873925,-0.397649263925,-0.232986208925,-0.131279838925,-0.130405838925,-0.245107248925,-0.457631903925,-0.678487723925,-0.798101923925,-0.798659573925,-0.698691123925,-0.583213273925,-0.552519673925,-0.609111973925,-0.724294823925,1718,"DG_s09",13.781,14.391,14.969,14.969,30,15,10,10,0.578,"Left",30,15,15,15,0,0,0,-15,0,-15,15,15,"Advent",20,5,30,10,15,10
"104",6,"POL RAM6-Ref-POL RAM7-Ref",0.6806013,0.69302085,0.63435356,0.53886256,0.475237,0.53993921415,0.80799056415,1.29610581415,1.95532146415,2.68700035,3.3974115,4.0231885,4.511434,4.813274,4.906003,4.797961,4.5219905,4.125568,3.6451,3.1036045,2.53243095,1.97506235,1.4849799146,1.1131368296,0.8802671196,0.77590599925,0.76277432465,0.78894609965,0.8124076474,0.80349886175,0.74276247175,0.62165453175,0.443655694,0.22434225,-0.000577249999999974,-0.159713,1718,"DG_s09",13.781,14.391,14.969,14.969,30,15,10,10,0.578,"Left",30,15,15,15,0,0,0,-15,0,-15,15,15,"Advent",20,5,30,10,15,10
"105",6,"POL ROF5-Ref-POL ROF6-Ref",-0.1747198325,0.1013028675,0.3612733675,0.4917471625,0.4373723985,0.2480939985,0.0608599485,-0.0215609825,0.01895054205,0.12619978705,0.19460328115,0.16830079715,0.0569614371,-0.1175966579,-0.343658652,-0.550388802,-0.606099402,-0.47521017605,-0.14901222605,0.28823867395,0.66748827395,0.917360948,1.014717998,0.993867598,0.940382748,0.934085448,0.996781498,1.092640848,1.157464948,1.149610648,1.076321748,0.972509498,0.872638348,0.789266148,0.714338698,0.629618498,1718,"DG_s09",13.781,14.391,14.969,14.969,30,15,10,10,0.578,"Left",30,15,15,15,0,0,0,-15,0,-15,15,15,"Advent",20,5,30,10,15,10
"106",6,"POL RPC2-Ref-POL RPC3-Ref",0.363494605,0.319562615,0.26827337345,0.15736060845,-0.000513821550000015,-0.12410898155,-0.15920617,-0.09994157,0.01681617655,0.15551216655,0.31542976655,0.48255331655,0.61752962,0.69442643,0.70724168,0.64628708,0.4917310675,0.2284399675,-0.0872464825,-0.3452117325,-0.50060992,-0.53579057,-0.45469487,-0.2970496745,-0.0590270645,0.2373505855,0.5041579855,0.65293219,0.6270514275,0.4195313275,0.0869164775,-0.2659469725,-0.53958562,-0.68871327,-0.72475022,-0.68933427,1718,"DG_s09",13.781,14.391,14.969,14.969,30,15,10,10,0.578,"Left",30,15,15,15,0,0,0,-15,0,-15,15,15,"Advent",20,5,30,10,15,10
"107",6,"POL LAM3-Ref-POL LAM4-Ref",-0.4677910975,-0.4957491975,-0.4869718975,-0.4824729975,-0.5270808975,-0.6382420975,-0.7417242475,-0.7644229475,-0.6948445475,-0.5569923475,-0.4357575975,-0.3567515975,-0.2635053445,-0.1136323695,0.0882061305,0.2865034305,0.4114965775,0.4269887025,0.3451213125,0.213763736,0.079621081,-0.041272919,-0.161058229,-0.2893966025,-0.3897174475,-0.4044529475,-0.30342011745,-0.10304271745,0.12542268255,0.30471513255,0.3871129525,0.347061471,0.180469921,-0.089882429,-0.397155779,-0.6281581475,1718,"DG_s09",13.781,14.391,14.969,14.969,30,15,10,10,0.578,"Left",30,15,15,15,0,0,0,-15,0,-15,15,15,"Advent",20,5,30,10,15,10
"108",6,"POL RHP4-Ref-POL RHP5-Ref",-0.09861287835,-0.02431940335,0.04104041165,0.09318415165,0.15583736565,0.25324084065,0.38970377565,0.55638342565,0.73508492565,0.90741832565,1.07045517565,1.22825952565,1.38027852565,1.51650802565,1.61115002565,1.62598902565,1.52613777565,1.29692992565,0.95695804565,0.5650065599,0.2124491099,-0.0240296401,-0.1279412601,-0.14111937435,-0.14644522435,-0.22235457435,-0.39196537435,-0.59156932435,-0.71839992435,-0.74703282435,-0.68631917435,-0.59864497435,-0.56553972435,-0.58123667435,-0.61144947435,-0.62216002435,1718,"DG_s09",13.781,14.391,14.969,14.969,30,15,10,10,0.578,"Left",30,15,15,15,0,0,0,-15,0,-15,15,15,"Advent",20,5,30,10,15,10
"109",6,"POL ROF3-Ref-POL ROF4-Ref",0.609511395,0.2362269255,-0.2413027245,-0.5900466345,-0.69897302196,-0.57202580246,-0.30129610246,-0.06971029246,0.0568711949999999,0.109202895,0.131681345,0.149970695,0.153115995,0.106941245,-0.00766735500000004,-0.169561305,-0.32133949,-0.40020669,-0.39378074,-0.34936329,-0.34035031685,-0.43104623185,-0.63329398185,-0.86159548185,-0.98391187,-0.95219824,-0.775863585,-0.524869085,-0.295681835,-0.1153119,0.013162295,0.0811017449999999,0.073262195,-0.020502105,-0.19729717325,-0.43949297325,1718,"DG_s09",13.781,14.391,14.969,14.969,30,15,10,10,0.578,"Left",30,15,15,15,0,0,0,-15,0,-15,15,15,"Advent",20,5,30,10,15,10
"110",6,"POL RPC1-Ref-POL RPC2-Ref",0.4984062285,0.4071563285,0.22602539025,0.03288318595,-0.04728286405,0.04512968595,0.2856997742,0.5528299785,0.7665530285,0.9737430785,1.2262581285,1.5052146285,1.7130361285,1.7357351285,1.5272580785,1.1320780285,0.6525401485,0.2012782621,-0.1238301899,-0.2601966917,-0.2100083117,-0.0336369253,0.1785823267,0.3418014285,0.4237133285,0.4492358285,0.4492814785,0.4180210285,0.3078486485,0.057227318,-0.353880282,-0.708855482,-0.863439302,-0.8218875815,-0.6245835115,-0.5081925615,1718,"DG_s09",13.781,14.391,14.969,14.969,30,15,10,10,0.578,"Left",30,15,15,15,0,0,0,-15,0,-15,15,15,"Advent",20,5,30,10,15,10
"111",6,"POL RAM4-Ref-POL RAM5-Ref",-0.1081468,0.0600136032,0.2326797732,0.3687927232,0.4773213732,0.60482707,0.80330935,1.11040865,1.52939925,2.015381,2.49415335,2.88091785,3.10013685,3.11039235,2.91374635,2.54668135,2.0659538,1.54236975,1.064785625,0.718481795,0.536769395,0.494645745,0.52161862,0.53725431,0.50778441625,0.44908745125,0.39812119015,0.38660128515,0.4210550789,0.4796893439,0.526348805,0.53205865,0.49012054655,0.41428494655,0.32765414655,0.25136639655,1718,"DG_s09",13.781,14.391,14.969,14.969,30,15,10,10,0.578,"Left",30,15,15,15,0,0,0,-15,0,-15,15,15,"Advent",20,5,30,10,15,10
"112",6,"POL LAM2-Ref-POL LAM3-Ref",-0.187849645835,-0.20931565335,-0.11383027335,0.12126072665,0.46578667665,0.841634205,1.168003895,1.386879945,1.471399145,1.436125645,1.325318145,1.185294345,1.044558995,0.908005995,0.773267745,0.649335645,0.554768395,0.505825845,0.506160295,0.542612995,0.585179895,0.592229295,0.520933945,0.3404683815,0.0441415815,-0.3264506685,-0.5989071185,-0.664414705,-0.5216436035,-0.2276372535,0.0245559965,0.107229826,0.0175340245,-0.1691708755,-0.3120909755,-0.3109631135,1718,"DG_s09",13.781,14.391,14.969,14.969,30,15,10,10,0.578,"Left",30,15,15,15,0,0,0,-15,0,-15,15,15,"Advent",20,5,30,10,15,10
"113",6,"POL RPC5-Ref-POL RPC6-Ref",0.3139751,0.25550945,0.16801445,0.0431298,-0.11429055,-0.2729842,-0.34061055,-0.23443276,0.072053088,0.558522288,1.119505538,1.628422798,2.00059345,2.19772475,2.22875675,2.14071475,1.99119975,1.82420305,1.66671155,1.5327359,1.42629415,1.34261325,1.26847705,1.18380035,1.0744094,0.943878485,0.80473395265,0.67040599765,0.56092864765,0.50104779265,0.5098575545,0.5921675095,0.7215657095,0.8409662795,0.90301315,0.9191925,1718,"DG_s09",13.781,14.391,14.969,14.969,30,15,10,10,0.578,"Left",30,15,15,15,0,0,0,-15,0,-15,15,15,"Advent",20,5,30,10,15,10
"114",6,"POL ROF6-Ref-POL ROF7-Ref",0.57237591,0.68016761,0.65944476,0.47645496,0.15151949135,-0.25738910865,-0.67896545865,-1.01356380865,-1.17360104,-1.15712974,-1.01154354,-0.84281049,-0.75880939,-0.77059594,-0.82258639,-0.825301745,-0.7093253983,-0.4650376483,-0.1429412983,0.1641666067,0.36151271,0.38505076,0.2141873835,-0.1261348165,-0.5460212165,-0.8718838165,-1.00690484,-0.95263054,-0.776724755,-0.625795665,-0.571158515,-0.600220615,-0.68180085,-0.77909489,-0.85047619,-0.84976384,1718,"DG_s09",13.781,14.391,14.969,14.969,30,15,10,10,0.578,"Left",30,15,15,15,0,0,0,-15,0,-15,15,15,"Advent",20,5,30,10,15,10
"115",6,"POL ROF2-Ref-POL ROF3-Ref",0.28259425,0.3930345,0.48133605,0.5640589,0.641185,0.6968004,0.71277655,0.678725,0.5990396,0.4905865,0.3723263,0.2646793,0.19072745,0.16116525,0.16554435,0.179434,0.18315595,0.19217025,0.2524044,0.39412205,0.60684087305,0.83371155305,0.99901913305,1.05182707805,0.981413005,0.832772425,0.697139095,0.6360064,0.6501845,0.7039897,0.7524528,0.79893104,0.881868828515,1.014760828515,1.154761928515,1.220979618515,1718,"DG_s09",13.781,14.391,14.969,14.969,30,15,10,10,0.578,"Left",30,15,15,15,0,0,0,-15,0,-15,15,15,"Advent",20,5,30,10,15,10
"116",6,"POL RPC3-Ref-POL RPC4-Ref",0.08673265,0.18896095,0.25029305,0.24858625,0.19689115,0.1574699,0.16021235,0.20215015,0.2411274,0.2297674,0.1955552,0.1819202,0.20962275,0.2658764,0.3151881,0.3432998,0.35991775,0.38531605,0.441864205,0.540375233,0.664668483,0.771978033,0.8071308227835,0.7229107447835,0.5055633447835,0.2643318447835,0.1619929,0.222861669,0.430383814,0.665507914,0.781311493825,0.786135025825,0.725827195825,0.644740145825,0.560527816,0.461857865,1718,"DG_s09",13.781,14.391,14.969,14.969,30,15,10,10,0.578,"Left",30,15,15,15,0,0,0,-15,0,-15,15,15,"Advent",20,5,30,10,15,10
"117",6,"POL RHP6-Ref-POL RHP7-Ref",0.06038827945,0.18159627945,0.41796335945,0.73972010945,1.05513609195,1.26286184195,1.32265174195,1.24844224195,1.06536004195,0.79753349995,0.46027701495,0.07339276495,-0.30890343505,-0.61650319305,-0.82605870805,-0.94497495805,-0.93015920805,-0.77757895805,-0.49553216905,-0.11382926905,0.24129278095,0.46227113095,0.49169674095,0.31628620595,-0.03735484405,-0.41097399405,-0.58934804305,-0.56211826305,-0.36162295805,-0.13596960305,-0.06867195305,-0.12032994805,-0.21588235305,-0.30431380805,-0.37662430805,-0.44495415805,1718,"DG_s09",13.781,14.391,14.969,14.969,30,15,10,10,0.578,"Left",30,15,15,15,0,0,0,-15,0,-15,15,15,"Advent",20,5,30,10,15,10
"118",6,"POL LAM6-Ref-POL LAM7-Ref",0.08067,-0.00385140000000006,-0.1005957,-0.13106705,-0.08259505,0.0404436,0.1711596,0.2400672,0.24464065,0.19523875,0.11168795,0.0165557,-0.066064,-0.10907645,-0.09770195,-0.0335657,0.0637113,0.1575959,0.21328305,0.21863085,0.20070425,0.20736215,0.2677793,0.3758437,0.48501655,0.53251455,0.4819407,0.33596295,0.16260155,0.06417305,0.0744726999999999,0.18359115,0.32380005,0.40009485,0.39568085,0.3490929,1718,"DG_s09",13.781,14.391,14.969,14.969,30,15,10,10,0.578,"Left",30,15,15,15,0,0,0,-15,0,-15,15,15,"Advent",20,5,30,10,15,10
"119",6,"POL RPC4-Ref-POL RPC5-Ref",0.24954390273,0.00874210273,-0.26450329727,-0.34291830677,-0.20072519477,0.13180655523,0.48460045523,0.55138454773,0.28953264773,0.00465926023,-0.04389639477,0.20069522723,0.71844427723,1.21921591473,1.50372696973,1.59164506973,1.53874106973,1.40391426973,1.24844006973,1.13460041973,1.10543691973,1.16439721973,1.27642241973,1.39126306973,1.47461056973,1.51946756973,1.52257206973,1.46103306973,1.30379916973,1.03939461973,0.69162192915,0.30926112915,-0.05998652085,-0.37427662085,-0.59521258027,-0.69904108027,1718,"DG_s09",13.781,14.391,14.969,14.969,30,15,10,10,0.578,"Left",30,15,15,15,0,0,0,-15,0,-15,15,15,"Advent",20,5,30,10,15,10
"120",6,"POL RAM2-Ref-POL RAM3-Ref",-0.238246086,-0.3607037825,-0.5522728325,-0.8143739825,-1.1238054965,-1.2944014,-1.27658795,-1.08179232435,-0.74771257435,-0.47504932435,-0.32156712435,-0.27490155,-0.310004074,-0.3912469295,-0.4810989445,-0.5525752945,-0.5913848155,-0.601222655,-0.59584699,-0.58441754,-0.5637974565,-0.5244749115,-0.4653641115,-0.3973391115,-0.33931845,-0.310834,-0.327690704,-0.4011400945,-0.5351348445,-0.7211906445,-0.9337416405,-1.1262344,-1.2464165,-1.27390405,-1.2255318,-1.14883755,1718,"DG_s09",13.781,14.391,14.969,14.969,30,15,10,10,0.578,"Left",30,15,15,15,0,0,0,-15,0,-15,15,15,"Advent",20,5,30,10,15,10
"121",7,"POL ROF4-Ref-POL ROF5-Ref",-0.18664145,-0.22937185,-0.14335889,0.081226461,0.409424861,0.781956611,1.149301601,1.4732996,1.720351,1.85973545,1.87595895,1.77679065,1.59142545,1.3585188,1.1120181,0.87731368,0.6669220589,0.4786368239,0.3055505739,0.1644079439,0.103323265,0.1508707255,0.2949982755,0.4731418255,0.5823598305,0.5533411495,0.3878472995,0.1728837995,0.0348708445,0.031988135,0.1518497311,0.3154922111,0.4208358501,0.43494524035,0.37636399425,0.27787226425,1719,"DG_s09",15.969,16.594,17.328,17.328,28,4,10,10,0.734,"Left",28,4,24,24,0,0,0,-24,0,-24,24,24,"Advent",18,-6,28,10,4,10
"122",7,"POL RPC2-Ref-POL RPC3-Ref",0.9419984075,0.703359254,0.276894704,-0.174887346,-0.460559796,-0.5243516425,-0.3919806075,-0.16546804,0.03724101,0.20545921,0.347588425,0.4485931575,0.4744214075,0.4006638674,0.2412709724,0.0522079724,-0.0825579226,-0.092735565,0.02828068,0.21615913,0.380879075,0.4660010575,0.4669996075,0.4000079625,0.269620814595,0.059268914595,-0.227051285405,-0.467180490405,-0.519101131,-0.336778226,0.051535374,0.487316674,0.7871264125,0.8593350075,0.6723021235,0.2581423735,1719,"DG_s09",15.969,16.594,17.328,17.328,28,4,10,10,0.734,"Left",28,4,24,24,0,0,0,-24,0,-24,24,24,"Advent",18,-6,28,10,4,10
"123",7,"POL ROF1-Ref-POL ROF2-Ref",0.8138488805,1.0477977305,1.2343888305,1.3546866155,1.4041271,1.4054436,1.41534935,1.49327065,1.6582188,1.8722225,2.05143595,2.1132065,2.03343695,1.85163375,1.63157585,1.42699911,1.2547934905,1.0976649905,0.9420566405,0.8049795305,0.71586855,0.69122845,0.7264457,0.7893131,0.85001135,0.91018578,0.9837118965,1.0744477165,1.1706093665,1.2404025865,1.2514217605,1.198240786,1.094347236,0.956903986,0.7959210455,0.6066278,1719,"DG_s09",15.969,16.594,17.328,17.328,28,4,10,10,0.734,"Left",28,4,24,24,0,0,0,-24,0,-24,24,24,"Advent",18,-6,28,10,4,10
"124",7,"POL LAM2-Ref-POL LAM3-Ref",-0.50065854195,-0.13706214195,0.23849370805,0.492448517,0.606439642,0.598774442,0.506121792,0.368220092,0.216083712,0.0590608014,-0.1141566986,-0.3247906986,-0.5777078186,-0.777873408,-0.839238208,-0.754219608,-0.554745023,-0.372082093,-0.311751793,-0.372301443,-0.476900628,-0.514105458,-0.4244099725,-0.2119736725,0.0498325775,0.2649663275,0.402473342,0.481252542,0.529615242,0.560369692,0.562017792,0.514703992,0.406195142,0.2331919845,0.00648323450000002,-0.2246364155,1719,"DG_s09",15.969,16.594,17.328,17.328,28,4,10,10,0.734,"Left",28,4,24,24,0,0,0,-24,0,-24,24,24,"Advent",18,-6,28,10,4,10
"125",7,"POL LAM5-Ref-POL LAM6-Ref",-0.74932402515,-0.82397825515,-0.77347410515,-0.64484765515,-0.55347290515,-0.46512668065,-0.29028298065,0.01340931935,0.41216726935,0.80302819485,1.10160979485,1.26501479485,1.27906379485,1.15427744485,0.92858599485,0.66042289485,0.40503164485,0.188318232,0.00254117700000001,-0.174786673,-0.351889223,-0.50030771015,-0.57228095515,-0.55010940515,-0.46496315515,-0.38931595515,-0.40406240515,-0.54329895515,-0.71119995515,-0.78134250515,-0.73163545515,-0.57886850515,-0.43105125515,-0.39194530515,-0.44246295515,-0.53253690515,1719,"DG_s09",15.969,16.594,17.328,17.328,28,4,10,10,0.734,"Left",28,4,24,24,0,0,0,-24,0,-24,24,24,"Advent",18,-6,28,10,4,10
"126",7,"POL ROF6-Ref-POL ROF7-Ref",-0.2117227405,0.3352572095,0.8609305595,1.1850094345,1.2920022845,1.2155497345,1.0077159845,0.7233791845,0.4110914328,0.1122976378,-0.1403985622,-0.3291649622,-0.4531585605,-0.5265462655,-0.5708923655,-0.6019621155,-0.6254795155,-0.6448476155,-0.6668760655,-0.6990336655,-0.7470231155,-0.8154893655,-0.9125798155,-1.0542022655,-1.1741435655,-1.1932336655,-1.1030335655,-0.8892816155,-0.6151569725,-0.3503126975,-0.0943870475,0.1437673525,0.3440071595,0.4820887845,0.5436612345,0.5223163345,1719,"DG_s09",15.969,16.594,17.328,17.328,28,4,10,10,0.734,"Left",28,4,24,24,0,0,0,-24,0,-24,24,24,"Advent",18,-6,28,10,4,10
"127",7,"POL LAM1-Ref-POL LAM2-Ref",0.5091466805,0.6820889355,0.8040172855,0.8501141355,0.8216734855,0.7378634855,0.6136539855,0.4519454783,0.2562550283,0.0452679783,-0.1461190217,-0.2807851645,-0.3341723145,-0.3012829145,-0.1944381445,-0.0380391845,0.1336183155,0.2812646155,0.3709783955,0.3851954855,0.330875059,0.237547599,0.139537404,0.056660104,-0.00696796949999998,-0.0397069095,-0.00954282099999998,0.105262779,0.294084829,0.504776779,0.6608975355,0.7175524355,0.6748046355,0.5513667255,0.366073101,0.130986801,1719,"DG_s09",15.969,16.594,17.328,17.328,28,4,10,10,0.734,"Left",28,4,24,24,0,0,0,-24,0,-24,24,24,"Advent",18,-6,28,10,4,10
"128",7,"POL RHP6-Ref-POL RHP7-Ref",0.0180733195,-0.0854106805,-0.1115462485,-0.0308682535,0.1260151965,0.2758114465,0.32290333,0.20963551,-0.06355019,-0.39120549,-0.583628414,-0.584913944,-0.40601935475,-0.14653802975,0.020451782,0.057405942,-0.01509864725,-0.15786882225,-0.332119784,-0.510311089,-0.680300439,-0.842747339,-0.989624189,-1.081606039,-1.123765089,-1.122667089,-1.076133789,-0.998132539,-0.863910289,-0.662362989,-0.422582449,-0.1995620676,-0.04394924672,0.01320392328,-0.03324261672,-0.16597144812,1719,"DG_s09",15.969,16.594,17.328,17.328,28,4,10,10,0.734,"Left",28,4,24,24,0,0,0,-24,0,-24,24,24,"Advent",18,-6,28,10,4,10
"129",7,"POL ROF5-Ref-POL ROF6-Ref",-0.343990455,-0.280297855,-0.127755455,0.09231112925,0.33501742925,0.58982522925,0.86709187925,1.166239595,1.464043845,1.719657895,1.891274845,1.951708845,1.895233345,1.741793145,1.543053845,1.370704845,1.274222245,1.261429195,1.307046895,1.365359095,1.393646045,1.359731245,1.233805095,0.991841718,0.633607218,0.206860168,-0.117451682,-0.251133205,-0.197094655,0.00473324500000005,0.195901555,0.30195132,0.33706927,0.32445572,0.28409096,0.225767345,1719,"DG_s09",15.969,16.594,17.328,17.328,28,4,10,10,0.734,"Left",28,4,24,24,0,0,0,-24,0,-24,24,24,"Advent",18,-6,28,10,4,10
"130",7,"POL RAM4-Ref-POL RAM5-Ref",0.2972361177885,0.43410298,0.578468485,0.687970185,0.713310935,0.62330653,0.4221199055,0.1575567055,-0.0829933445,-0.2256906895,-0.255156565,-0.206737615,-0.155279965,-0.169084765,-0.271020365,-0.447674515,-0.592795265,-0.643383665,-0.595777665,-0.462525965,-0.340486215,-0.281488715,-0.279495965,-0.314298265,-0.357260965,-0.381905015,-0.372771165,-0.331081065,-0.270343015,-0.206478015,-0.151206915,-0.107550715,-0.070361315,-0.031707635,0.0139469217,0.0615114147,1719,"DG_s09",15.969,16.594,17.328,17.328,28,4,10,10,0.734,"Left",28,4,24,24,0,0,0,-24,0,-24,24,24,"Advent",18,-6,28,10,4,10
"131",7,"POL RPC1-Ref-POL RPC2-Ref",0.06296885,0.03815095,0.00859425000000003,0.00253329999999996,0.03856905,0.1139278,0.2037567,0.2796531,0.3382048,0.39005405,0.43992425,0.47435045,0.46883555,0.40348575,0.2705009,0.09401805,-0.02919765,-0.03428135,0.0956591,0.357790551,0.682656401,1.013941351,1.319954601,1.56307855,1.7057285,1.71620875,1.568139,1.2518162015,0.8311867015,0.4919092015,0.3200156515,0.30362905,0.3583709,0.3092244,0.16644465,0.1078051,1719,"DG_s09",15.969,16.594,17.328,17.328,28,4,10,10,0.734,"Left",28,4,24,24,0,0,0,-24,0,-24,24,24,"Advent",18,-6,28,10,4,10
"132",7,"POL RAM3-Ref-POL RAM4-Ref",0.1248155,0.09361375,0.0883287,0.1075712,0.13226515,0.1470045,0.1659324,0.225110179,0.348667729,0.529263629,0.728936179,0.89516425,0.98496195,0.9791723,0.88226425,0.7164664055,0.5171620555,0.3216667555,0.1590866555,0.0442419,-0.02500975,-0.0640265,-0.0915162,-0.11916665,-0.1438237,-0.14885615,-0.12625015,-0.0868081,-0.049513,-0.01436045,0.049408375,0.172780407,0.364419107,0.596331157,0.815806482,0.98524005,1719,"DG_s09",15.969,16.594,17.328,17.328,28,4,10,10,0.734,"Left",28,4,24,24,0,0,0,-24,0,-24,24,24,"Advent",18,-6,28,10,4,10
"133",7,"POL RAM5-Ref-POL RAM6-Ref",0.36929875,0.575106915,0.7427812442,0.8554388181,0.9033307197,0.8859103497,0.8096767205,0.6884642466,0.542389795,0.39134805,0.2474814,0.1150241,0.00538129999999992,-0.0486045500000001,-0.0510835500000001,-0.00670780000000004,0.07205215,0.1463241,0.2095171,0.25209765,0.2570375,0.2192465,0.1708156,0.15985405,0.21658675,0.3516903,0.5380007875,0.72728556395,0.88718536395,0.99855106395,1.05316712645,1.050782134,0.997039082,0.908006082,0.822793332,0.8004968095,1719,"DG_s09",15.969,16.594,17.328,17.328,28,4,10,10,0.734,"Left",28,4,24,24,0,0,0,-24,0,-24,24,24,"Advent",18,-6,28,10,4,10
"134",7,"POL RPC3-Ref-POL RPC4-Ref",0.35418101475,0.1419095706,-0.00769226000000001,-0.0301257149999999,0.098419396,0.370560796,0.620085946,0.828480461,1.0074438,1.1548355,1.2638063,1.3291499,1.34819795,1.32266065,1.25802005,1.1697456,1.0770923,0.9840972,0.87367591,0.7180235275,0.5007851275,0.2481461275,0.0422018675,-0.0685230999999999,-0.0887528,-0.06335885,-0.0747917499999999,-0.1539997,-0.23861985,-0.2526512,-0.17408275,-0.00896564999999994,0.17155345,0.2762739,0.26074265,0.12386825,1719,"DG_s09",15.969,16.594,17.328,17.328,28,4,10,10,0.734,"Left",28,4,24,24,0,0,0,-24,0,-24,24,24,"Advent",18,-6,28,10,4,10
"135",7,"POL LAM3-Ref-POL LAM4-Ref",0.6947825245,0.7113119245,0.7512149745,0.8133537745,0.8677437245,0.8891195245,0.8661899245,0.7949370745,0.6698528245,0.472518647,0.183814347,-0.159373103,-0.400303853,-0.4409410935,-0.2763220435,0.0184401565,0.2534996065,0.3245127995,0.2460509405,0.0867887905,-0.0697531095,-0.1617461845,-0.16127822475,-0.06835636475,0.09887893525,0.31415783525,0.5410950345,0.7291704745,0.8285985745,0.8075563745,0.6603361245,0.4121651265,0.1070620265,-0.2146083735,-0.5273945735,-0.8098803755,1719,"DG_s09",15.969,16.594,17.328,17.328,28,4,10,10,0.734,"Left",28,4,24,24,0,0,0,-24,0,-24,24,24,"Advent",18,-6,28,10,4,10
"136",7,"POL RHP5-Ref-POL RHP6-Ref",-0.6347889985,-0.8284727425,-0.8199007425,-0.6064896865,-0.2797030365,-0.0521404365,0.0567282035,0.0879441475,0.0937743975,0.1110654975,0.1491594975,0.2036008475,0.2638553975,0.3149728975,0.3419069975,0.3204136975,0.23093733225,0.07724833725,-0.12132636275,-0.34139206275,-0.5611391475,-0.7582582025,-0.9009343025,-0.9568070525,-0.9109025025,-0.7792088525,-0.6156419025,-0.4884948025,-0.4525851025,-0.5325362025,-0.6975753525,-0.8377160525,-0.8682868525,-0.7797123025,-0.6175023025,-0.4903884525,1719,"DG_s09",15.969,16.594,17.328,17.328,28,4,10,10,0.734,"Left",28,4,24,24,0,0,0,-24,0,-24,24,24,"Advent",18,-6,28,10,4,10
"137",7,"POL ROF2-Ref-POL ROF3-Ref",-0.53734935,-0.60240405,-0.52794325,-0.35123855,-0.212068,-0.1561185,-0.1161186,-0.0186457405,0.1647242095,0.4172195595,0.6639322595,0.8172791,0.8239635,0.660404568,0.341656918,-0.026996432,-0.274020932,-0.3286089,-0.1847976725,0.0923790275,0.3770964775,0.6131091775,0.7691016,0.82380545,0.7746451,0.646523625,0.48104114852,0.31127349852,0.15418829852,0.01358427352,-0.11919325,-0.24449765,-0.31489635,-0.270589265,-0.0983746599999999,0.17036874,1719,"DG_s09",15.969,16.594,17.328,17.328,28,4,10,10,0.734,"Left",28,4,24,24,0,0,0,-24,0,-24,24,24,"Advent",18,-6,28,10,4,10
"138",7,"POL RPC5-Ref-POL RPC6-Ref",0.4244251041,0.8790790741,1.106768281,1.127779331,1.004406131,0.800938781,0.566518181,0.332695226,0.1118963705,-0.1019916795,-0.3257171295,-0.5655428245,-0.778595969,-0.902109019,-0.921283669,-0.831939469,-0.650208979,-0.4264546065,-0.2070086065,-0.0658235574,-0.0923366524,-0.3262615249,-0.6780895249,-0.892899174,-0.922481369,-0.775443069,-0.539260319,-0.428477069,-0.440290569,-0.522212719,-0.622015069,-0.718866569,-0.828094869,-0.966166569,-1.035173869,-0.971812919,1719,"DG_s09",15.969,16.594,17.328,17.328,28,4,10,10,0.734,"Left",28,4,24,24,0,0,0,-24,0,-24,24,24,"Advent",18,-6,28,10,4,10
"139",7,"POL LAM6-Ref-POL LAM7-Ref",-0.49334321565,-0.6421507175,-0.607521375,-0.38086928,-0.01542868,0.29886242,0.5423612275,0.7185125825,0.8294049825,0.8736158325,0.8525545325,0.7709224325,0.6366873325,0.4730469825,0.3206789325,0.2244821325,0.2109853825,0.2693225325,0.3527765825,0.4059315825,0.3953100825,0.3170822925,0.187487379,0.029432729,-0.136348771,-0.294061531,-0.4353007175,-0.5578354175,-0.6591491675,-0.7218309175,-0.7126457675,-0.6048432175,-0.39640046125,-0.12538756125,0.13836003875,0.32664138875,1719,"DG_s09",15.969,16.594,17.328,17.328,28,4,10,10,0.734,"Left",28,4,24,24,0,0,0,-24,0,-24,24,24,"Advent",18,-6,28,10,4,10
"140",7,"POL ROF3-Ref-POL ROF4-Ref",0.5953445035,0.7332474625,0.7783672925,0.706048809,0.520890239,0.28772748,0.1425536,0.1553212,0.3331691465,0.6132257965,0.8538927465,0.9828518465,1.006030095,0.980093495,0.971826745,1.019879045,1.1188593,1.2305968,1.3225584,1.38195335,1.4018759,1.3710199,1.2820051,1.13651498115,0.93875259615,0.69815844615,0.43175444615,0.179167965,-0.000109849999999967,-0.08165815,-0.07361745,-0.00809134999999994,0.0786567500000001,0.18574185,0.3207878,0.4860170603,1719,"DG_s09",15.969,16.594,17.328,17.328,28,4,10,10,0.734,"Left",28,4,24,24,0,0,0,-24,0,-24,24,24,"Advent",18,-6,28,10,4,10
"141",7,"POL RAM2-Ref-POL RAM3-Ref",0.8575799721,0.97442095,0.9845716,0.904632085,0.77189398935,0.61610059435,0.44276309435,0.24090930935,0.023131605,-0.12394925,-0.12273875,0.0508151605500001,0.37010431055,0.73050761055,1.04048951055,1.2569209,1.3515241,1.3024318,1.100346571,0.762966221,0.355364571,0.0202930210000001,-0.1326937,-0.0897011,0.10307703,0.32174384025,0.4646592389,0.5040131239,0.4321764439,0.25496068365,-0.000291364999999932,-0.25305755,-0.37489955,-0.3242272,-0.111556695,0.178892261,1719,"DG_s09",15.969,16.594,17.328,17.328,28,4,10,10,0.734,"Left",28,4,24,24,0,0,0,-24,0,-24,24,24,"Advent",18,-6,28,10,4,10
"142",7,"POL RHP4-Ref-POL RHP5-Ref",-0.17007115,-0.09243535,0.05515429,0.22188369078,0.34438476608,0.38342093108,0.33597419108,0.2467725403,0.193981785,0.2324883345,0.3631484845,0.5242992345,0.6216644195,0.594912001,0.439310401,0.192609151,-0.0862638039999999,-0.3296699,-0.49844995,-0.59549195,-0.59948115,-0.52581305,-0.39394915,-0.2096308,-0.02767975,0.1106118,0.1790438,0.16886375,0.10787505,0.07777445,0.15491453,0.35898648,0.64583728,0.90504408,1.0328863,0.9936184,1719,"DG_s09",15.969,16.594,17.328,17.328,28,4,10,10,0.734,"Left",28,4,24,24,0,0,0,-24,0,-24,24,24,"Advent",18,-6,28,10,4,10
"143",7,"POL RAM6-Ref-POL RAM7-Ref",-0.06358045,0.02523225,0.18593685,0.39005465,0.5922481449,0.7621315149,0.8892144649,0.9808105149,1.05069062,1.10466565,1.140403,1.15344,1.14304205,1.1101513,1.0463901115,0.9275202315,0.7284702815,0.4556538315,0.18986917,0.0131186,-0.0801817500000001,-0.13007535,-0.16921165,-0.1618135,-0.0815447500000001,0.09242925,0.3063127,0.4478031,0.50998245,0.5207784,0.5232287,0.55231095,0.6221820077,0.7268011827,0.8534934827,0.9939855827,1719,"DG_s09",15.969,16.594,17.328,17.328,28,4,10,10,0.734,"Left",28,4,24,24,0,0,0,-24,0,-24,24,24,"Advent",18,-6,28,10,4,10
"144",7,"POL RPC4-Ref-POL RPC5-Ref",0.407840146,0.543328546,0.692950896,0.836770396,0.953383046,1.020291146,1.019493996,0.949784846,0.832772296,0.700635596,0.578780846,0.478951396,0.400652896,0.344580046,0.323539946,0.347008346,0.398212646,0.426911946,0.36335358,0.16110058,-0.15788682,-0.46314872,-0.629180104,-0.633980954,-0.522508404,-0.420299354,-0.422382354,-0.513799304,-0.634482054,-0.728006354,-0.761380904,-0.730307954,-0.667189604,-0.618520554,-0.620767654,-0.676528404,1719,"DG_s09",15.969,16.594,17.328,17.328,28,4,10,10,0.734,"Left",28,4,24,24,0,0,0,-24,0,-24,24,24,"Advent",18,-6,28,10,4,10
"145",8,"POL RAM5-Ref-POL RAM6-Ref",0.1552438651,0.3173654675,0.3373456675,0.165744289,-0.072855332,-0.077533332,0.313692968,1.1359356465,2.2170251675,3.1682272175,3.6955587175,3.6113892175,2.8697747675,1.6636441425,0.7439752865,0.5188177865,1.0848782365,2.3004583615,3.4618162175,4.2145242175,4.5031372175,4.3959702175,4.0343522175,3.5344972175,2.9369467175,2.2325486675,1.434658654,0.632369319,-0.046970681,-0.540868781,-0.8724048175,-1.0372505825,-1.0637641825,-1.0179496325,-0.9326202825,-0.9163613825,1720,"DG_s09",18.328,18.938,19.734,19.75,10,10,4,4,0.796,"Left",4,4,0,0,0,0,0,0,0,0,0,0,"10-10",6,6,10,4,10,4
"146",8,"POL LAM5-Ref-POL LAM6-Ref",0.1197835965,0.0365502965,-0.0233595985,-0.0269287761,0.0225932959,0.0909923809,0.1426884659,0.1581375283,0.1311075263,0.0723604913,0.00244986629999999,-0.067500095,-0.130724115,-0.175615415,-0.176206015,-0.1012984875,0.0689415625,0.3247135625,0.6140890125,0.867961835,1.027179235,1.047988085,0.912751335,0.6375313455,0.2725129455,-0.0757903545,-0.2768293545,-0.275718331,-0.083925281,0.222937169,0.527485769,0.760108235,0.882896435,0.867485685,0.70450987835,0.41254474335,1720,"DG_s09",18.328,18.938,19.734,19.75,10,10,4,4,0.796,"Left",4,4,0,0,0,0,0,0,0,0,0,0,"10-10",6,6,10,4,10,4
"147",8,"POL LAM6-Ref-POL LAM7-Ref",0.15036925,0.2575564,0.4167863495,0.6709771495,1.0358165995,1.4910299995,1.98416785,2.4320837,2.74516165,2.85554615,2.73153015,2.38050225,1.849247229,1.208177829,0.566163229,0.201026279,0.1669735,0.4342364,0.88940295,1.22963535,1.3684427,1.31134315,1.15041755,1.01765,0.9882003,1.05386015,1.1357895,1.12335355,0.966283888,0.711493238,0.484978138,0.3990675175,0.4875920295,0.7116148295,0.9578486295,1.11713815,1720,"DG_s09",18.328,18.938,19.734,19.75,10,10,4,4,0.796,"Left",4,4,0,0,0,0,0,0,0,0,0,0,"10-10",6,6,10,4,10,4
"148",8,"POL ROF1-Ref-POL ROF2-Ref",0.2751398,0.1117939,-0.0313870000000001,-0.0559945500000001,0.0682002804999999,0.3611057505,0.7395002505,1.1594551005,1.63703232,2.16354195,2.70002975,3.1895966,3.5810826,3.8426486,3.9624766,3.9525316,3.8510196,3.7122266,3.5809296,3.4628771,3.3228471,3.1093891,2.7867441,2.35672005,1.84947989,1.311207464,0.803779714,0.410108514,0.195460424,0.1676933,0.298739649,0.526157224,0.787883124,1.054435624,1.300128525,1.4918902,1720,"DG_s09",18.328,18.938,19.734,19.75,10,10,4,4,0.796,"Left",4,4,0,0,0,0,0,0,0,0,0,0,"10-10",6,6,10,4,10,4
"149",8,"POL LAM1-Ref-POL LAM2-Ref",0.5750969635,0.8599481135,1.0960745135,1.2256408,1.2173219,1.070264134,0.804584484,0.465930584,0.219197684,0.17497569,0.3304190855,0.6332288855,0.8990156855,0.99280215475,0.89932690425,0.65968310425,0.40793765425,0.31082388,0.4287108475,0.7483252975,1.1504830475,1.4692288125,1.63460745,1.6348962,1.49529855,1.2634296465,0.9998009015,0.7715367015,0.6275007515,0.576026105,0.58530645,0.59520685,0.55034275,0.43415955,0.2678089,0.0905016000000001,1720,"DG_s09",18.328,18.938,19.734,19.75,10,10,4,4,0.796,"Left",4,4,0,0,0,0,0,0,0,0,0,0,"10-10",6,6,10,4,10,4
"150",8,"POL RAM4-Ref-POL RAM5-Ref",0.1377553,0.1272435,0.0872997500000001,0.0766339,0.17303316385,0.44013886385,0.90034076385,1.50705316385,2.1703599,2.78090205,3.2124126,3.3413446,3.0913706,2.5109684,1.92018255,1.72778105,2.11178205,3.03890175,4.1840801,5.1537421,5.7952166,6.0883801,6.0612066,5.7397766,5.1337011,4.2619151,3.18477565,2.017281923,1.0948267365,0.6685293165,0.7158397665,1.1459399935,1.63644118,1.9281756,2.0059276,1.88387515,1720,"DG_s09",18.328,18.938,19.734,19.75,10,10,4,4,0.796,"Left",4,4,0,0,0,0,0,0,0,0,0,0,"10-10",6,6,10,4,10,4
"151",8,"POL RAM3-Ref-POL RAM4-Ref",0.136995968125,0.185339918125,0.296001168125,0.504976268125,0.767262968125,0.953319618125,0.923701968125,0.623357213125,0.117806863125,-0.311034586875,-0.467092315225,-0.294840360225,0.191354289775,0.771572889775,1.289795568125,1.693598068125,1.938394268125,2.008264268125,1.918007768125,1.704438768125,1.417913068125,1.105991618125,0.803385718125,0.534766818125,0.322200668125,0.187553518125,0.141917318125,0.176033768125,0.265118768125,0.382494718125,0.509550618125,0.632045968125,0.728004718125,0.768995018125,0.735561068125,0.628911718125,1720,"DG_s09",18.328,18.938,19.734,19.75,10,10,4,4,0.796,"Left",4,4,0,0,0,0,0,0,0,0,0,0,"10-10",6,6,10,4,10,4
"152",8,"POL ROF3-Ref-POL ROF4-Ref",0.32347135505,0.47312705505,0.624598884,0.776043335,0.892801185,0.910783935,0.7691168105,0.4604031605,0.0501213105,-0.2824503895,-0.433964915,-0.414700865,-0.265234665,-0.095928565,0.04815764425,0.18782432425,0.33023132425,0.45467547425,0.541439665,0.592909485,0.611761085,0.589297815,0.5037706885,0.3261102385,0.0347293885,-0.2635256915,-0.369651115,-0.26949810505,0.01810924495,0.34810379495,0.50991279995,0.508648815,0.394465765,0.228587165,0.06243901,-0.053723665,1720,"DG_s09",18.328,18.938,19.734,19.75,10,10,4,4,0.796,"Left",4,4,0,0,0,0,0,0,0,0,0,0,"10-10",6,6,10,4,10,4
"153",8,"POL ROF4-Ref-POL ROF5-Ref",0.3650435218,0.2887676218,0.0847937913,-0.2600099587,-0.6351283587,-0.8139514872,-0.7328795617,-0.4020074117,0.0454518383,0.3707602168,0.5177455718,0.5161204718,0.4276165718,0.3211740218,0.2494552218,0.2352595718,0.2703421218,0.3178946718,0.3236827218,0.2397267218,0.0448467263,-0.2432326737,-0.5569043737,-0.8017573237,-0.9040787282,-0.7951155737,-0.4494059737,0.0717453263,0.6563920263,1.1535956718,1.4279758218,1.4214688218,1.1563852718,0.7244968218,0.2954836418,0.0565291918,1720,"DG_s09",18.328,18.938,19.734,19.75,10,10,4,4,0.796,"Left",4,4,0,0,0,0,0,0,0,0,0,0,"10-10",6,6,10,4,10,4
"154",8,"POL RPC5-Ref-POL RPC6-Ref",-0.7798100275,-0.3350340275,0.0257086725,0.1243608875,-0.0247171895,-0.3098570145,-0.5643454795,-0.6955754798,-0.7288933098,-0.7674316348,-0.8688684198,-0.920517984,-0.848080942,-0.656937942,-0.436522142,-0.3462769275,-0.3942983475,-0.4936337325,-0.5862714703,-0.6737033053,-0.7501949703,-0.7492324518,-0.619503964,-0.349028579,0.0217278209999999,0.3896007375,0.6647500375,0.7794920375,0.6707514375,0.3224909101,-0.1670786899,-0.6125993399,-0.9178797899,-1.0956092125,-1.1591030625,-1.10539993,1720,"DG_s09",18.328,18.938,19.734,19.75,10,10,4,4,0.796,"Left",4,4,0,0,0,0,0,0,0,0,0,0,"10-10",6,6,10,4,10,4
"155",8,"POL LAM3-Ref-POL LAM4-Ref",0.0921208,0.23268025,0.3001772,0.29275455,0.2364377,0.1681512,0.11767125,0.09855805,0.1088779,0.1361254,0.163815,0.1778511,0.1689327,0.1357809,0.09137725,0.06279495,0.07525415,0.1369985,0.23754225,0.3506455,0.4493193,0.52106915,0.5647738,0.58128135,0.5685466,0.5241508,0.4534496,0.3829408,0.358579,0.418590145,0.5797335435,0.8272931935,1.1145689935,1.3911555985,1.6226657,1.7964755,1720,"DG_s09",18.328,18.938,19.734,19.75,10,10,4,4,0.796,"Left",4,4,0,0,0,0,0,0,0,0,0,0,"10-10",6,6,10,4,10,4
"156",8,"POL LAM2-Ref-POL LAM3-Ref",-0.3562416023,-0.4689615523,-0.5449016023,-0.57730075,-0.5807503,-0.5799909,-0.59353675,-0.62847625,-0.687808,-0.77453255,-0.88364675,-0.9944847,-1.07460545,-1.08930495,-1.023865,-0.8946023,-0.74006519,-0.60997085,-0.54424995,-0.5533263,-0.61244136,-0.6789322,-0.72267035,-0.74328395,-0.765548,-0.8103196,-0.8542356,-0.83611945,-0.7093508165,-0.4655433665,-0.1480392165,0.1650111335,0.4116414,0.56561555,0.637475,0.6639011,1720,"DG_s09",18.328,18.938,19.734,19.75,10,10,4,4,0.796,"Left",4,4,0,0,0,0,0,0,0,0,0,0,"10-10",6,6,10,4,10,4
"157",8,"POL ROF5-Ref-POL ROF6-Ref",0.39390165,0.32245265,0.2576514,0.28635935,0.4395079895,0.6858260895,0.9172122395,1.018418388,0.9443934585,0.7083262085,0.3665302585,0.14211556,0.12252365,0.3082481895,0.6641445395,0.9804120395,1.1684128395,1.2148725,1.1203884265,0.8960072765,0.5804961265,0.3204094265,0.24510915,0.379048728,0.709628628,1.122771778,1.514772478,1.86244695,2.1395198,2.3250199,2.4307554,2.4857674,2.5011084,2.4553704,2.3272169,2.1525014,1720,"DG_s09",18.328,18.938,19.734,19.75,10,10,4,4,0.796,"Left",4,4,0,0,0,0,0,0,0,0,0,0,"10-10",6,6,10,4,10,4
"158",8,"POL ROF6-Ref-POL ROF7-Ref",-0.153623775,0.029171764,0.320530614,0.584958314,0.68972123985,0.57369451085,0.30294636085,0.10754305585,0.1265484245,0.3791055645,0.7714607145,1.0770188195,1.18029745,1.084688005,0.85159165635,0.59814110635,0.45876765985,0.49768280485,0.6886281535,0.9207060035,1.05295265,1.0163365,0.8428076865,0.6310386265,0.4769611521,0.4232706021,0.4368775591,0.4308815041,0.3375014785,0.1724855285,0.036985785,0.0116973,0.1101360791,0.2919629691,0.4876499191,0.6686854191,1720,"DG_s09",18.328,18.938,19.734,19.75,10,10,4,4,0.796,"Left",4,4,0,0,0,0,0,0,0,0,0,0,"10-10",6,6,10,4,10,4
"159",8,"POL RPC3-Ref-POL RPC4-Ref",-1.0836259385,-1.3305473885,-1.47164307,-1.4213237965,-1.1544209465,-0.6717870965,-0.0918131464999998,0.41942935,0.76851385,0.90085185,0.81541635,0.57826335,0.2858149,0.00905805000000015,-0.22842675,-0.4493799,-0.6894833255,-0.9473622255,-1.1458327905,-1.199472586,-1.0990731105,-0.9033841605,-0.7475340455,-0.753951503,-0.936534153,-1.233042653,-1.550542653,-1.7993667,-1.9258659,-1.9259003,-1.83127275,-1.68905065,-1.5333699,-1.37395701825,-1.20663918325,-1.02747288325,1720,"DG_s09",18.328,18.938,19.734,19.75,10,10,4,4,0.796,"Left",4,4,0,0,0,0,0,0,0,0,0,0,"10-10",6,6,10,4,10,4
"160",8,"POL RHP6-Ref-POL RHP7-Ref",0.8595097015,1.0157105515,1.0962897015,1.1337413,1.17712855,1.26024195,1.38294045,1.509221,1.58254285,1.5591981,1.42095534545,1.17223685045,0.85973130045,0.59151355045,0.461337155,0.494090785,0.6629648281,0.8777107281,1.0518984781,1.1536069931,1.163583926,1.060862091,0.841207691,0.565825141,0.406486765,0.443741795,0.678612545,1.042626495,1.363953745,1.5671826,1.64953865,1.6259252,1.5150134,1.330250123,1.077211473,0.759356273,1720,"DG_s09",18.328,18.938,19.734,19.75,10,10,4,4,0.796,"Left",4,4,0,0,0,0,0,0,0,0,0,0,"10-10",6,6,10,4,10,4
"161",8,"POL RPC1-Ref-POL RPC2-Ref",1.5530260615,1.9563331245,2.1300567245,2.0685122245,1.8516801745,1.6342897245,1.5599637245,1.6607307245,1.8471092745,1.9601897245,1.8696510245,1.5481049945,1.06418512995,0.56483347995,0.21654107995,0.07101900995,0.0943976745,0.1870933745,0.2241265745,0.1860201245,0.1253723245,0.0938805245,0.1040991245,0.1255162745,0.0986125745,-0.0190217255,-0.1841956255,-0.2915461755,-0.3192933755,-0.2865446755,-0.2655095755,-0.2914760255,-0.2621299755,-0.12656635923,0.13067794077,0.43298574077,1720,"DG_s09",18.328,18.938,19.734,19.75,10,10,4,4,0.796,"Left",4,4,0,0,0,0,0,0,0,0,0,0,"10-10",6,6,10,4,10,4
