"","trial","electrodes","bin_1","bin_2","bin_3","bin_4","bin_5","bin_6","bin_7","bin_8","bin_9","bin_10","bin_11","bin_12","bin_13","bin_14","bin_15","bin_16","bin_17","bin_18","bin_19","bin_20","bin_21","bin_22","bin_23","bin_24","bin_25","bin_26","bin_27","bin_28","bin_29","bin_30","bin_31","bin_32","bin_33","bin_34","bin_35","bin_36","X","SID","newround_time","choice_time","buttonpress_time","reveal_time","self_payoff","other_payoff","self_foregone","other_foregone","RT","side_chosen","self_var_payoff","other_var_payoff","ineq_var_abs","ineq_choice_abs","ineq_foregone_abs","ineq_disadvent","ineq_advent","ineq_disadvent_choice","ineq_advent_choice","ineq_var","ineq_choice","chose_equality","self_diff","other_diff","L_self","R_self","L_other","R_other"
"1",2,"POL RPC5-Ref-POL RPC6-Ref",0.2464469629,0.4007958679,0.4914014654,0.4858605874,0.5057245874,0.4798005374,0.5536789174,0.7093835719,0.6307423609,0.4265314109,0.1978021609,-0.0299634891,-0.08998308975,0.09314180525,0.39838220525,0.58955475525,0.8387045169,0.9390836219,0.7757928624,0.6301764374,0.4197924479,0.2600659779,0.2497528224,0.2132224879,0.1346966274,0.0363533474,-0.0044246771,0.1231912324,0.2178692979,0.2206768939,0.1074543334,-0.00358411559999999,0.0120016639,0.1044085679,0.1657015604,0.0803825594,1714,"DG_s09",3,3.625,4.797,4.797,12,12,10,10,1.172,"Left",12,12,0,0,0,0,0,0,0,0,0,"Equal",2,2,12,10,12,10
"2",2,"POL RPC4-Ref-POL RPC5-Ref",-0.0221612593,0.05709670225,0.16915960725,0.23154976225,0.30565382425,0.27300967425,0.32594007425,0.46568031425,0.48778861425,0.59166826425,0.57524081425,0.3966275058,0.29523880215,0.17393470215,0.09053825215,0.0994542906,0.14825878225,0.20935488225,0.16111887075,0.09552429075,-0.04004034725,-0.23005389725,-0.27323298575,-0.27965208575,-0.24523458575,-0.12945162125,-0.00268957125,0.17147722875,0.21860151475,0.21767457375,0.17592082675,0.06099761225,0.19004542625,0.31864450275,0.25185211775,0.16373203225,1714,"DG_s09",3,3.625,4.797,4.797,12,12,10,10,1.172,"Left",12,12,0,0,0,0,0,0,0,0,0,"Equal",2,2,12,10,12,10
"3",2,"POL RHP6-Ref-POL RHP7-Ref",-0.23579041,-0.2120729715,-0.2599383615,-0.1460579925,0.00427170850000003,0.1020429825,0.2546344825,0.2891776135,0.1200299655,0.1600352855,0.3723432855,0.3862945355,0.41407553175,0.30531542225,0.10484342225,-0.01967072725,-0.1297189255,-0.220930236,-0.368591486,-0.336657719,-0.078307469,0.092005381,0.209626781,0.199304213,-0.092064637,-0.2433960416,-0.3186987286,-0.4561887781,-0.4508631781,-0.5075506235,-0.525272586,-0.370799461,-0.201699511,-0.117872869,-0.1171782195,-0.1926705945,1714,"DG_s09",3,3.625,4.797,4.797,12,12,10,10,1.172,"Left",12,12,0,0,0,0,0,0,0,0,0,"Equal",2,2,12,10,12,10
"4",2,"POL ROF2-Ref-POL ROF3-Ref",-0.109395191,-0.104466241,-0.0749110285,-0.0208533885,0.0074721455,0.0446708776,0.0642512261,-0.0639664739,-0.1603586649,-0.214568347,-0.2947006865,-0.253251069,-0.100850969,0.00069241515,0.10531324015,0.16105112265,0.1259983712,0.06431594705,-0.0289112295,-0.072581882,-0.16743775555,-0.16500750555,-0.079409519,-0.0198333665,0.0161075145,0.0171239745,0.00431589,-0.09551432071,-0.08569780171,-0.00189002546,0.06679292404,0.14560669975,0.1926323088,0.11499841755,0.01231756455,0.11071329955,1714,"DG_s09",3,3.625,4.797,4.797,12,12,10,10,1.172,"Left",12,12,0,0,0,0,0,0,0,0,0,"Equal",2,2,12,10,12,10
"5",2,"POL ROF5-Ref-POL ROF6-Ref",-0.0988933245,0.0785514755,0.258120653,0.4212730705,0.5559610185,0.4402680685,0.3675460685,0.2505428545,0.066467836,-0.018257391,-0.240646141,-0.367788806,-0.3295375815,-0.33849111415,-0.19582652765,-0.10896579535,-0.12553307835,-0.0734397687,-0.0341997552,-0.0044507085,0.1682202185,0.3211012185,0.261004864565,0.197923025565,0.055792515565,-0.033350534435,0.0809526195,0.2058150585,0.3421495185,0.4032659685,0.3842705185,0.4036606185,0.4865680185,0.5644087685,0.4800107074,0.3953731419,1714,"DG_s09",3,3.625,4.797,4.797,12,12,10,10,1.172,"Left",12,12,0,0,0,0,0,0,0,0,0,"Equal",2,2,12,10,12,10
"6",2,"POL LAM5-Ref-POL LAM6-Ref",-0.5027922525,-0.413366342,-0.314396895,-0.164005125,0.00064667499999993,0.112449025,0.181893125,0.173208375,0.033945875,-0.075246075,-0.25082264,-0.49829059,-0.622817915,-0.6858332375,-0.649860492,-0.660373192,-0.705558317,-0.8146343945,-0.921739375,-0.946793975,-0.967063875,-1.004765025,-0.8223325295,-0.4734083295,-0.2974683295,-0.1069630295,-0.1437241235,-0.4335608485,-0.540188567,-0.501306467,-0.2960395185,-0.1094699935,0.0534480749999999,0.069796575,-0.074088725,-0.023088275,1714,"DG_s09",3,3.625,4.797,4.797,12,12,10,10,1.172,"Left",12,12,0,0,0,0,0,0,0,0,0,"Equal",2,2,12,10,12,10
"7",2,"POL LAM6-Ref-POL LAM7-Ref",-0.2727741795,-0.2390918795,-0.250278588,-0.2246982825,-0.1473403625,-0.0556969125,0.010796344,-0.0774303945,0.0584243805,0.1620513305,0.160497916,0.3465806895,0.21213385575,0.05131071368,-0.01520118982,-0.19994659982,-0.25754161607,-0.253206662,-0.1516539585,-0.08499332135,-0.16093122135,-0.20527273135,-0.17506027635,0.0180696465,0.175603772,0.2034375525,0.1736995325,0.1190099825,0.275734857,0.4249312745,0.3969130395,0.3630372395,0.3720784395,0.5455352895,0.8044912895,0.8031230095,1714,"DG_s09",3,3.625,4.797,4.797,12,12,10,10,1.172,"Left",12,12,0,0,0,0,0,0,0,0,0,"Equal",2,2,12,10,12,10
"8",2,"POL LAM3-Ref-POL LAM4-Ref",-0.11658684845,-0.25036657845,-0.27567203825,-0.16553965825,0.03966229175,0.22867995675,0.23585370375,0.21088456375,0.19407596375,0.15796006875,0.1215990589,-0.0112470311,-0.0797540561,-0.0450160261,-0.000402993250000004,0.12904079125,0.06613765125,-0.11017674875,-0.19106550775,-0.23944539225,-0.19124105725,-0.12546809225,-0.13450599225,-0.21938914225,-0.25581453725,-0.25935207725,-0.08829972925,0.30421762075,0.53261244575,0.66607857075,0.63016766775,0.3863190892,0.3362073392,0.3441013792,0.2083447462,0.07100057475,1714,"DG_s09",3,3.625,4.797,4.797,12,12,10,10,1.172,"Left",12,12,0,0,0,0,0,0,0,0,0,"Equal",2,2,12,10,12,10
"9",2,"POL ROF4-Ref-POL ROF5-Ref",-0.107476937,-0.097843732,-0.083453032,-0.0195162255,0.04003022,0.017150245,-0.04768520635,-0.21449800635,-0.35474920635,-0.44750798135,-0.55315748,-0.51700138,-0.4589323015,-0.3277020715,-0.0949918715,0.0286574785,0.15090415,0.13965332,0.12933982,0.32251692,0.61894132,0.97781807,1.01151587,0.7663626755,0.4003250835,0.0150937085,-0.168226173,-0.13456785255,-0.02276411055,0.02265965645,-0.00617456705,-0.113864343,-0.26098656,-0.3333933865,-0.4022134815,-0.4504598315,1714,"DG_s09",3,3.625,4.797,4.797,12,12,10,10,1.172,"Left",12,12,0,0,0,0,0,0,0,0,0,"Equal",2,2,12,10,12,10
"10",2,"POL RPC2-Ref-POL RPC3-Ref",-0.3508881185,-0.3926999515,-0.34882187905,-0.20389386315,-0.18100651815,-0.21992107615,-0.1455623086,-0.0741725745,0.00206770550000002,0.0962788625,0.0525904925,-0.01223387675,0.01719327325,0.07522647325,0.0522642585,0.10566943775,0.18285870275,0.08198193625,0.100039431,0.04770731865,-0.12012269635,-0.15585422985,-0.19448329385,-0.225276447,-0.248056732,-0.308864282,-0.3008579145,-0.213714259,-0.17247682265,-0.04976149265,0.02534352385,0.10650892385,0.2346014875,0.2783541975,0.142159126,-0.114395524,1714,"DG_s09",3,3.625,4.797,4.797,12,12,10,10,1.172,"Left",12,12,0,0,0,0,0,0,0,0,0,"Equal",2,2,12,10,12,10
"11",2,"POL RAM6-Ref-POL RAM7-Ref",-0.3225723215,-0.1294746785,0.3099720215,0.5749531715,0.7716250215,1.1268579785,1.2630926285,1.2218384785,1.2187873785,0.9360424785,0.5455768785,0.4178996435,0.4217093935,0.4004929435,0.357699352,0.306005562,0.191678651,0.100512351,0.1204068025,0.1783026925,0.1613498562,0.0713201062,0.0878256272,0.2291111622,0.4185921095,0.480767529,0.44067091555,0.38053595055,0.42716955055,0.48660223105,0.4989118535,0.4071850235,0.2602658235,0.3335522735,0.5140443835,0.6517347785,1714,"DG_s09",3,3.625,4.797,4.797,12,12,10,10,1.172,"Left",12,12,0,0,0,0,0,0,0,0,0,"Equal",2,2,12,10,12,10
"12",2,"POL LAM1-Ref-POL LAM2-Ref",-0.07682988245,0.07550876755,0.46409778755,0.8803097355,1.0834366855,1.1377364355,0.777213802,0.351612442,0.220577142,0.250796742,0.4276220255,0.4607308355,0.4764182855,0.4162664355,0.183799659,0.100193859,-0.117035941,-0.312568841,-0.3421073645,-0.3819241145,-0.3416693695,-0.2721712202,-0.0235469202,0.2772109798,0.4127214348,0.395743961,0.214087616,0.00484694645,-0.08107525185,-0.01444821235,0.07815518265,0.1097370622,0.1439678255,0.1360907605,0.1127021105,0.0744370553,1714,"DG_s09",3,3.625,4.797,4.797,12,12,10,10,1.172,"Left",12,12,0,0,0,0,0,0,0,0,0,"Equal",2,2,12,10,12,10
"13",2,"POL RPC3-Ref-POL RPC4-Ref",0.43583592695,0.3682625185,0.234862789,0.2832323205,0.4122955705,0.6297445205,0.8225971,0.837670955,0.851906555,0.831321955,0.71625413605,0.59934738105,0.53499174605,0.46571234605,0.501142365,0.667619065,0.73470415,0.59975430675,0.44750625675,0.26467005675,0.07749380675,0.06186565,0.082766795,0.1496458907,0.3147845157,0.5398110657,0.7273786207,0.7574091812,0.6271112912,0.3326811412,0.0839771912,0.0609003495,0.2086214645,0.3879702645,0.5155848645,0.54204312,1714,"DG_s09",3,3.625,4.797,4.797,12,12,10,10,1.172,"Left",12,12,0,0,0,0,0,0,0,0,0,"Equal",2,2,12,10,12,10
"14",2,"POL RAM5-Ref-POL RAM6-Ref",-0.0869965435,0.015657069,0.1778591395,0.3564184395,0.3480431025,0.1693893015,0.0747935665,0.0271272825,-0.001295612,-0.001269011,-0.172662076,-0.335108842,-0.400092561,-0.405965361,-0.323811636,-0.233969591,-0.167995306,-0.086406827,-0.0998588735,-0.1929892685,-0.2860918535,-0.380291202,-0.2572463305,-0.0757727305,0.1090783695,0.19809112,0.077875774,0.042723844,-0.0565321865,-0.2141302175,-0.2862733715,-0.2826898865,-0.189347486,0.044195984,0.464106734,0.803992879,1714,"DG_s09",3,3.625,4.797,4.797,12,12,10,10,1.172,"Left",12,12,0,0,0,0,0,0,0,0,0,"Equal",2,2,12,10,12,10
"15",2,"POL LAM2-Ref-POL LAM3-Ref",-0.372552658,-0.26890754545,0.09837530455,0.35596800455,0.447631232,0.601833902,0.551454652,0.470335552,0.523692952,0.462585302,0.288897801,0.192256836,0.072752086,0.00947503600000002,0.080059287,0.0199714225,-0.0685056775,-0.1536226245,-0.1595021745,-0.024143345,0.161764155,0.402787952,0.614378352,0.655948752,0.5345340435,0.366943948,0.266611498,0.1361633335,0.093641992,0.0155871542,-0.1472865258,-0.1664609173,-0.2246654173,-0.332624534,-0.3840570612,-0.2743464052,1714,"DG_s09",3,3.625,4.797,4.797,12,12,10,10,1.172,"Left",12,12,0,0,0,0,0,0,0,0,0,"Equal",2,2,12,10,12,10
"16",2,"POL RHP4-Ref-POL RHP5-Ref",-0.072403268,-0.205337668,-0.3117689605,-0.3578537105,-0.2576197675,-0.0818769675,0.183795575,0.2142151725,0.0727261075,-0.0680341325,-0.3806033325,-0.54600783,-0.553142015,-0.622588675,-0.704128825,-0.813687375,-0.81796607,-0.734150096,-0.675365996,-0.639725696,-0.6058115065,-0.6679634005,-0.643205204,-0.542360278,-0.6606033225,-0.5819659855,-0.320081082,-0.124047408,0.173444042,0.275858575,0.192747675,0.209284075,0.169829925,0.084409025,-0.061753587,-0.324608437,1714,"DG_s09",3,3.625,4.797,4.797,12,12,10,10,1.172,"Left",12,12,0,0,0,0,0,0,0,0,0,"Equal",2,2,12,10,12,10
"17",2,"POL ROF3-Ref-POL ROF4-Ref",-0.1002372005,-0.139240899,-0.164942483,-0.181767047,-0.12556341895,-0.09743602895,-0.14318515895,-0.1466488206,-0.19678918115,-0.17147646415,0.03568488585,0.092088607,0.1448598895,0.1304251025,-0.0496423975,-0.1709118675,-0.2120728675,-0.2323482225,-0.172929272,-0.219764422,-0.280765372,-0.260531937,-0.2821144875,-0.1587314975,-0.05874057,0.014200465,0.119708715,0.1465569535,0.1272825195,0.093770909,0.059140159,0.1494051305,0.2570415015,0.170301797,0.076233332,-0.011986399,1714,"DG_s09",3,3.625,4.797,4.797,12,12,10,10,1.172,"Left",12,12,0,0,0,0,0,0,0,0,0,"Equal",2,2,12,10,12,10
"18",2,"POL ROF1-Ref-POL ROF2-Ref",0.233236474925,0.176480124925,0.117687074925,0.0895129015,0.0449366525,-0.1169121475,-0.2175856865,-0.180570947,-0.194434847,-0.193822747,-0.239440608,-0.3020526965,-0.24831369335,-0.14871933335,-0.10005206129,-0.03111740429,0.03540251356,-0.03048956594,-0.0661733256,-0.0694824776,-0.0860544111,0.0863043084,0.182970546,0.296419791,0.3791472785,0.1851440415,0.000207941500000003,-0.2819710085,-0.4722535335,-0.4319936165,-0.3862799165,-0.3552423165,-0.3432693465,-0.3000866345,-0.2859231695,-0.126598508,1714,"DG_s09",3,3.625,4.797,4.797,12,12,10,10,1.172,"Left",12,12,0,0,0,0,0,0,0,0,0,"Equal",2,2,12,10,12,10
"19",2,"POL RAM2-Ref-POL RAM3-Ref",0.072280058,0.201625984,0.493010834,0.609596654,0.6331333995,0.5256565013,0.2175404113,0.0755724663,0.1969056148,0.39799858,0.427998835,0.4020075,0.310798085,0.15971671,0.13373056,0.0904061316,0.0187413966,-0.1030938784,-0.2509861934,-0.256486575,-0.245290095,-0.236676845,-0.220332395,-0.1650838535,-0.0472087835,0.027380126,0.15829273235,0.26652908585,0.28325458585,0.30556562635,0.28436377,0.142555549,-0.012133901,-0.073325466,-0.176350916,-0.20367034585,1714,"DG_s09",3,3.625,4.797,4.797,12,12,10,10,1.172,"Left",12,12,0,0,0,0,0,0,0,0,0,"Equal",2,2,12,10,12,10
"20",2,"POL RHP5-Ref-POL RHP6-Ref",-0.08833800655,0.0435296075,0.036288105,0.0217761935,0.0309605225,-0.0545518075,0.09905507,0.268873289,0.463877134,0.581696664,0.539435364,0.467108739,0.234463212,0.139539226535,0.114165276535,0.034648776035,-0.009796596965,-0.1322033015,-0.2527843565,-0.301819381,-0.266049557,-0.196690142,-0.124174387,-0.0863404635,-0.1430134375,-0.142465688,-0.135837838,-0.0401555615,0.1392438385,0.126245358,0.183863958,0.221844908,0.171228808,0.264235614,0.214981004,0.070983047,1714,"DG_s09",3,3.625,4.797,4.797,12,12,10,10,1.172,"Left",12,12,0,0,0,0,0,0,0,0,0,"Equal",2,2,12,10,12,10
"21",2,"POL RPC1-Ref-POL RPC2-Ref",-0.127715009,-0.21625141845,-0.2830507056,-0.4066078556,-0.5301283421,-0.52878505165,-0.51704276505,-0.50799304005,-0.45363175505,-0.36353563605,-0.3167611855,-0.1814430605,0.0504676545,0.1187156545,0.2500953545,0.225460506,0.0188109505,-0.0767490795,-0.2374038345,-0.2735691455,-0.32881799,-0.43901761,-0.516834355,-0.5589887955,-0.5104482755,-0.399654945,-0.274664895,-0.2142316361,-0.2646392561,-0.4544831866,-0.5230199331,-0.4843460695,-0.4400074045,-0.303252223,-0.2486230765,-0.184954999,1714,"DG_s09",3,3.625,4.797,4.797,12,12,10,10,1.172,"Left",12,12,0,0,0,0,0,0,0,0,0,"Equal",2,2,12,10,12,10
"22",2,"POL RAM3-Ref-POL RAM4-Ref",-0.0145980999999999,0.2109561,0.4759335,0.68487015,0.74593125,0.74937725,0.64184535,0.41494805,0.20078875,-0.08531293,-0.43466133,-0.59233248,-0.72030478,-0.74363656,-0.70983466,-0.676278709,-0.452705009,-0.269021899,-0.184703435,-0.155801436,-0.334445286,-0.5169935265,-0.4581931905,-0.3621347905,-0.2758540405,-0.273091626,-0.343800388,-0.412482664,-0.45488068695,-0.48239148095,-0.52734881395,-0.53201423795,-0.5364186662,-0.4505099417,-0.3550799467,-0.2632951467,1714,"DG_s09",3,3.625,4.797,4.797,12,12,10,10,1.172,"Left",12,12,0,0,0,0,0,0,0,0,0,"Equal",2,2,12,10,12,10
"23",2,"POL RAM4-Ref-POL RAM5-Ref",-0.1165732485,-0.1168811985,-0.1054780985,-0.037848193,-0.0945711545,-0.211604664,-0.28440567095,-0.33381059645,-0.2944174006,-0.3040693461,-0.42303303915,-0.45424154915,-0.537095705,-0.60977215,-0.5018458285,-0.4456259105,-0.315172533,0.020951867,0.1222055205,0.11244580535,0.0674821044,-0.1777523206,-0.3085528406,-0.27414345895,-0.2323104805,-0.216034847,-0.141596872,-0.16013302075,-0.195835125,-0.1748394335,-0.2293957732,-0.16200592395,0.0312328253,0.1631955753,0.332393635,0.51658985,1714,"DG_s09",3,3.625,4.797,4.797,12,12,10,10,1.172,"Left",12,12,0,0,0,0,0,0,0,0,0,"Equal",2,2,12,10,12,10
"24",2,"POL ROF6-Ref-POL ROF7-Ref",0.4826210745,0.5441759245,0.6327208745,0.775499465,0.840717515,0.678857765,0.553455615,0.464812285,0.379211585,0.3011563385,0.1880283735,0.134322248,0.000475817000000003,-0.061685238,0.015487505,-0.0420736745,-0.044960727,0.0240189245,0.0510935465,0.1351509315,0.191619015,0.282447415,0.369937315,0.374726365,0.441509265,0.542919565,0.606128815,0.735070015,0.785627065,0.672875865,0.652037515,0.528402865,0.441234915,0.427202365,0.297348715,0.328928765,1714,"DG_s09",3,3.625,4.797,4.797,12,12,10,10,1.172,"Left",12,12,0,0,0,0,0,0,0,0,0,"Equal",2,2,12,10,12,10
"25",3,"POL LAM6-Ref-POL LAM7-Ref",-0.191874428,-0.155979378,-0.162242378,-0.188725328,-0.114724152,0.070869798,0.266376333,0.3046227055,0.2039020795,0.0874293795,0.0181886095,0.04465934155,0.08069024155,0.13440664705,0.10682035705,0.0398762525,-0.0127320975,-0.105242703,-0.096198178,-0.059444878,0.0353798725,0.2092930525,0.3194809525,0.3694968555,0.3926553322,0.3118138362,0.2964260632,0.3713422602,0.491414683,0.651896849,0.650108722,0.677790322,0.631970922,0.569132722,0.735182772,0.736876617,1715,"DG_s09",5.797,6.422,7.688,7.688,10,10,8,8,1.266,"Left",8,8,0,0,0,0,0,0,0,0,0,"10-10",2,2,10,8,10,8
"26",3,"POL ROF2-Ref-POL ROF3-Ref",-0.21573277,-0.37998724285,-0.39185351285,-0.40253491285,-0.52961671835,-0.6411941955,-0.7638609255,-0.8648770752,-0.79452593385,-0.75011508385,-0.68840026235,-0.73798167665,-0.8619537425,-0.8881615625,-0.864599379,-0.794447755,-0.649783873,-0.450790503,-0.346789108,-0.355135311,-0.305346288,-0.411385225,-0.570483025,-0.510244232,-0.468564937,-0.3643663,-0.25307565,-0.277944025,-0.4093914755,-0.6401594255,-0.8091672255,-0.8793153291,-0.8071284036,-0.6479709086,-0.6014305401,-0.5001774295,1715,"DG_s09",5.797,6.422,7.688,7.688,10,10,8,8,1.266,"Left",8,8,0,0,0,0,0,0,0,0,0,"10-10",2,2,10,8,10,8
"27",3,"POL LAM5-Ref-POL LAM6-Ref",-0.29985060385,-0.2607618907,-0.1728737145,-0.000157597499999995,0.146295967,0.1404480025,0.0459496945,-0.1182233255,-0.2431837405,-0.3767653405,-0.3234817005,-0.1314830305,-0.00718366549999999,0.12578501115,-0.04580132085,-0.20707329685,-0.25086427685,-0.308508763,-0.286467813,-0.434731037,-0.534071918,-0.4433761785,-0.2367771785,-0.0355857035,0.00116776800000001,-0.082568072,-0.200055852,-0.211359212,-0.2715756615,-0.3800879015,-0.4717319765,-0.4602615275,-0.3605347405,-0.2272601665,0.0351297385,0.1189161745,1715,"DG_s09",5.797,6.422,7.688,7.688,10,10,8,8,1.266,"Left",8,8,0,0,0,0,0,0,0,0,0,"10-10",2,2,10,8,10,8
"28",3,"POL RPC4-Ref-POL RPC5-Ref",0.1171159627,0.3173741127,0.4460786877,0.4208404585,0.444341417,0.414113042,0.33769431085,0.35274731435,0.38587927435,0.39689684935,0.3827176615,0.272829356,0.19527240105,0.12195867005,0.13055666905,0.2900876975,0.36489905245,0.40101247385,0.46461802585,0.5550745474,0.5582216239,0.5144064935,0.4742038265,0.3231580315,0.18867889,0.188256315,0.2046198515,0.1354464965,0.0436206615,0.00692907650000002,-0.04540505,0.0300490418,0.2085774068,0.3478381068,0.3572243068,0.3829028535,1715,"DG_s09",5.797,6.422,7.688,7.688,10,10,8,8,1.266,"Left",8,8,0,0,0,0,0,0,0,0,0,"10-10",2,2,10,8,10,8
"29",3,"POL LAM2-Ref-POL LAM3-Ref",0.2037819265,0.2353940115,0.154355418,-0.046319782,-0.0557410805,-0.022347026,-0.086518186,-0.136695586,-0.2333466865,-0.393230976,-0.445586326,-0.313579261,-0.126876861,0.0363719665,0.2393825655,0.4036338005,0.4665374505,0.475961617,0.398507988,0.193020338,0.038238528,0.050994925,0.220467605,0.438996655,0.614400515,0.60829384545,0.36044259545,0.1526161145,-0.01943182965,-0.0123716301,0.1790109449,0.11815447035,0.0201529145,-0.1115570065,-0.2787076315,-0.244233861,1715,"DG_s09",5.797,6.422,7.688,7.688,10,10,8,8,1.266,"Left",8,8,0,0,0,0,0,0,0,0,0,"10-10",2,2,10,8,10,8
"30",3,"POL RPC5-Ref-POL RPC6-Ref",0.0271799879,0.0100452645,-0.0337067605,-0.1428802305,-0.076716329,-0.0722598515,-0.1148414065,0.026476218,0.1674535665,0.264425174,0.37594046765,0.36329266515,0.42098056515,0.57041936515,0.5532524105,0.507316917,0.410105967,0.341657567,0.455613028,0.6429879495,0.6171156465,0.3918006565,0.2019664065,0.0354419065,-0.1559484405,-0.1614183805,-0.07595254405,-0.0473846631,-0.0363319631,-0.0569207331,-0.05732988705,-0.042284561,0.076523733,0.274245133,0.297967825,0.4025466745,1715,"DG_s09",5.797,6.422,7.688,7.688,10,10,8,8,1.266,"Left",8,8,0,0,0,0,0,0,0,0,0,"10-10",2,2,10,8,10,8
"31",3,"POL RAM2-Ref-POL RAM3-Ref",0.1866358735,0.2407028145,0.3046609645,0.3695137195,0.5543000395,0.5935776675,0.462859466,0.519281916,0.499624216,0.711451086,1.9746681875,3.0145464875,3.2341865875,3.1417486875,1.90970246,0.70673797087,0.24390487087,-0.05524027913,-0.17821830163,-0.2017051125,-0.1301875625,-0.0778631125,-0.0706055125,-0.0856298305,0.0661712695,0.183353739,0.218002314,0.281286358,0.243707908,0.2603953885,0.4021984135,0.4343651255,0.2921030055,0.195965198,0.150375198,0.11715919115,1715,"DG_s09",5.797,6.422,7.688,7.688,10,10,8,8,1.266,"Left",8,8,0,0,0,0,0,0,0,0,0,"10-10",2,2,10,8,10,8
"32",3,"POL RHP6-Ref-POL RHP7-Ref",-0.393642574,-0.4259882875,-0.2967333455,-0.1914135305,-0.0181315805,0.00839143949999999,-0.130747978,-0.163341853,-0.196009453,-0.2102051795,-0.2090965615,-0.2904111075,-0.2018759075,-0.1333707375,-0.084161188,-0.0397378515,-0.1181089565,-0.1308270065,-0.0582809565,0.084959928,0.110312233,0.102013533,0.025040883,-0.10753009,-0.210239095,-0.2795067385,-0.2803904385,-0.1889526155,-0.0469747105,0.061332883,0.078481083,0.053296933,0.023035783,-0.0932851915,-0.15753089355,-0.24553714905,1715,"DG_s09",5.797,6.422,7.688,7.688,10,10,8,8,1.266,"Left",8,8,0,0,0,0,0,0,0,0,0,"10-10",2,2,10,8,10,8
"33",3,"POL ROF3-Ref-POL ROF4-Ref",-0.1142195885,-0.0854228425,-0.1371192565,-0.183247311,-0.346060966,-0.561511801,-0.7100243,-0.6919121105,-0.6189061345,-0.43689359,-0.268799307,-0.3017961645,-0.3764039855,-0.44401033,-0.5067916935,-0.488112721,-0.294434021,-0.1333122515,-0.204826733,-0.324645883,-0.461621558,-0.5985132775,-0.5896511025,-0.507831183,-0.345094108,-0.092766858,0.092839692,0.2789162225,0.2942718225,0.049053923,-0.180841327,-0.454909027,-0.5605278095,-0.477292409,-0.387835269,-0.345512104,1715,"DG_s09",5.797,6.422,7.688,7.688,10,10,8,8,1.266,"Left",8,8,0,0,0,0,0,0,0,0,0,"10-10",2,2,10,8,10,8
"34",3,"POL RHP4-Ref-POL RHP5-Ref",-0.315143243,-0.570450593,-0.656695783,-0.758703133,-0.7306373317,-0.6798963892,-0.6326039212,-0.5210061212,-0.577191081,-0.7240761235,-0.8403242515,-0.9867379015,-1.06274904,-1.08706889,-1.040100157,-0.908366357,-0.77544702695,-0.68433192695,-0.68733223495,-0.77879093445,-0.8366169145,-0.8063281545,-0.728668783,-0.6080604335,-0.5209203585,-0.3198299685,-0.187884465,-0.180887965,-0.03395879,-0.06989594,-0.19416829,-0.3164830872,-0.4264334022,-0.4779615572,-0.5192731187,-0.3571097715,1715,"DG_s09",5.797,6.422,7.688,7.688,10,10,8,8,1.266,"Left",8,8,0,0,0,0,0,0,0,0,0,"10-10",2,2,10,8,10,8
"35",3,"POL RAM5-Ref-POL RAM6-Ref",0.20158971335,0.19795899335,0.26688874335,0.26898269835,0.24617159335,0.25522033335,0.18131533335,0.14658217835,0.13299539085,0.06417680135,-0.0171414475635,-0.0695428719635,-0.0252767894635,0.00289394203649999,-0.04506285255,-0.01332633815,0.04474486185,0.19921696985,0.28223015535,0.13261741535,-0.03215573465,-0.28089478465,-0.39337047665,-0.25585845715,-0.04997455715,0.09801879285,0.24133934285,0.26713096335,0.16772377335,0.19268287335,0.19890719335,0.11189176685,0.0610664931,0.0146981931,0.00153297309999999,0.1686360596,1715,"DG_s09",5.797,6.422,7.688,7.688,10,10,8,8,1.266,"Left",8,8,0,0,0,0,0,0,0,0,0,"10-10",2,2,10,8,10,8
"36",3,"POL RAM6-Ref-POL RAM7-Ref",0.097079056,0.0340202625,0.156786532,0.2670046445,0.2075340165,0.20529974815,0.24105975815,0.54490580815,0.83064320615,0.846210726,0.759077916,0.274209204,-0.094650396,-0.183369354,-0.35537082255,-0.20108671555,0.02130678445,0.09749303815,0.0900326067,-0.1403604383,-0.2860700208,-0.289691333,-0.223487563,-0.0381107045,0.159801678,0.3586592365,0.5130896165,0.546859908,0.557802358,0.605268158,0.4781858395,0.2837152895,0.0187515395,-0.3331165105,-0.419252742,-0.360461838,1715,"DG_s09",5.797,6.422,7.688,7.688,10,10,8,8,1.266,"Left",8,8,0,0,0,0,0,0,0,0,0,"10-10",2,2,10,8,10,8
"37",3,"POL ROF6-Ref-POL ROF7-Ref",-0.0452610787,-0.0420108887,-0.0885703987,-0.1670748157,-0.2855950157,-0.3183733277,-0.3531875581,-0.4089939911,-0.3804063236,-0.3378260616,-0.2715603712,-0.1912080632,-0.2097302807,-0.3396884307,-0.4659756807,-0.4500262952,-0.3175072452,-0.1474542102,-0.0969233372,0.00794131929999997,0.0236657268,-0.0135706682,0.2510899088,0.2612088588,0.2595149513,0.2510606613,-0.0134109847,-0.1378662947,-0.1743039947,-0.2377941047,-0.2735727587,-0.2360549662,-0.1226567662,0.0857415438,0.2617572438,0.2385742148,1715,"DG_s09",5.797,6.422,7.688,7.688,10,10,8,8,1.266,"Left",8,8,0,0,0,0,0,0,0,0,0,"10-10",2,2,10,8,10,8
"38",3,"POL ROF5-Ref-POL ROF6-Ref",0.0473437364,-0.0436561186,-0.1998977686,-0.3413994186,-0.34362312055,-0.34157090055,-0.37091205055,-0.39445635055,-0.41172556555,-0.35862530055,-0.19833020555,-0.10400226705,-0.1188658755,-0.0552730705,-0.015785649,-0.1190943875,-0.118757687,-0.225443212,-0.28164806325,-0.05170351325,0.04195880175,0.12731099175,0.148840783,0.07547089,0.14039559,0.0602918115,-0.059079395,-0.1543883785,-0.2486005385,-0.10244506,0.19472429,0.4527903165,0.5036998765,0.5208515265,0.6264612765,0.5140671905,1715,"DG_s09",5.797,6.422,7.688,7.688,10,10,8,8,1.266,"Left",8,8,0,0,0,0,0,0,0,0,0,"10-10",2,2,10,8,10,8
"39",3,"POL RPC2-Ref-POL RPC3-Ref",0.2574501589,0.2797263939,0.1801405439,0.1333760665,0.0013508171,-0.1629506329,-0.3075294329,-0.2886508134,-0.1055847634,-0.0206631634,0.0605335416,0.0449697526,-0.0657379624,-0.0129969974,0.0801781976,0.1953366151,0.4151116801,0.4847493151,0.3853892661,0.3855884661,0.3450231161,0.2502026161,0.2870573651,0.2409977151,0.1704020151,0.1006231686,0.0886348836,0.0057104526,-0.1369372474,-0.2901242009,-0.4112616809,-0.3674135989,-0.3634871829,-0.3499619329,-0.4032929679,-0.47110813265,1715,"DG_s09",5.797,6.422,7.688,7.688,10,10,8,8,1.266,"Left",8,8,0,0,0,0,0,0,0,0,0,"10-10",2,2,10,8,10,8
"40",3,"POL RAM3-Ref-POL RAM4-Ref",0.1961041508,0.1428887748,0.150837337,0.244186002,0.347143062,0.388877799,0.348151662,0.285158224,0.273293659,0.695661942,2.256233792,3.69968648,3.9427685,3.6308106385,2.2524385385,0.8122357365,0.575852302,0.6676304935,0.58706969,0.5829039025,0.588439107,0.422936242,0.400660771,0.5597643605,0.8189429605,1.0733566755,1.14574655,1.1694509,1.05590435,0.9508072,0.90688645,0.7776439,0.5469456275,0.40958254,0.50064884,0.55696459,1715,"DG_s09",5.797,6.422,7.688,7.688,10,10,8,8,1.266,"Left",8,8,0,0,0,0,0,0,0,0,0,"10-10",2,2,10,8,10,8
"41",3,"POL RHP5-Ref-POL RHP6-Ref",-0.21323417636,-0.25502442136,-0.096763693625,0.040002873,0.228764453,0.279032653,0.164630153,0.189272453,0.192677953,0.13922469145,0.10609771295,-0.09709692405,-0.14073550905,-0.0531904175,0.026805411,0.092109088,0.094091973,0.100374273,0.185147473,0.291973283,0.259230483,0.236294033,0.181691433,0.185228333,0.139923821,0.0820416725,0.0610805725,0.0509035725,0.1834518345,0.263579733,0.279611983,0.391839033,0.481730583,0.456478883,0.444022333,0.298663193,1715,"DG_s09",5.797,6.422,7.688,7.688,10,10,8,8,1.266,"Left",8,8,0,0,0,0,0,0,0,0,0,"10-10",2,2,10,8,10,8
"42",3,"POL ROF4-Ref-POL ROF5-Ref",-0.0133498103,0.0760561542,0.2080957937,0.0772067192,-0.0637218758,-0.0995352833,-0.2028769083,-0.3244963338,-0.4760703388,-0.6230434313,-0.6691664913,-0.6657448913,-0.6211733305,-0.3373085305,-0.0649202305,0.0822865645,0.1913345287,0.0319677347,-0.0403595353,0.0953425197,0.1295925947,0.2136909387,0.0709207472,-0.1294907198,-0.1782018268,-0.2847262573,-0.1745479583,-0.0960988313,-0.1149762408,0.0305985397,0.1365357522,0.1922516922,0.2418304587,0.1547232187,0.0577011187,-0.0650282735,1715,"DG_s09",5.797,6.422,7.688,7.688,10,10,8,8,1.266,"Left",8,8,0,0,0,0,0,0,0,0,0,"10-10",2,2,10,8,10,8
"43",3,"POL RPC1-Ref-POL RPC2-Ref",0.02424848045,0.19011774495,0.36373998495,0.40640751955,0.25013011455,0.07669207455,-0.02794681545,0.00441864954999999,-0.00394260045000003,0.00835335755,0.13330630755,0.14583720245,0.2050293925,0.1997213195,0.127354292,0.1803766621,0.34302742205,0.49847822705,0.59954100455,0.54124800055,0.35279548355,0.26297216855,0.22306056855,0.25064591455,0.25357742655,0.20171749905,0.27205929905,0.34118677705,0.40867238205,0.50661482455,0.60792902455,0.66700437455,0.71574692455,0.73885912455,0.59764747455,0.43549671005,1715,"DG_s09",5.797,6.422,7.688,7.688,10,10,8,8,1.266,"Left",8,8,0,0,0,0,0,0,0,0,0,"10-10",2,2,10,8,10,8
"44",3,"POL LAM1-Ref-POL LAM2-Ref",0.11385643385,0.25124031235,0.319651433,0.328329928,0.272018873,-0.014290577,-0.180309905,-0.11383497585,-0.01460274005,0.10562616495,0.20480801245,0.2057966428,0.339207395,0.77767594,1.0126944425,1.082697221,0.965931673,0.5986380775,0.2902446175,0.1926064335,0.1499118675,-0.00202128699999998,0.011711223,0.0466477175,0.2400647935,0.6017511435,0.7172898865,0.660320043,0.383892543,0.049161043,-0.07099455,-0.03783178155,0.08807076465,0.32714411465,0.60478091465,0.6052538412,1715,"DG_s09",5.797,6.422,7.688,7.688,10,10,8,8,1.266,"Left",8,8,0,0,0,0,0,0,0,0,0,"10-10",2,2,10,8,10,8
"45",3,"POL LAM3-Ref-POL LAM4-Ref",-0.0843474173,-0.1840447493,-0.1591504015,-0.2094424865,-0.12017468,-0.0335382937,-0.1051815437,-0.1623334587,-0.2510003887,-0.324599548,-0.331417198,-0.2570760695,-0.0591812195,0.052757396,0.0882033825,0.151614804,0.092525319,0.01483984,-0.0250375965,-0.1425474165,-0.1622245465,-0.060306783,0.00557418699999999,0.100498357,0.154757622,0.08775136615,-0.00900425385,-0.18291475385,-0.39973310385,-0.443958858,-0.388483578,-0.354447778,-0.2470852968,-0.1573614368,-0.0705174668,0.0716091432,1715,"DG_s09",5.797,6.422,7.688,7.688,10,10,8,8,1.266,"Left",8,8,0,0,0,0,0,0,0,0,0,"10-10",2,2,10,8,10,8
"46",3,"POL ROF1-Ref-POL ROF2-Ref",-0.33288883445,-0.44932333945,-0.45615234645,-0.51026585645,-0.520764253,-0.517715867,-0.5419065915,-0.488475485,-0.4565293425,-0.5068299485,-0.5431550661,-0.3880428226,-0.3009314176,-0.2805782741,-0.2314944315,-0.3728077005,-0.4631960205,-0.425296089,-0.364351874,-0.3776747116,-0.4857301916,-0.5610406191,-0.5392492691,-0.4259579625,-0.2506450625,-0.023775335,0.00534603100000003,-0.126548514,-0.2319535615,-0.4227962968,-0.5809987778,-0.5196844513,-0.4917580578,-0.48421994555,-0.42420660755,-0.49575763405,1715,"DG_s09",5.797,6.422,7.688,7.688,10,10,8,8,1.266,"Left",8,8,0,0,0,0,0,0,0,0,0,"10-10",2,2,10,8,10,8
"47",3,"POL RPC3-Ref-POL RPC4-Ref",0.31971513975,0.36659656475,0.35965937975,0.39581352975,0.373621786,0.3881863205,0.404182812,0.4640585725,0.4939398775,0.553832353,0.6280470765,0.649809766,0.700232345,0.653430945,0.634291515,0.572562921,0.691176176,0.853987726,0.988433906,1.13215455,1.00825085,0.84749417,0.72033808,0.5688757845,0.4313654345,0.3862074531,0.3814108531,0.41287786425,0.50223990675,0.59437998815,0.72974627815,0.8327535125,0.850653711475,0.741146365445,0.523462842945,0.455924297945,1715,"DG_s09",5.797,6.422,7.688,7.688,10,10,8,8,1.266,"Left",8,8,0,0,0,0,0,0,0,0,0,"10-10",2,2,10,8,10,8
"48",3,"POL RAM4-Ref-POL RAM5-Ref",0.01887177265,-0.01985574685,-0.00383727275,-0.02701470515,0.10493360685,0.30794279535,0.48536547285,0.643201007,0.568936196,0.432447651,0.265889416,0.1720325163,0.2419047473,0.2788610223,0.2855858523,0.2705348043,0.2066914683,0.3817296883,0.5057655533,0.464500852,0.506190138,0.260934604,0.031217844,0.042913992,0.094687492,0.213629626,0.461457176,0.592538327,0.496120732,0.432269182,0.2884022115,0.1313458965,0.153154585,0.18285444,0.15431352485,0.20467969485,1715,"DG_s09",5.797,6.422,7.688,7.688,10,10,8,8,1.266,"Left",8,8,0,0,0,0,0,0,0,0,0,"10-10",2,2,10,8,10,8
"49",4,"POL ROF2-Ref-POL ROF3-Ref",-0.3474889475,-0.4302097425,-0.448411415,-0.41548011,-0.324065235,-0.17862039,-0.1052648,-0.1371156465,-0.2959549165,-0.4535453665,-0.5083556285,-0.271714187,-0.052723887,0.025839963,0.045823509,-0.226974941,-0.454580441,-0.600945941,-0.5618850785,-0.3389654285,-0.1750884785,0.0074620715,0.0104871,-0.094244446,-0.14124179235,-0.16202184235,-0.22384746485,-0.20271175885,-0.1543434375,-0.1084429075,0.091335715,0.294250005,0.63452633,0.667647405,0.50264507,0.259575212,1716,"DG_s09",8.688,9.313,10.234,10.234,28,4,10,10,0.921,"Left",28,4,24,24,0,0,-24,0,-24,24,24,"Advent",18,-6,28,10,4,10
"50",4,"POL RAM4-Ref-POL RAM5-Ref",-0.10784386015,0.03176626485,0.31962395,0.35024565,0.2046843875,0.00749840400000001,-0.196862246,-0.317533456,-0.3331655935,-0.336583945,-0.4022268385,-0.4541056715,-0.4291234865,-0.383699451,-0.3158735075,-0.2873078325,-0.3428956175,-0.401723545,-0.44042234,-0.397256922,-0.295274297,-0.224866685,-0.19475954,-0.14316629,-0.054603165,0.00551260000000003,0.04499995,0.00136623000000002,-0.1090495315,-0.2720287815,-0.4449762315,-0.5220642515,-0.5099631665,-0.4898635915,-0.4790587415,-0.5290877015,1716,"DG_s09",8.688,9.313,10.234,10.234,28,4,10,10,0.921,"Left",28,4,24,24,0,0,-24,0,-24,24,24,"Advent",18,-6,28,10,4,10
"51",4,"POL ROF5-Ref-POL ROF6-Ref",-0.125817494465,-0.306410744465,-0.30941078665,-0.14998413665,-0.0723031323,-0.0254634488,0.0164194977,-0.1263002218,-0.18105869965,-0.00634268315,0.08185246685,0.1554127755,0.261420849,0.139691644,-0.059291515,-0.17018170415,-0.31009020415,-0.44426169915,-0.45786824015,-0.43179179015,-0.49060604015,-0.48262821815,-0.41615451515,-0.353018488185,-0.232077858435,-0.158973689635,-0.130710117635,0.0583917054,0.25606472565,0.36057373485,0.38837065985,0.23199825985,0.09894679485,0.04713814485,-0.01186726625,-0.0162150081,1716,"DG_s09",8.688,9.313,10.234,10.234,28,4,10,10,0.921,"Left",28,4,24,24,0,0,-24,0,-24,24,24,"Advent",18,-6,28,10,4,10
"52",4,"POL LAM5-Ref-POL LAM6-Ref",-0.00970262399999999,-0.14432998265,-0.32281198315,-0.3621195401,-0.5507044671,-0.63546997345,-0.59545823845,-0.693269457,-0.659679916,-0.587861806,-0.5124026315,-0.3119879315,-0.3762064915,-0.5032227365,-0.602312746,-0.744103446,-0.7937068,-0.8459095,-0.94800655,-0.9595578,-0.893344245,-0.7588225606,-0.58883125165,-0.54131466665,-0.48071256275,-0.37287059715,-0.2338622561,-0.0621918911,0.07923515,-0.0157304375,-0.2006146375,-0.3572121155,-0.4888388755,-0.414441138,-0.204496238,0.01939524,1716,"DG_s09",8.688,9.313,10.234,10.234,28,4,10,10,0.921,"Left",28,4,24,24,0,0,-24,0,-24,24,24,"Advent",18,-6,28,10,4,10
"53",4,"POL ROF6-Ref-POL ROF7-Ref",-0.4251760385,-0.5704623235,-0.723212915,-0.69639198,-0.65699268,-0.6002873895,-0.4323402395,-0.395423998,-0.340204893,-0.2513458335,-0.2779012535,-0.2328353925,-0.2979788925,-0.4899789425,-0.6564289225,-0.6865252,-0.6363479875,-0.5724318375,-0.4393648684,-0.4883344384,-0.5078385459,-0.4960546459,-0.575241415,-0.57759172,-0.60235108,-0.60235208,-0.61986598,-0.5966885959,-0.4032601959,-0.2414631459,-0.1560704819,-0.203727466,-0.351788396045,-0.371409446045,-0.114605410045,0.274620489955,1716,"DG_s09",8.688,9.313,10.234,10.234,28,4,10,10,0.921,"Left",28,4,24,24,0,0,-24,0,-24,24,24,"Advent",18,-6,28,10,4,10
"54",4,"POL RHP6-Ref-POL RHP7-Ref",-0.068283869,-0.0144969405,-0.0299046055,-0.173270178,-0.3307643355,-0.2942663275,-0.2206912845,-0.1706460301,-0.1258209576,-0.2313537356,-0.3179177636,-0.438843768,-0.567964483,-0.681563205,-0.6788352195,-0.4744818045,-0.3518046242,-0.2154304792,-0.1820723497,-0.3582920147,-0.531395895,-0.587812072,-0.451705087,-0.270935937,-0.102757758,-0.071829776,-0.162375023,-0.149943073,-0.1412023004,-0.1396202756,-0.15557019965,-0.23919221465,-0.26988221775,-0.26206137305,-0.357171952,-0.473961337,1716,"DG_s09",8.688,9.313,10.234,10.234,28,4,10,10,0.921,"Left",28,4,24,24,0,0,-24,0,-24,24,24,"Advent",18,-6,28,10,4,10
"55",4,"POL RPC1-Ref-POL RPC2-Ref",0.560983155,0.710156655,0.624344305,0.664400605,0.586809205,0.414007525,0.364026275,0.17665953,-0.07300297,-0.19609979,-0.264081087,-0.216894127,-0.1850067175,-0.2273485175,-0.1820465125,-0.1555219275,-0.042127437,0.0665295275,-0.0340809805,-0.1314937405,-0.2009254755,-0.2063790785,-0.129861346,-0.150005486,-0.204097501,-0.2765483625,-0.26990663105,-0.16109655605,0.05332009395,0.23503834395,0.262730247,0.244677497,0.118502277,0.016250768,-0.068924279,-0.184292754,1716,"DG_s09",8.688,9.313,10.234,10.234,28,4,10,10,0.921,"Left",28,4,24,24,0,0,-24,0,-24,24,24,"Advent",18,-6,28,10,4,10
"56",4,"POL LAM1-Ref-POL LAM2-Ref",-0.3756394732,-0.5120104732,-0.5338049777,-0.4366001172,-0.2975987867,-0.3254611267,-0.2906891542,-0.2297993147,-0.2392651147,-0.2007926247,-0.1303821647,-0.0589856647,-0.0282610147,-0.1468421727,-0.3343943727,-0.5145708727,-0.6645219227,-0.6559533877,-0.5140637377,-0.4198437377,-0.3831635942,-0.3370822467,-0.3997375007,-0.4866883157,-0.4940507092,-0.5466914427,-0.4711798887,-0.3743149137,-0.36541896635,-0.36725337235,-0.40827534085,-0.29095210085,-0.0899742982,0.0366626278,-0.0128742017,-0.00970260169999998,1716,"DG_s09",8.688,9.313,10.234,10.234,28,4,10,10,0.921,"Left",28,4,24,24,0,0,-24,0,-24,24,24,"Advent",18,-6,28,10,4,10
"57",4,"POL RAM5-Ref-POL RAM6-Ref",-0.29023999,-0.11980244,0.1035591,0.060925623,-0.096475277,-0.354391537,-0.57953769975,-0.64489772325,-0.69287587325,-0.76873636325,-0.9155866005,-0.856924412,-0.574178762,-0.400278762,-0.227917562,-0.297111963,-0.532538013,-0.654470258,-0.6144099795,-0.3726232165,-0.1926481665,-0.0742239665,-0.007577995,-0.117837895,-0.18386150245,-0.23401880895,-0.32992855895,-0.41216944945,-0.538515442,-0.6566769905,-0.7875019405,-0.8419735,-0.8245854,-0.8020342,-0.77853895,-0.7866309,1716,"DG_s09",8.688,9.313,10.234,10.234,28,4,10,10,0.921,"Left",28,4,24,24,0,0,-24,0,-24,24,24,"Advent",18,-6,28,10,4,10
"58",4,"POL LAM6-Ref-POL LAM7-Ref",0.078920454,-0.058702461,-0.1803556155,-0.2566563655,-0.3348866205,-0.4036591555,-0.3394627055,-0.2802482055,-0.2292254055,-0.2411016555,-0.3355248555,-0.3423729555,-0.3808714055,-0.336036825,-0.129732835,0.063352415,0.238918765,0.3610658995,0.227369655,0.031118255,-0.0533669858,-0.1172029967,-0.1048304722,0.0330754898,0.1143704806,0.133689029,0.135457979,0.046221567,-0.090484033,-0.1961562355,-0.1883376705,-0.1608785005,-0.07728150765,0.16553374235,0.31925475735,0.42639633735,1716,"DG_s09",8.688,9.313,10.234,10.234,28,4,10,10,0.921,"Left",28,4,24,24,0,0,-24,0,-24,24,24,"Advent",18,-6,28,10,4,10
"59",4,"POL ROF3-Ref-POL ROF4-Ref",-0.0477989726,-0.1288421926,-0.1415024031,-0.0345483531,0.0169031865,0.1682621565,0.2942138465,0.2774806815,0.1871998685,-0.1270955315,-0.3917824815,-0.3813673455,-0.2483220325,-0.0259699325,0.100521059,-0.033964867,-0.292631917,-0.527185467,-0.6660696585,-0.6934626035,-0.6297717035,-0.5848203035,-0.5521652035,-0.4581641658,-0.3792365908,-0.3130740068,-0.2285538933,-0.121273731,-0.059254756,0.07294951,0.3505565965,0.4506022465,0.6106396465,0.5615116815,0.2009860815,-0.0682828185,1716,"DG_s09",8.688,9.313,10.234,10.234,28,4,10,10,0.921,"Left",28,4,24,24,0,0,-24,0,-24,24,24,"Advent",18,-6,28,10,4,10
"60",4,"POL ROF4-Ref-POL ROF5-Ref",0.09141928865,0.01800023865,-0.03469444135,-0.0996958039,-0.2497955039,-0.4091150539,-0.5013124639,-0.54490560135,-0.39321829035,-0.18493594035,-0.16067121935,0.02186852565,0.12887311465,0.01141097415,-0.00337787034999998,-0.06813046535,-0.23949677485,-0.31455743935,-0.34597997585,-0.45265132585,-0.56451391635,-0.61571886135,-0.63193566135,-0.60589215135,-0.53616983635,-0.44545055485,-0.21292040485,-0.00887526485000001,0.13984027015,0.26601963865,0.18031763865,0.0283779173,-0.0776449447,-0.1443997897,-0.2409217737,-0.29990040235,1716,"DG_s09",8.688,9.313,10.234,10.234,28,4,10,10,0.921,"Left",28,4,24,24,0,0,-24,0,-24,24,24,"Advent",18,-6,28,10,4,10
"61",4,"POL LAM3-Ref-POL LAM4-Ref",0.0969281,0.107773537,0.0848143585,0.098794415,0.20767591,0.2436745325,0.2600300275,0.210647984,0.2060175025,0.329723265,0.36048346835,0.43217206035,0.50704169185,0.53644579185,0.6643222785,0.7206969465,0.7508201465,0.593684751,0.408499991,0.281582256,0.102425209,0.1475772045,0.2360639145,0.4081054995,0.5676293965,0.6486517965,0.8817271465,1.0079728465,0.9782423465,0.9475895465,0.7640481465,0.6235063965,0.5852008965,0.5691793465,0.5220185965,0.4343722965,1716,"DG_s09",8.688,9.313,10.234,10.234,28,4,10,10,0.921,"Left",28,4,24,24,0,0,-24,0,-24,24,24,"Advent",18,-6,28,10,4,10
"62",4,"POL RHP4-Ref-POL RHP5-Ref",-0.1064919272,-0.1634346272,-0.0519384027,0.25225263025,0.43240407175,0.61883032175,0.59261769725,0.32560239725,0.21826294725,0.15860367425,0.07476747425,-0.01542602575,-0.08953345075,-0.07475279425,0.05518665575,0.19843995575,0.24804188075,0.24824309775,0.11524564775,-0.00636844625,0.04027474875,0.24705879825,0.50279434825,0.60310122525,0.4818736641,0.3143507641,0.0619803501,-0.0858049829,-0.10167205175,-0.15057322525,-0.11173799475,-0.07210256975,-0.0238059261,0.0736626474,0.1786686809,0.3719308059,1716,"DG_s09",8.688,9.313,10.234,10.234,28,4,10,10,0.921,"Left",28,4,24,24,0,0,-24,0,-24,24,24,"Advent",18,-6,28,10,4,10
"63",4,"POL RPC5-Ref-POL RPC6-Ref",-0.3125734375,-0.270284919,-0.189345814,0.043212136,0.194789986,0.3206004025,0.4200226625,0.3833271125,0.3913957875,0.2793705085,0.2803894585,0.3145482085,0.2874335835,0.3068165725,0.1212922005,-0.077418774,-0.082444524,-0.0755588037,-0.0985214317,-0.0878510922,-0.1641729872,-0.2203680925,-0.2516865425,-0.24559985,-0.2007500775,-0.2198619725,-0.109574035,-0.0176663925,0.04760133,0.08514942,0.0245941525,-0.1380306475,-0.3805720475,-0.4452661995,-0.3818355695,-0.2313478195,1716,"DG_s09",8.688,9.313,10.234,10.234,28,4,10,10,0.921,"Left",28,4,24,24,0,0,-24,0,-24,24,24,"Advent",18,-6,28,10,4,10
"64",4,"POL RPC4-Ref-POL RPC5-Ref",-0.3659940432,-0.4739068432,-0.6989161382,-0.6585781802,-0.5102386102,-0.4248260602,-0.2496912602,-0.1646172522,-0.2069401522,-0.2463349372,-0.2860109927,-0.4231948427,-0.543670963,-0.58693748,-0.6855388245,-0.6191544096,-0.5803687398,-0.5878099978,-0.4708518693,-0.3897848342,-0.3689913422,-0.35240512586,-0.37134339336,-0.31972349336,-0.21819928486,-0.1743480027,-0.1359600217,-0.1338237217,-0.0620484717,-0.0314488102,-0.0469788472,-0.2297275842,-0.4835449092,-0.4821356562,-0.46353184605,-0.36677106955,1716,"DG_s09",8.688,9.313,10.234,10.234,28,4,10,10,0.921,"Left",28,4,24,24,0,0,-24,0,-24,24,24,"Advent",18,-6,28,10,4,10
"65",4,"POL RPC3-Ref-POL RPC4-Ref",-0.1384396525,0.00495710249999999,0.2036758525,0.426083477,0.400233324,0.191660324,-0.123062476,-0.2626783005,-0.2167602855,-0.11939432,0.032401234,0.019913834,0.02905159375,0.03098712925,0.01635485025,0.11070329525,0.096209471,0.097645938,0.147558443,0.0674588245,0.032621415,0.133155477,0.221106697,0.27488798555,0.3271641944,0.2726507294,0.2275816794,0.29035993435,0.30374335725,0.36811449225,0.31552806825,0.20831879825,0.202000778,0.203806628,0.289451202,0.484578602,1716,"DG_s09",8.688,9.313,10.234,10.234,28,4,10,10,0.921,"Left",28,4,24,24,0,0,-24,0,-24,24,24,"Advent",18,-6,28,10,4,10
"66",4,"POL RAM6-Ref-POL RAM7-Ref",0.420542841,0.4160766035,0.3092361535,0.4061200965,0.6992887815,0.704040935,0.6355722107285,0.5590032242285,0.6848253242285,0.9607421757285,1.0559105,1.1278272865,0.9058649865,0.5517427285,0.3877183285,0.1798259285,-0.0678054215,-0.1467020635,-0.0871146465,0.00914570249999999,0.088122784,0.243374234,0.2983360125,0.2062531035,0.1449314625,0.1442647775,0.1469936363,0.2063170553,0.3101164618,0.2398402063,0.100897752,0.00636184300000001,-0.211009004,-0.3252649135,-0.3049223635,-0.2602503635,1716,"DG_s09",8.688,9.313,10.234,10.234,28,4,10,10,0.921,"Left",28,4,24,24,0,0,-24,0,-24,24,24,"Advent",18,-6,28,10,4,10
"67",4,"POL RAM3-Ref-POL RAM4-Ref",0.4775971755,0.283354849,0.340743729,0.6326094995,0.9906478495,1.017175348,0.779605188,0.5842997485,0.3772782985,0.314733269,0.37630416715,0.42407050665,0.40585280665,0.45088406415,0.549772526,0.568851426,0.4861485465,0.4026885865,0.30156929265,0.19878214015,0.18919122965,0.23993366785,0.3173709617,0.4222407642,0.5312159042,0.537828663,0.428291693,0.283365948,0.167977098,0.118295261,0.037498581,-0.089937824,-0.137761774,-0.149892009,0.096046091,0.451292841,1716,"DG_s09",8.688,9.313,10.234,10.234,28,4,10,10,0.921,"Left",28,4,24,24,0,0,-24,0,-24,24,24,"Advent",18,-6,28,10,4,10
"68",4,"POL RAM2-Ref-POL RAM3-Ref",-0.0028034005,-0.1767693005,-0.265509899,-0.22039045125,-0.05663738035,0.02248392965,0.01675707965,0.0866520319,0.358777561,0.604413501,0.7005915375,0.632396603,0.358276303,0.200483918,0.130927274,0.00734862850000001,-0.1191543865,-0.12656303,-0.056186705,0.0538761367,0.0917205502,-0.0147342713,-0.00177932035,0.04242013795,0.11605629945,0.18356646595,0.2100873725,0.2351526825,0.170486523595,0.108247007095,0.056925865595,-0.035864441905,-0.093559093,-0.153330293,-0.2306720265,-0.253447249,1716,"DG_s09",8.688,9.313,10.234,10.234,28,4,10,10,0.921,"Left",28,4,24,24,0,0,-24,0,-24,24,24,"Advent",18,-6,28,10,4,10
"69",4,"POL RPC2-Ref-POL RPC3-Ref",-0.573498744,-0.450136282,-0.254106982,-0.2599171435,-0.4229897135,-0.5950293255,-0.7524031255,-0.742570539,-0.56370673325,-0.48536375825,-0.42937971475,-0.3883813944,-0.46472385015,-0.52700352515,-0.51488765915,-0.4199105895,-0.3351927991,-0.2028965411,-0.1624234441,-0.2921118991,-0.3388309895,-0.3919073975,-0.4094010447,-0.3070919897,-0.2392419977,-0.2638697977,-0.301790867,-0.342912177,-0.308974619,-0.2592569202,-0.3705970102,-0.5515874502,-0.6562325952,-0.672843074,-0.611429574,-0.4411379066,1716,"DG_s09",8.688,9.313,10.234,10.234,28,4,10,10,0.921,"Left",28,4,24,24,0,0,-24,0,-24,24,24,"Advent",18,-6,28,10,4,10
"70",4,"POL ROF1-Ref-POL ROF2-Ref",-0.07525204405,-0.16614132405,-0.22928630405,-0.2420884063,-0.2634132063,-0.2454177613,-0.0917336663,0.0640084837,0.1641434387,0.1887124422,0.0122435672,-0.1231023128,-0.1900891078,-0.2374301763,-0.1595755798,-0.1052964333,-0.1568457433,-0.2215680433,-0.3003944148,-0.4658056813,-0.5056144813,-0.4649576763,-0.3895433698,-0.1976690248,-0.07563843465,-0.01497475915,0.02888703435,-0.00727184365,-0.0562667338,-0.0917206593,-0.1709557743,-0.2055223713,-0.1976143213,-0.2524817263,-0.3169511613,-0.4130870813,1716,"DG_s09",8.688,9.313,10.234,10.234,28,4,10,10,0.921,"Left",28,4,24,24,0,0,-24,0,-24,24,24,"Advent",18,-6,28,10,4,10
"71",4,"POL RHP5-Ref-POL RHP6-Ref",-0.0165109757,-0.0156333607,0.1683782473,0.4857979718,0.7014950113,0.8676622613,0.7550644168,0.4050228668,0.1380245928,0.0700407043,0.1522394558,0.2465549958,0.2737222628,0.2402165093,0.4577771443,0.7224951543,0.8398857563,0.83083925305,0.57285237965,0.19012147965,0.03447008465,-0.0174055201,0.0050275283,0.2018039283,0.2919615143,0.4304100098,0.5651299348,0.5450196348,0.5039082558,0.3003775603,0.0763886353,0.0042908153,-0.0119472432,0.1364462878,0.22039365195,0.18728913195,1716,"DG_s09",8.688,9.313,10.234,10.234,28,4,10,10,0.921,"Left",28,4,24,24,0,0,-24,0,-24,24,24,"Advent",18,-6,28,10,4,10
"72",4,"POL LAM2-Ref-POL LAM3-Ref",0.13031872905,0.09654952905,0.05697822905,0.062482994,0.019560165,-0.0667575052,-0.0865333052,-0.0481838312,-0.037374594,-0.1071769738,-0.2033917738,-0.2909723988,-0.381270451,-0.435768866,-0.2989084,-0.11786785,0.12879385,0.2768620655,0.1532509835,0.0655642385,-0.0158876115,0.037962238,0.276896904,0.349946699,0.379544199,0.2483357138,-0.0391060362,-0.1450175817,-0.2067070007,-0.1800903645,-0.0122188645,0.121518831,0.1987653,0.378912299,0.449277149,0.3389690889,1716,"DG_s09",8.688,9.313,10.234,10.234,28,4,10,10,0.921,"Left",28,4,24,24,0,0,-24,0,-24,24,24,"Advent",18,-6,28,10,4,10
"73",5,"POL ROF1-Ref-POL ROF2-Ref",0.02483064725,-0.06424473605,-0.19731828605,-0.31291774705,-0.32028927855,-0.34803062855,-0.24193410255,-0.06719139155,-0.01409847955,0.10554716935,0.00986455762499999,-0.118327027375,-0.102061632375,-0.130155002775,-0.10227388055,-0.19049550805,-0.15445976805,0.06245475345,0.13086841695,0.25923727945,0.26206114445,0.03094851345,-0.12155758655,-0.22432574055,-0.24355154055,-0.01797925955,0.26295044045,0.35561109445,0.28744584845,0.10436827385,-0.00174642615000001,-0.00332992615,0.02005096985,0.13282069445,0.19912449445,0.29316834445,1717,"DG_s09",11.234,11.844,12.781,12.781,22,6,10,10,0.937,"Right",22,6,16,16,0,0,-16,0,-16,16,16,"Advent",12,-4,10,22,10,6
"74",5,"POL RAM6-Ref-POL RAM7-Ref",0.0283295035,0.2477242135,0.297204782,0.3169221715,0.0847302715,-0.1265716385,-0.177259207,-0.211800616,-0.053844951,0.122259849,0.228008239,0.2699017555,0.1017943405,-0.0147330283,-0.0508387278,-0.0904012153,-0.0110403823,0.0365423965,0.181889456,0.322846091,0.276429858,0.172510498,0.0237300735,0.1840789885,0.3335287235,0.2942044735,0.240967198,-0.061717002,-0.204463402,0.038532748,0.205525548,0.313735948,0.405607313,0.27324805495,0.14244162995,0.03603967995,1717,"DG_s09",11.234,11.844,12.781,12.781,22,6,10,10,0.937,"Right",22,6,16,16,0,0,-16,0,-16,16,16,"Advent",12,-4,10,22,10,6
"75",5,"POL RPC4-Ref-POL RPC5-Ref",0.1036652919,0.1143699119,0.1813579219,0.2567938989,0.2422503039,0.2899225439,0.3041959939,0.3393310439,0.3897922239,0.4522350789,0.5249349289,0.3567518339,0.1568180839,0.0092104299,-0.0971642201,-0.0645594851,0.0102041499,0.0460738709,0.0150874209,0.0881297809,0.1935142959,0.2153056789,0.2089148839,0.16194667555,0.10972532805,0.16142757805,0.29411287305,0.2967189604,0.3110577559,0.1962590902,-0.0678907598,-0.1106514919,-0.1168077174,-0.0925198767,-0.02229892345,-0.07005547035,1717,"DG_s09",11.234,11.844,12.781,12.781,22,6,10,10,0.937,"Right",22,6,16,16,0,0,-16,0,-16,16,16,"Advent",12,-4,10,22,10,6
"76",5,"POL RAM3-Ref-POL RAM4-Ref",-0.3513158535,-0.304694035,-0.218012375,-0.2822119705,-0.3345698565,-0.377127215,-0.46216311,-0.4650401875,-0.376358294,-0.209130199,-0.051902894,0.084503356,0.07939265697,-0.07591286783,-0.20906308133,-0.20739253133,-0.1327203258,-0.024083551,0.0934779125,0.1449564625,0.1931306625,0.1569586125,0.0783852875,-0.0773532955,-0.2939195955,-0.4731880455,-0.6473726205,-0.7807697875,-0.8191896875,-0.7986106375,-0.7225603425,-0.566000847,-0.518958117,-0.558361217,-0.587212462,-0.6700548075,1717,"DG_s09",11.234,11.844,12.781,12.781,22,6,10,10,0.937,"Right",22,6,16,16,0,0,-16,0,-16,16,16,"Advent",12,-4,10,22,10,6
"77",5,"POL RPC1-Ref-POL RPC2-Ref",-0.0165381539,-0.0701150569,-0.0019512439,0.1043870311,0.2310193385,0.2892468165,0.2668739187,0.2495077787,0.1807770787,0.2323808237,0.2392933465,0.1953130435,0.173427874,0.103408774,0.08719239965,0.29282396765,0.73156528715,1.04516158715,1.1509019115,1.0547088115,0.7525567615,0.43428638425,0.28989629925,0.07136784925,-0.13401472025,-0.094539993,0.019044142,0.251009592,0.4149623115,0.395534871,0.276723351,0.199021588,0.0958746525,-0.029628542,0.07684588045,0.06739159145,1717,"DG_s09",11.234,11.844,12.781,12.781,22,6,10,10,0.937,"Right",22,6,16,16,0,0,-16,0,-16,16,16,"Advent",12,-4,10,22,10,6
"78",5,"POL LAM2-Ref-POL LAM3-Ref",-0.39992807915,-0.46279212915,-0.44215682915,-0.36038324915,-0.34680261965,-0.31217641965,-0.37926101965,-0.43864346465,-0.38941202765,-0.24212277765,-0.03195267765,0.06832157235,0.00823619485,-0.07792961515,-0.17864021015,-0.33215169515,-0.29601301115,-0.08432285115,0.21831109385,0.62547129385,0.85624272085,0.81468752085,0.64863227085,0.44790937085,0.26117093835,0.11792214335,-0.01832351165,-0.05349319255,0.04329233995,0.07388563135,0.15378742635,0.23014975725,0.29430015725,0.36700571085,0.43150987085,0.310115947035,1717,"DG_s09",11.234,11.844,12.781,12.781,22,6,10,10,0.937,"Right",22,6,16,16,0,0,-16,0,-16,16,16,"Advent",12,-4,10,22,10,6
"79",5,"POL ROF5-Ref-POL ROF6-Ref",-0.1919982115,-0.006893961,0.080725955,0.00977038099999999,-0.123670515,-0.2195593435,-0.1441056595,-0.17627628905,-0.17325195755,-0.00155107904999999,0.13696822095,0.3045514805,0.447752945,0.273537006,-0.028960104,-0.225989804,-0.3214574975,-0.3433321935,-0.2414221255,-0.1614563125,-0.088464619,-0.011833184,-0.060389583,-0.125403096,-0.332521246,-0.483904946,-0.43500685,-0.1744421,0.16661405,0.1780538155,0.0765900605,-0.1621286395,-0.4128167645,-0.383667785,-0.34036269,-0.319776405,1717,"DG_s09",11.234,11.844,12.781,12.781,22,6,10,10,0.937,"Right",22,6,16,16,0,0,-16,0,-16,16,16,"Advent",12,-4,10,22,10,6
"80",5,"POL ROF6-Ref-POL ROF7-Ref",-0.41635288735,-0.432973593,-0.3334026745,-0.2043105145,-0.0976085045,0.0599583055,0.170705087,0.285471027,0.434613327,0.428977777,0.309198827,0.044453727,-0.247520648,-0.315889243,-0.170152793,0.036878557,0.046011969,-0.145160086,-0.2971906455,-0.3782303055,-0.2725178825,-0.0663086325,0.029484627,0.067191442,-0.00526049749999999,-0.1176644975,-0.2401400975,-0.3772526025,-0.477810073,-0.3958015925,-0.2730542685,-0.3049592185,-0.2396451685,-0.2626987805,-0.2152854545,0.0409891455,1717,"DG_s09",11.234,11.844,12.781,12.781,22,6,10,10,0.937,"Right",22,6,16,16,0,0,-16,0,-16,16,16,"Advent",12,-4,10,22,10,6
"81",5,"POL ROF3-Ref-POL ROF4-Ref",-0.0935932061365,-0.1866497842365,-0.2056792159665,-0.1023253509665,-0.0234003954665,-0.0297309243665,-0.0268472428665,0.0254264371335,0.000648337133500002,0.0323105391335,0.0294226476335,-0.0495667319665,-0.0135823819665,0.0068453410335,0.0297197135335,0.0794375431335,-0.0233280413665,-0.0669819192165,0.0285255232835,-0.0339343412165,-0.0867734707165,-0.00370657086649999,-0.0676423968665,-0.0729673293665,0.0230146746335,-0.0659977073665,-0.1436095813665,-0.2057540343665,-0.2600000166665,-0.1957832946665,-0.1080112546665,-0.0714842226665,0.0413377946335,0.0878584096335,0.0685208406835,0.1318035436835,1717,"DG_s09",11.234,11.844,12.781,12.781,22,6,10,10,0.937,"Right",22,6,16,16,0,0,-16,0,-16,16,16,"Advent",12,-4,10,22,10,6
"82",5,"POL ROF4-Ref-POL ROF5-Ref",0.0640733345,0.2282505345,0.2861985245,0.306403944,0.2256736325,0.0483174425,-0.0388177875,-0.1461440375,-0.234618276,-0.1497999745,-0.0074397245,0.2122490255,0.4393433755,0.430097697,0.287652242,0.1312241105,-0.0235861445,0.0333759725,0.1458816275,0.189047509,0.226483014,0.1836296705,0.1142540455,0.0107081955,-0.0759829295,-0.131535936,-0.1212602045,0.1238929455,0.4350036705,0.49274631285,0.44487300635,0.2137542595,-0.0407663805,-0.0518544185,-0.0366842185,-0.09749872165,1717,"DG_s09",11.234,11.844,12.781,12.781,22,6,10,10,0.937,"Right",22,6,16,16,0,0,-16,0,-16,16,16,"Advent",12,-4,10,22,10,6
"83",5,"POL RAM5-Ref-POL RAM6-Ref",-0.0091489384,-0.0141481534,0.00954582299999999,0.313011188,1.047160488,1.516781828,1.645091709,1.436281309,0.825931509,0.484996459,0.3564331295,0.2466719645,0.1266972145,0.0304620953,0.0534185748,0.1686140898,0.2161925113,0.1177859305,-0.0179629695,-0.1342967895,-0.1333165175,0.0192740825,0.2772532325,0.4948942025,0.593279109,0.590558519,0.508400614,0.2625016215,0.0039313715,-0.126755908,-0.134278548,0.0147978945,0.2527678445,0.335428646,0.238121961,0.098463361,1717,"DG_s09",11.234,11.844,12.781,12.781,22,6,10,10,0.937,"Right",22,6,16,16,0,0,-16,0,-16,16,16,"Advent",12,-4,10,22,10,6
"84",5,"POL ROF2-Ref-POL ROF3-Ref",0.2788323857,0.3075090827,0.2323247616,0.0423807116,-0.2224174884,-0.3154948719,-0.2162978508,-0.0329796508,0.1129004946,0.1386104381,0.0136508431,-0.0750451599,-0.1028867988,-0.1080171638,-0.1801402688,-0.2820476658,-0.3308986723,-0.2951197138,-0.0595751138,0.0807480862,0.2529849862,0.4069232777,0.2957160592,0.24078897175,0.18111459175,-0.04391285475,-0.04775332875,0.0354289087,0.1022612887,0.18070264005,0.22021703255,0.21710433255,0.19348943255,0.2402013927,0.1702675312,0.1259205312,1717,"DG_s09",11.234,11.844,12.781,12.781,22,6,10,10,0.937,"Right",22,6,16,16,0,0,-16,0,-16,16,16,"Advent",12,-4,10,22,10,6
"85",5,"POL RPC3-Ref-POL RPC4-Ref",0.09707515195,0.18340186055,0.3594846865,0.4262172865,0.4182416195,0.2572244245,0.1356825275,0.1255852775,0.144894605,0.174713805,0.1306576485,0.0349045783,-0.0354194767,-0.0390309417,-0.0963591882,-0.148820618,-0.170445818,-0.243144718,-0.323297518,-0.380195668,-0.28274087045,-0.17578286645,-0.11255706645,-0.01356223145,-0.057219189,0.0135848705,0.1636025205,0.19177496695,0.24541030545,0.22113603395,0.02422628395,-0.0999712975,-0.0714750525,0.0015932055,0.110371662,0.1953134204,1717,"DG_s09",11.234,11.844,12.781,12.781,22,6,10,10,0.937,"Right",22,6,16,16,0,0,-16,0,-16,16,16,"Advent",12,-4,10,22,10,6
"86",5,"POL RPC2-Ref-POL RPC3-Ref",-0.321743899765,-0.076136749765,0.211597500235,0.327748870235,0.227119255735,0.095532661735,0.100952601735,0.240714006735,0.328479486735,0.345602815735,0.282960244535,0.232055894535,0.234254977035,0.159741262035,0.013499043235,-0.124741205365,-0.129688937865,-0.056413776865,0.060465458635,0.176561607235,0.294407547235,0.433797566235,0.423714421735,0.367906421735,0.183775791235,-0.005129958765,-0.012917394265,0.022634255735,0.143844136235,0.261315042235,0.203214666735,0.154739019335,0.197654719335,0.203535463335,0.259945443335,0.136924140735,1717,"DG_s09",11.234,11.844,12.781,12.781,22,6,10,10,0.937,"Right",22,6,16,16,0,0,-16,0,-16,16,16,"Advent",12,-4,10,22,10,6
"87",5,"POL LAM5-Ref-POL LAM6-Ref",-0.7468094585,-0.7264035355,-0.6813402855,-0.6213778355,-0.644310557,-0.6136709947,-0.4721434947,-0.3139936947,-0.27622180655,-0.29634258655,-0.26716943655,-0.08884343655,0.0931061603,0.0753305675000001,0.043181419,-0.125439231,-0.294759906,-0.2155166405,-0.229151807,-0.3511141135,-0.3168584435,-0.398514264,-0.576620049,-0.6721324425,-0.7061604785,-0.641419108,-0.501790943,-0.3899904575,-0.4208704915,-0.4937971715,-0.5641783865,-0.656543922,-0.797134947,-0.918803067,-0.920741267,-0.861708702,1717,"DG_s09",11.234,11.844,12.781,12.781,22,6,10,10,0.937,"Right",22,6,16,16,0,0,-16,0,-16,16,16,"Advent",12,-4,10,22,10,6
"88",5,"POL RPC5-Ref-POL RPC6-Ref",-0.2951566316,-0.2380868216,-0.0140802906,0.1944782179,0.3025088175,0.2834475175,0.1346696675,0.0234595675,0.0325526675,0.1013162675,0.1520122675,0.0432444395,-0.1036906205,-0.166148597,-0.106067047,0.00151288100000002,0.066014831,0.1073914575,-0.0275819665,-0.1760865665,-0.2083154375,-0.1903812375,-0.162678808,-0.183989558,-0.19641718,-0.334364103325,-0.465317208825,-0.469319958825,-0.490043193825,-0.4232227355,-0.33701635,-0.156704542,0.114454696,0.156265061,0.1076372455,-0.0618230625,1717,"DG_s09",11.234,11.844,12.781,12.781,22,6,10,10,0.937,"Right",22,6,16,16,0,0,-16,0,-16,16,16,"Advent",12,-4,10,22,10,6
"89",5,"POL RAM2-Ref-POL RAM3-Ref",-0.52762069845,-0.54812735345,-0.55259878345,-0.71507745045,-0.8473758855,-0.787606118,-0.696355923,-0.505686123,-0.346208073,-0.1893689405,-0.1340440355,-0.1600294855,-0.182217018,-0.400417443,-0.587934193,-0.645884963,-0.7099939755,-0.6725935255,-0.6502659755,-0.7006938555,-0.6887640065,-0.5724477815,-0.4122880815,-0.2565882315,-0.2083260505,-0.2714683305,-0.36361176465,-0.40629566465,-0.4460737773,-0.5495564973,-0.63250383815,-0.62936515135,-0.5843014787,-0.5849435287,-0.6085305537,-0.658276813,1717,"DG_s09",11.234,11.844,12.781,12.781,22,6,10,10,0.937,"Right",22,6,16,16,0,0,-16,0,-16,16,16,"Advent",12,-4,10,22,10,6
"90",5,"POL RHP4-Ref-POL RHP5-Ref",-0.4044571212,-0.5554422287,-0.6047424025,-0.6003504025,-0.5480711525,-0.4694815525,-0.4142720105,-0.2559132605,-0.2109490205,-0.2764481705,-0.3238748505,-0.1502553005,0.1176309595,0.233493128,0.413542166,0.358322016,0.202857866,0.3208644975,0.3097354475,0.144052154,0.295319854,0.382515104,0.310002554,0.3397263975,0.1731732475,0.0334073475,0.0330195475,0.00207442675,-0.15520587325,-0.35894572325,-0.46874502325,-0.5150612125,-0.3844864689,-0.1271223689,-0.0122605689,0.0178252956,1717,"DG_s09",11.234,11.844,12.781,12.781,22,6,10,10,0.937,"Right",22,6,16,16,0,0,-16,0,-16,16,16,"Advent",12,-4,10,22,10,6
"91",5,"POL RAM4-Ref-POL RAM5-Ref",0.01410728115,-0.02855443835,0.00324511185,0.36216351185,1.15316376185,1.65145769185,1.77980808465,1.52142318465,0.93584548465,0.72401538465,0.89149608465,1.03202923465,0.95359408465,0.83383223465,0.75483943465,0.69161918465,0.67643028465,0.56193368965,0.3637661661,0.2320557761,0.1594435115,0.0958551505,0.13774227405,0.17375392355,0.12185544815,0.11890501915,0.07440537665,-0.04391595285,-0.11083501285,-0.15695309185,-0.10405769435,0.03592277065,0.15064523315,0.18711684715,0.07256549215,-0.02367585285,1717,"DG_s09",11.234,11.844,12.781,12.781,22,6,10,10,0.937,"Right",22,6,16,16,0,0,-16,0,-16,16,16,"Advent",12,-4,10,22,10,6
"92",5,"POL RHP5-Ref-POL RHP6-Ref",0.32564296935,0.31143512285,0.20447245285,0.14819594085,0.24041420885,0.23864049275,0.31162798825,0.33275186125,0.25329090325,0.33255156435,0.34403098885,0.40229832785,0.43389095435,0.29054990435,0.23115391985,0.23095436985,0.23239368135,0.35264593135,0.53043256585,0.58136901585,0.64719878585,0.74936888585,0.72075533585,0.60355974685,0.44282715985,0.34986118985,0.29269523985,0.34632462885,0.45737031585,0.46810408585,0.44300783585,0.41574773585,0.38126496085,0.36935839085,0.28959486985,0.21073931985,1717,"DG_s09",11.234,11.844,12.781,12.781,22,6,10,10,0.937,"Right",22,6,16,16,0,0,-16,0,-16,16,16,"Advent",12,-4,10,22,10,6
"93",5,"POL LAM3-Ref-POL LAM4-Ref",0.102342783,0.061477238,0.044683073,0.092019297,0.168754518,0.2234036015,0.1938818015,0.2197510725,0.2566061015,0.425560418,0.656914118,0.818820173,1.002344873,1.000346323,0.919946873,0.74512335,0.42141925,0.2577456519,0.1921188009,0.3429233739,0.6024921239,0.751315472,0.811950073,0.728090938,0.703127488,0.652788789,0.532762254,0.445061224,0.273834694,0.19649787455,0.32266100955,0.46697402455,0.65007090455,0.842356723,0.884498873,0.793912119,1717,"DG_s09",11.234,11.844,12.781,12.781,22,6,10,10,0.937,"Right",22,6,16,16,0,0,-16,0,-16,16,16,"Advent",12,-4,10,22,10,6
"94",5,"POL LAM6-Ref-POL LAM7-Ref",-0.17604152985,-0.42360105435,-0.58232482935,-0.50566985455,-0.34350505075,-0.31641521625,-0.2953874682,-0.29038331975,-0.37700219975,-0.420607809205,-0.400260450105,-0.407880381055,-0.337082336055,-0.2393626866,-0.16499151875,-0.06796580875,-0.20691789775,-0.3014946955,-0.3913608044,-0.4427157294,-0.2321781054,-0.11792284765,-0.14398056475,-0.19877612175,-0.39726101425,-0.50388779975,-0.47639528455,-0.51437615255,-0.54565086005,-0.54256361455,-0.44906615375,-0.39797065125,-0.43628920125,-0.52729512125,-0.67274408125,-0.66965034625,1717,"DG_s09",11.234,11.844,12.781,12.781,22,6,10,10,0.937,"Right",22,6,16,16,0,0,-16,0,-16,16,16,"Advent",12,-4,10,22,10,6
"95",5,"POL LAM1-Ref-POL LAM2-Ref",0.47440446985,0.45562834185,0.3074720715,0.238441192,0.14347126,0.236849458,0.537172808,0.824021358,0.96443939,1.01692535,0.94848995,0.85502615,0.82489705,0.6929720265,0.5286694765,0.2804876765,0.0999736765,0.041445056,0.312818756,0.845067456,1.193484656,1.3602684,1.14627836334,0.72481032834,0.47206257834,0.39948848034,0.3937072665,0.3535528665,0.368909498,0.244142546,0.1218924965,0.0754967815,0.00956723500000001,0.093897,0.1238685,0.169449505,1717,"DG_s09",11.234,11.844,12.781,12.781,22,6,10,10,0.937,"Right",22,6,16,16,0,0,-16,0,-16,16,16,"Advent",12,-4,10,22,10,6
"96",5,"POL RHP6-Ref-POL RHP7-Ref",0.315440386,0.3485914565,0.313594118,0.4546430924,0.6087135104,0.5746714739,0.6982532879,0.7793253135,0.675741016,0.6629663548245,0.4684077048245,0.2241219548245,0.1651200523245,0.1069248,0.11041395,0.1436806,0.15934564,0.2214799035,0.5006032035,0.7781658535,0.7990540758,0.7759526773,0.5489660673,0.2886453673,0.181827305,0.12439844,0.1186623,0.15728518,0.279182511,0.3449129385,0.2726390885,0.1345739085,0.0461344275,0.036096365,0.13776527665,0.29520156265,1717,"DG_s09",11.234,11.844,12.781,12.781,22,6,10,10,0.937,"Right",22,6,16,16,0,0,-16,0,-16,16,16,"Advent",12,-4,10,22,10,6
"97",6,"POL RAM3-Ref-POL RAM4-Ref",0.083267098,0.0185468822,-0.1039173678,-0.2209235178,-0.3512946678,-0.401537346,-0.176754946,0.162320254,0.363945904,0.492495598,0.403349948,0.276631448,0.258275293,0.1308508125,0.08685117,0.06812372,0.189768025,0.3460276555,0.450463548,0.486990948,0.361647748,0.196335832,0.00930978100000002,-0.095277469,-0.20547670025,-0.23382594425,-0.17084074675,-0.21617540675,-0.226124940135,-0.239367580135,-0.298846126635,-0.331900212635,-0.241671928,-0.060736828,0.038733122,0.156184868,1718,"DG_s09",13.781,14.391,14.969,14.969,30,15,10,10,0.578,"Left",30,15,15,15,0,0,-15,0,-15,15,15,"Advent",20,5,30,10,15,10
"98",6,"POL ROF4-Ref-POL ROF5-Ref",-0.25516594,-0.22520404,-0.15076809,-0.1844921296,-0.2431689025,-0.36978428685,-0.50186583905,-0.51423731595,-0.48222083975,-0.4251143654,-0.2822332132,-0.2243199572,-0.2987387705,-0.3359375553,-0.5133110403,-0.6087399298,-0.5845634372,-0.4437323924,-0.2029755074,-0.00664360740000003,0.1713284,0.15539325,-0.025181355,-0.12291668,-0.11993618,-0.1868995265,-0.2316491035,-0.3840321785,-0.6252310785,-0.692278206,-0.700821051,-0.726934201,-0.741727101,-0.698998945,-0.614713003,-0.4898148755,1718,"DG_s09",13.781,14.391,14.969,14.969,30,15,10,10,0.578,"Left",30,15,15,15,0,0,-15,0,-15,15,15,"Advent",20,5,30,10,15,10
"99",6,"POL LAM1-Ref-POL LAM2-Ref",-0.1253116551,-0.1044263051,-0.0653150051,-0.02568808935,0.01562044985,0.08503977035,0.24486487035,0.3940853546,0.4485462154,0.4558550999,0.4320876999,0.4316894499,0.4261872999,0.4690192449,0.32433655125,0.17956972275,0.28710172275,0.32270020775,0.3087776559,0.1930927344,-0.0640243656,-0.1732437716,-0.15317833075,-0.13220083075,-0.07326907575,-0.15441435475,-0.2285634501,-0.2185057001,-0.3058732051,-0.3946591551,-0.3987949551,-0.3845545551,-0.2370264806,0.0350270194,0.1947078819,0.1841063819,1718,"DG_s09",13.781,14.391,14.969,14.969,30,15,10,10,0.578,"Left",30,15,15,15,0,0,-15,0,-15,15,15,"Advent",20,5,30,10,15,10
"100",6,"POL LAM5-Ref-POL LAM6-Ref",-0.26301568295,-0.36360358395,-0.3223000545,-0.2498914745,-0.1536648015,-0.1251476465,-0.211848745,-0.431766645,-0.640568295,-0.73375715,-0.73923275,-0.72338245,-0.59437873,-0.37191253,-0.2861237975,-0.3014364475,-0.322070285,-0.328864835,-0.2723377375,-0.197319017,-0.2366760995,-0.3647290055,-0.3200191855,-0.270027609,-0.196643026,-0.07915447,-0.08359352,0.00499718300000002,-0.00147427500000002,-0.13364266,-0.2352065949,-0.3540641099,-0.35000588295,-0.24604887795,-0.18634400305,-0.15070062405,1718,"DG_s09",13.781,14.391,14.969,14.969,30,15,10,10,0.578,"Left",30,15,15,15,0,0,-15,0,-15,15,15,"Advent",20,5,30,10,15,10
"101",6,"POL RHP5-Ref-POL RHP6-Ref",0.387398483,0.38195977676,0.43862226176,0.54987531176,0.78157001176,0.959240295,0.87051475086,0.72340530586,0.50830350586,0.34793140501,0.30777069915,0.23878865415,0.12212215415,0.023212705,-0.00113864500000002,-0.039128055,0.00522405349999999,0.1027978085,0.1769392985,0.3199566985,0.46663419,0.601336285,0.602053449445,0.559897049945,0.535748949945,0.392281244945,0.3555058915,0.471043491,0.584466791,0.680569396,0.749909795,0.665429645,0.472785637,0.421307123,0.550297923,0.614119273,1718,"DG_s09",13.781,14.391,14.969,14.969,30,15,10,10,0.578,"Left",30,15,15,15,0,0,-15,0,-15,15,15,"Advent",20,5,30,10,15,10
"102",6,"POL RAM5-Ref-POL RAM6-Ref",-0.417346239,-0.403438913,-0.437417374,-0.4184185185,-0.3224434685,-0.23631167945,-0.16437212295,-0.18098570845,-0.25561285845,-0.27249088875,-0.280761424,-0.277465994,-0.262420994,-0.14273362375,0.077273815,0.165988435,0.0805223700000001,-0.07135209,-0.20867489,-0.24651804,-0.2541577274,-0.3316710174,-0.4903621174,-0.6111170024,-0.5825604335,-0.4744039335,-0.377049777,-0.408755207,-0.5176740235,-0.562819006,-0.4988352625,-0.3208069475,-0.1207324475,-0.1451523185,-0.23474556435,-0.31566446435,1718,"DG_s09",13.781,14.391,14.969,14.969,30,15,10,10,0.578,"Left",30,15,15,15,0,0,-15,0,-15,15,15,"Advent",20,5,30,10,15,10
"103",6,"POL ROF1-Ref-POL ROF2-Ref",-0.562621062,-0.500835532,-0.432677682,-0.412294382,-0.439355387,-0.482978067,-0.3939020726,-0.3126524986,-0.3225819626,-0.3075199926,-0.30541809435,-0.38740622835,-0.31971869435,-0.15095511435,-0.062462507,0.069088703,0.190573233,0.260243533,0.271697833,0.262563233,0.285278983,0.227669953,0.0828690185,0.090882432,0.103035782,0.0054922775,-0.026534903,-0.089654836,-0.190853471,-0.21965502,-0.0859357305,0.076162639,0.0563474875,0.0709286985,0.151679874,0.0595318145,1718,"DG_s09",13.781,14.391,14.969,14.969,30,15,10,10,0.578,"Left",30,15,15,15,0,0,-15,0,-15,15,15,"Advent",20,5,30,10,15,10
"104",6,"POL RAM6-Ref-POL RAM7-Ref",-0.089236217225,-0.021214451725,-0.095744401725,-0.217676143225,-0.275445570225,-0.184958485725,0.004680214275,0.156401765775,0.105216740775,-0.099646009225,-0.231390262225,-0.118523018725,0.199524183275,0.431021583275,0.540137381775,0.390671651275,0.337854751275,0.747295451275,0.988450455775,1.040717336775,1.106365286775,0.794726536775,0.491540630275,0.413507212275,0.153859732275,-0.018971372725,0.123445933775,0.448024706275,0.702276336275,0.781165191275,0.692223206275,0.410079297325,0.188808052325,0.134709802325,0.120551002825,0.071529761775,1718,"DG_s09",13.781,14.391,14.969,14.969,30,15,10,10,0.578,"Left",30,15,15,15,0,0,-15,0,-15,15,15,"Advent",20,5,30,10,15,10
"105",6,"POL ROF5-Ref-POL ROF6-Ref",-0.4079275714,-0.420544493,-0.476013899,-0.568902051,-0.574569701,-0.675095166,-0.79651046,-0.812978805,-0.812574455,-0.707053478,-0.518705978,-0.354648828,-0.226496528,-0.177924455,-0.337987073,-0.529647823,-0.659023173,-0.71125190645,-0.64600537645,-0.59572177645,-0.49085769245,-0.359708309,-0.353987067,-0.354234662,-0.31813989205,-0.41481795155,-0.50478168555,-0.44665443605,-0.44817809,-0.436333905,-0.450709865,-0.4738985595,-0.4975424295,-0.400062405,-0.123646515,-0.033451705,1718,"DG_s09",13.781,14.391,14.969,14.969,30,15,10,10,0.578,"Left",30,15,15,15,0,0,-15,0,-15,15,15,"Advent",20,5,30,10,15,10
"106",6,"POL RPC2-Ref-POL RPC3-Ref",-0.2738127535,-0.4191030535,-0.47328658,-0.440543004,-0.332398289,-0.245142969,-0.2049358845,-0.1806411695,-0.1887766044,-0.2766180744,-0.2559528274,-0.1664013134,-0.17196603,-0.05582697095,-0.07743886295,-0.22675589795,-0.20032205495,-0.176422614,-0.251014196,-0.1837962795,0.000941514000000004,0.144654914,0.3326387365,0.3439890759,0.14596441735,0.00214421735000001,0.04846801735,0.09358392795,0.0346771365,-0.018775677,-0.128527127,-0.0785903085,0.1463344915,0.266536405,0.270108555,0.252311105,1718,"DG_s09",13.781,14.391,14.969,14.969,30,15,10,10,0.578,"Left",30,15,15,15,0,0,-15,0,-15,15,15,"Advent",20,5,30,10,15,10
"107",6,"POL LAM3-Ref-POL LAM4-Ref",0.130977642415,0.271882475415,0.475029725415,0.6382501805,0.774505649,0.845283386,0.700324097,0.595131097,0.447800052,0.320563632,0.317049046,0.262295557,0.338334652,0.555243152,0.678007127,0.6786169995,0.7429168195,0.8849802695,1.0368184695,1.150631186,1.065335266,0.808032266,0.601528266,0.522563061,0.4242997205,0.3157305205,0.2130620205,0.1091443755,0.125107971,0.163231076,0.185511726,0.27231814535,0.33112739035,0.3523313259,0.3919945559,0.35489435955,1718,"DG_s09",13.781,14.391,14.969,14.969,30,15,10,10,0.578,"Left",30,15,15,15,0,0,-15,0,-15,15,15,"Advent",20,5,30,10,15,10
"108",6,"POL RHP4-Ref-POL RHP5-Ref",0.1804383305,0.00978338050000001,-0.1703546695,-0.252396521,-0.2296085415,-0.1351184025,-0.11681666915,-0.01544260765,0.09791388235,0.05995626235,0.137308914,0.069668504,-0.0048457895,0.1918166915,0.2537621565,0.3625739065,0.74286829,0.83604749,0.77559471935,0.73692386935,0.39912001935,0.14027423185,0.083999782,0.031459472,0.029021722,0.1005030595,0.22337288,0.24620244,0.1628208535,0.0031162535,-0.1942580465,-0.2793186365,-0.209751,-0.11859948,0.011201445,0.081745635,1718,"DG_s09",13.781,14.391,14.969,14.969,30,15,10,10,0.578,"Left",30,15,15,15,0,0,-15,0,-15,15,15,"Advent",20,5,30,10,15,10
"109",6,"POL ROF3-Ref-POL ROF4-Ref",-0.403544196,-0.432371366,-0.4986704518,-0.5822087033,-0.5260425193,-0.5230445493,-0.4094603135,-0.1580050635,-0.052241464,-0.051370068,-0.272294618,-0.580535418,-0.847545118,-1.038512564,-0.995060764,-0.895069689,-0.734849583,-0.6280742715,-0.6236366965,-0.5415601965,-0.5496094562,-0.6009376177,-0.6843931427,-0.7515686777,-0.637628574,-0.544064321,-0.498629971,-0.5267973884,-0.5274660884,-0.3625024914,-0.1234925914,0.139990236,0.130241281,-0.040042716,-0.098409966,-0.249954297,1718,"DG_s09",13.781,14.391,14.969,14.969,30,15,10,10,0.578,"Left",30,15,15,15,0,0,-15,0,-15,15,15,"Advent",20,5,30,10,15,10
"110",6,"POL RPC1-Ref-POL RPC2-Ref",0.3794869135,0.4433415735,0.30944442,0.3303394945,0.3344906185,0.3945743685,0.543749922,0.6556667845,0.7275193845,0.6047361845,0.5519597845,0.5141349845,0.4792398345,0.4441099219,0.3307021319,0.2751966719,0.1954507319,0.2933602445,0.5088673345,0.5737405995,0.5014370505,0.3382964255,0.1713680395,0.1651131845,0.2967780735,0.3876805485,0.4242827045,0.3235104725,0.1553233225,0.0130461225,-0.0632876102,-0.0299311262,0.0219262188,0.0896364843,0.150057002,0.144568581,1718,"DG_s09",13.781,14.391,14.969,14.969,30,15,10,10,0.578,"Left",30,15,15,15,0,0,-15,0,-15,15,15,"Advent",20,5,30,10,15,10
"111",6,"POL RAM4-Ref-POL RAM5-Ref",0.187479745,0.154644406,-0.00969962495,-0.21809711995,-0.20085589095,-0.1294917029,-0.14750702195,-0.15046987795,-0.07584445095,-0.028496694,0.00495944000000001,0.081457637,0.111763787,0.135454087,0.266234903,0.259857842,0.14871385975,0.03815166475,-0.14624318525,-0.23368436025,-0.230540243,-0.228177624,-0.251136969,-0.322278697,-0.219197482,-0.129706056,-0.021600586,0.032540586,-0.114125414,-0.273755764,-0.380843239,-0.331973636,-0.348732546,-0.372301246,-0.2779117395,-0.1422746965,1718,"DG_s09",13.781,14.391,14.969,14.969,30,15,10,10,0.578,"Left",30,15,15,15,0,0,-15,0,-15,15,15,"Advent",20,5,30,10,15,10
"112",6,"POL LAM2-Ref-POL LAM3-Ref",-0.310647292,-0.4436989304,-0.4276814304,-0.3172764546,-0.0731324546,0.1191088004,0.2290569004,0.2339530559,0.13128904685,0.05610626185,0.06843207785,0.28159294655,0.3453389981,0.3152551781,0.1719545121,-0.1015620529,-0.165102087025,-0.133846397025,-0.030571905025,0.118345609975,0.2972974016,0.4612087616,0.5038382696,0.4951322196,0.2978471666,0.1298872416,0.0239912966,-0.1183648074,-0.0458667244,0.0459708846,0.0607442041,0.2017280581,0.2986465781,0.2599341016,0.1677029771,0.0236737371,1718,"DG_s09",13.781,14.391,14.969,14.969,30,15,10,10,0.578,"Left",30,15,15,15,0,0,-15,0,-15,15,15,"Advent",20,5,30,10,15,10
"113",6,"POL RPC5-Ref-POL RPC6-Ref",-0.13578907135,-0.10447699685,-0.12371167335,-0.16493434885,-0.1547747705,-0.098265629,-0.015666521,0.022386407,-0.051713175,-0.110813499,-0.090388799,-0.123585931,-0.1215175115,-0.0680257225,-0.1157680225,-0.0748889715,-0.105639791,-0.239795086,-0.333443136,-0.3765518525,-0.3455673025,-0.292597475,-0.213879865,-0.182597297,-0.192847097,-0.2362641245,-0.26653248,-0.232066838,-0.129840588,0.077973962,0.2594457075,0.2561906935,0.2739017985,0.1803705685,0.0166692704,-0.0493129656,1718,"DG_s09",13.781,14.391,14.969,14.969,30,15,10,10,0.578,"Left",30,15,15,15,0,0,-15,0,-15,15,15,"Advent",20,5,30,10,15,10
"114",6,"POL ROF6-Ref-POL ROF7-Ref",0.3103433,0.2853365,0.166605781,0.074136381,-0.1092561295,-0.3074112545,-0.4387159855,-0.6195342355,-0.749845075,-0.731843635,-0.618129327,-0.576861402,-0.5058201655,-0.3444372805,-0.2582103885,-0.2121830255,-0.272132562,-0.40134003855,-0.46671001055,-0.44847154955,-0.40529789455,-0.392740226,-0.340761854,-0.3767848395,-0.4521985445,-0.5212252865,-0.6883081865,-0.7419111015,-0.5667282665,-0.3545074165,-0.27099075685,-0.214078551,-0.338994191,-0.490869816,-0.52927846565,-0.50285252825,1718,"DG_s09",13.781,14.391,14.969,14.969,30,15,10,10,0.578,"Left",30,15,15,15,0,0,-15,0,-15,15,15,"Advent",20,5,30,10,15,10
"115",6,"POL ROF2-Ref-POL ROF3-Ref",-0.421891118495,-0.509883083495,-0.570603496995,-0.584552057545,-0.530419184545,-0.571190689545,-0.600653944545,-0.538965421045,-0.541909066545,-0.535357931545,-0.582385796545,-0.659427649845,-0.636830417845,-0.584320549845,-0.350035649845,-0.154540880045,-0.045949389545,0.045103577455,-0.045904172545,-0.148399532545,-0.332959724545,-0.505190074545,-0.636955074545,-0.796733464545,-0.785996722545,-0.812869672545,-0.859290372545,-0.739849389615,-0.558673839615,-0.320672189615,-0.184973497115,-0.216015925045,-0.400226555045,-0.487741008545,-0.460666211045,-0.513713856045,1718,"DG_s09",13.781,14.391,14.969,14.969,30,15,10,10,0.578,"Left",30,15,15,15,0,0,-15,0,-15,15,15,"Advent",20,5,30,10,15,10
"116",6,"POL RPC3-Ref-POL RPC4-Ref",-0.398007961,-0.366617976,-0.257717481,-0.181043325,-0.3375119905,-0.456823072,-0.426767372,-0.412445122,-0.3102516015,-0.275853565,-0.140179465,0.0996257850000001,0.23951988,0.379501525,0.329040975,0.143688125,0.000946274999999996,-0.116654649,-0.384714539,-0.702421239,-0.809897639,-0.848320542,-0.743717292,-0.571887132,-0.516355418555,-0.514645669555,-0.335625279555,-0.238700814555,-0.2523128755,-0.261291409,-0.453192354,-0.56229894,-0.6478207925,-0.785135631,-0.7834651895,-0.6247334285,1718,"DG_s09",13.781,14.391,14.969,14.969,30,15,10,10,0.578,"Left",30,15,15,15,0,0,-15,0,-15,15,15,"Advent",20,5,30,10,15,10
"117",6,"POL RHP6-Ref-POL RHP7-Ref",-0.17260192657,-0.17097516457,-0.1484395005,-0.0413461025,0.2201928325,0.3890956905,0.3533748985,0.345459449,0.1740325875,-0.0572674275,-0.0646269505,-0.0857083095,-0.049944848,0.009511832,0.098528367,0.2251807275,0.3332439275,0.3798401125,0.4367148625,0.4380567625,0.2980580635,0.1369840135,0.0300743265,0.0068814265,0.2311583255,0.5194730755,0.6242863125,0.6147036625,0.4258024625,0.3531681625,0.4467962625,0.5129022125,0.6466302625,0.5784392625,0.4570302125,0.2931959055,1718,"DG_s09",13.781,14.391,14.969,14.969,30,15,10,10,0.578,"Left",30,15,15,15,0,0,-15,0,-15,15,15,"Advent",20,5,30,10,15,10
"118",6,"POL LAM6-Ref-POL LAM7-Ref",-0.0461760428,-0.2369142428,-0.3959483928,-0.5824852673,-0.54039372,-0.33502012,-0.12043967,0.0856768045,0.1767628545,0.0422462105,-0.1952939395,-0.4615344305,-0.4943119805,-0.3296677865,-0.1686108365,0.0131205545,0.0531254045,-0.014085209,-0.112699094,-0.235452146,-0.292384846,-0.2940384325,-0.1897292975,-0.1247647355,-0.1781990205,-0.0773476705,-0.092985967,-0.224998977,-0.400310742,-0.5737486575,-0.552932861,-0.397388811,-0.180827361,-0.0561674455,-0.0708115995,-0.1972074545,1718,"DG_s09",13.781,14.391,14.969,14.969,30,15,10,10,0.578,"Left",30,15,15,15,0,0,-15,0,-15,15,15,"Advent",20,5,30,10,15,10
"119",6,"POL RPC4-Ref-POL RPC5-Ref",0.3451948705,0.51438371475,0.64777711475,0.73295056475,0.59264076475,0.42872024475,0.23850519775,-0.04932700225,-0.32722495225,-0.44685938575,-0.34345393875,-0.2337912101,-0.1045465836,-0.0010418101,-0.1564695876,-0.33579201625,-0.39642994275,-0.52548841275,-0.47501799025,-0.27685760525,-0.20155289175,-0.16851854175,-0.16697749775,-0.09287333275,-0.00220760624999999,0.06267843305,0.12096417505,0.03808886055,-0.07322453945,-0.000237378750000003,0.12962179025,0.27485340475,0.44799986475,0.40854226475,0.22976172475,0.0583443214,1718,"DG_s09",13.781,14.391,14.969,14.969,30,15,10,10,0.578,"Left",30,15,15,15,0,0,-15,0,-15,15,15,"Advent",20,5,30,10,15,10
"120",6,"POL RAM2-Ref-POL RAM3-Ref",-0.0526130208,-0.2005124968,-0.401763453,-0.60259936,-0.564148265,-0.343162429,-0.078962779,0.032702023,-0.017874642,-0.11460343,-0.267530975,-0.38559887,-0.51029985,-0.53423023355,-0.44670618505,-0.39530480505,-0.30380330405,-0.2474975325,-0.178812186,0.00163028399999998,-0.0130993385,-0.126890139,-0.209744439,-0.294705789,-0.336133454,-0.3529101835,-0.4052366235,-0.5087454235,-0.490175007,-0.3975671625,-0.2177694225,-0.0867248225,0.00724949749999998,0.080877383,-0.031474017,-0.030382467,1718,"DG_s09",13.781,14.391,14.969,14.969,30,15,10,10,0.578,"Left",30,15,15,15,0,0,-15,0,-15,15,15,"Advent",20,5,30,10,15,10
"121",7,"POL ROF4-Ref-POL ROF5-Ref",-0.1134427995,0.0485624005,0.16462776625,0.43175861625,0.61431836125,0.65150392625,0.6272605805,0.3323772705,0.0770322705,0.0186742275,0.1170706075,0.3972362675,0.8025895175,1.0017703955,0.9980535955,0.8109296585,0.5224210355,0.4430482355,0.4567003355,0.5244035725,0.6147095955,0.5786962205,0.4249904985,0.2397127485,0.0485490385,0.0363091365,0.1651388085,0.3218193555,0.3346428905,0.2169590675,0.0642430675,-0.0741643795,-0.1006639545,-0.1333438045,-0.0824002355,0.1092533645,1719,"DG_s09",15.969,16.594,17.328,17.328,28,4,10,10,0.734,"Left",28,4,24,24,0,0,-24,0,-24,24,24,"Advent",18,-6,28,10,4,10
"122",7,"POL RPC2-Ref-POL RPC3-Ref",0.41449136915,0.42613726915,0.39295413415,0.36552350515,0.14112540515,0.10541885515,0.21879860515,0.39136260515,0.40121296365,0.2634344236,0.1181104086,-0.0151446414,0.0030439501,0.09106809015,0.11770810515,0.10947615515,0.08866205515,0.22373535515,0.27319834065,0.15649494165,0.08803935855,-0.21342024145,-0.37183032745,-0.29338352845,-0.19323314535,0.07335445465,0.18057915515,0.17729503515,0.0791827045,-0.1218167055,-0.2663285055,-0.4158224855,-0.46379076635,-0.39406615635,-0.35844875935,-0.32775465935,1719,"DG_s09",15.969,16.594,17.328,17.328,28,4,10,10,0.734,"Left",28,4,24,24,0,0,-24,0,-24,24,24,"Advent",18,-6,28,10,4,10
"123",7,"POL ROF1-Ref-POL ROF2-Ref",-0.0153641537,-0.08373369145,-0.05134953895,0.05540351055,0.16100598715,0.24599303215,0.27419083965,0.192156787,0.111420072,0.119980612,0.202487482,0.35753413465,0.45768644965,0.46815229665,0.34661895345,0.28333905345,0.18931567145,0.01931033945,0.00792712715,-0.000605222849999998,0.07512830915,0.25498080915,0.37544331465,0.27948078565,0.14497767315,0.41209097315,0.57422732315,0.60061738215,0.57278797465,0.19646537465,-0.03210453005,0.07129313995,0.24242780995,0.35029510995,0.38096856465,0.50621091465,1719,"DG_s09",15.969,16.594,17.328,17.328,28,4,10,10,0.734,"Left",28,4,24,24,0,0,-24,0,-24,24,24,"Advent",18,-6,28,10,4,10
"124",7,"POL LAM2-Ref-POL LAM3-Ref",0.46334673835,0.50619525685,0.51029891685,0.40889868685,0.36608673235,0.37585574295,0.23757022495,0.11139609495,0.07513791195,-0.03873834515,0.07371604335,0.22350700335,0.24975459935,0.27039929935,0.10520572885,-0.08911822115,-0.10978455715,-0.03502219015,0.16573490985,0.35779015985,0.44620681485,0.43587891335,0.19379526335,-0.00090963664999999,-0.01919676615,0.09944326835,0.29305711835,0.48579621835,0.60497894285,0.52705095785,0.43915570125,0.29556110625,0.1667582317,0.1603452105,0.2241582171,0.2367594966,1719,"DG_s09",15.969,16.594,17.328,17.328,28,4,10,10,0.734,"Left",28,4,24,24,0,0,-24,0,-24,24,24,"Advent",18,-6,28,10,4,10
"125",7,"POL LAM5-Ref-POL LAM6-Ref",-0.3232540975,-0.4632034075,-0.6017601675,-0.6675225075,-0.6951912385,-0.63529267845,-0.67417843845,-0.65583059145,-0.68660759943,-0.77717442133,-0.65545090133,-0.65925401583,-0.72673142685,-0.793587455,-0.972851655,-1.0565256475,-1.1279808975,-1.052332821,-0.880228966,-0.8124283535,-0.706330399,-0.5961697255,-0.5290338805,-0.469079658,-0.4578428483,-0.6274395483,-0.7970239883,-0.7872200858,-0.676637,-0.4564773,-0.23727091,-0.2056665975,-0.2391953575,-0.339261524,-0.512473095,-0.594468844,1719,"DG_s09",15.969,16.594,17.328,17.328,28,4,10,10,0.734,"Left",28,4,24,24,0,0,-24,0,-24,24,24,"Advent",18,-6,28,10,4,10
"126",7,"POL ROF6-Ref-POL ROF7-Ref",-0.3290874695,-0.3520102195,-0.34690493925,-0.03992823925,0.33256776075,0.49330852475,0.5002223745,0.2239821245,-0.1423217255,-0.165561954,-0.023456584,0.170325016,0.334289308,0.2449798725,0.1210316825,-0.0075745925,-0.0510269545,-0.0785829545,-0.05387902765,0.03119899735,0.16464171735,0.39769491735,0.4756727805,0.4613206805,0.4158989305,0.3708065805,0.4017304305,0.357376363,0.159369663,-0.116960087,-0.2824027097,-0.1870898922,0.0558821078,0.3037147578,0.5426699805,0.5979993805,1719,"DG_s09",15.969,16.594,17.328,17.328,28,4,10,10,0.734,"Left",28,4,24,24,0,0,-24,0,-24,24,24,"Advent",18,-6,28,10,4,10
"127",7,"POL LAM1-Ref-POL LAM2-Ref",0.031777814,0.033900817,0.158803397,0.2482006035,0.1989989795,0.2119760395,0.0970912905,0.047377472,0.074447801,0.00399128585,-0.01207216515,-0.01841788715,-0.07179103905,-0.0676748159,0.0326112341,0.0208436341,-0.039690569,-0.0349613227,-0.1145875252,-0.0996903012,-0.0040289212,0.0405524195,0.137387522,0.169289798,0.155557728,0.168285023,0.163201573,0.247035813,0.307564003,0.413831203,0.552020153,0.646963803,0.732385503,0.647061453,0.486166253,0.321644903,1719,"DG_s09",15.969,16.594,17.328,17.328,28,4,10,10,0.734,"Left",28,4,24,24,0,0,-24,0,-24,24,24,"Advent",18,-6,28,10,4,10
"128",7,"POL RHP6-Ref-POL RHP7-Ref",0.2234843,0.3687699,0.45198025,0.23242057,-0.15036678,-0.51513108,-0.8723719945,-0.9554138625,-0.86623699195,-0.84473815595,-0.84277976745,-0.71340221945,-0.53388189,-0.325234226,-0.18756415,-0.14282525,-0.17737285,-0.3656597435,-0.4676411295,-0.5290973795,-0.5395715795,-0.328415186,-0.22852265,-0.345004238,-0.4870377787,-0.6680522137,-0.6893977637,-0.5814459257,-0.50767916,-0.5630474245,-0.7206186745,-0.8029637765,-0.7841072015,-0.715892647,-0.670240526,-0.69003024005,1719,"DG_s09",15.969,16.594,17.328,17.328,28,4,10,10,0.734,"Left",28,4,24,24,0,0,-24,0,-24,24,24,"Advent",18,-6,28,10,4,10
"129",7,"POL ROF5-Ref-POL ROF6-Ref",0.30295884225,0.38854230725,0.43681232425,0.50396017425,0.58696877425,0.52983978975,0.42165142325,0.28444098825,0.21133998825,0.17999323625,0.16637478125,0.16835481625,0.25427631625,0.38927475475,0.31327103125,0.2221100131,0.1234461631,0.0696182611,0.15307220135,0.238923588,0.397504188,0.485078238,0.45487578725,0.33762046875,0.1027244472,0.0106466972,0.1384485527,0.4429055527,0.60462442425,0.53173564325,0.438044871205,0.113220741205,-0.198649608795,-0.259799877795,-0.33517855575,-0.25769788525,1719,"DG_s09",15.969,16.594,17.328,17.328,28,4,10,10,0.734,"Left",28,4,24,24,0,0,-24,0,-24,24,24,"Advent",18,-6,28,10,4,10
"130",7,"POL RAM4-Ref-POL RAM5-Ref",-0.41373349,-0.40076754,-0.36718124,-0.37246359,-0.37330269,-0.379407215,-0.2745818485,-0.2163660635,-0.13888102885,-0.09456562085,-0.19196163735,-0.22338397235,-0.350655357,-0.46719559,-0.46374524,-0.46807284,-0.374156344,-0.2364997995,-0.2229021795,-0.2613226795,-0.3727654255,-0.50440942,-0.4236934615,-0.253926256,-0.155295126,-0.137666176,-0.1346184425,-0.071383498,-0.01932051,-0.01020036,-0.161034622,-0.3012902218,-0.29448644255,-0.211640409945,-0.024515334945,0.060320594855,1719,"DG_s09",15.969,16.594,17.328,17.328,28,4,10,10,0.734,"Left",28,4,24,24,0,0,-24,0,-24,24,24,"Advent",18,-6,28,10,4,10
"131",7,"POL RPC1-Ref-POL RPC2-Ref",-0.25639328485,-0.31097910985,-0.27036602635,-0.03707252635,0.15439217365,0.25773553665,0.25899495915,0.08857140915,-0.01952607335,0.02138276365,0.10333470765,0.17720115765,0.34402554015,0.44671454015,0.38896234715,0.46867209715,0.46610259715,0.37202874715,0.36763569015,0.27983194515,0.13978409515,0.0712003072,0.0024887572,-0.0551424978,-0.1441602728,-0.27710698485,-0.26382882985,-0.24873855485,-0.20933305985,-0.14239945985,-0.19183391485,-0.26722773985,-0.33121670985,-0.21042651955,-0.01320136955,0.14297948045,1719,"DG_s09",15.969,16.594,17.328,17.328,28,4,10,10,0.734,"Left",28,4,24,24,0,0,-24,0,-24,24,24,"Advent",18,-6,28,10,4,10
"132",7,"POL RAM3-Ref-POL RAM4-Ref",-0.0204738815,-0.0724575021,0.0210916209,0.0269650809,-0.0545792401,-0.1119442545,-0.2750327045,-0.3689747895,-0.4956430685,-0.6323059335,-0.7105209835,-0.7724701985,-0.7455494985,-0.6270352485,-0.6012156985,-0.6149638985,-0.6001993485,-0.537795081,-0.422414804,-0.322483034,-0.25052650095,-0.19578971845,-0.11488344545,-0.13395060745,-0.171135913,-0.126544763,-0.049921313,-0.00524453499999999,-0.0790973625,-0.2767279125,-0.5370372125,-0.6418600985,-0.5971440635,-0.5147229735,-0.377069769,-0.121922069,1719,"DG_s09",15.969,16.594,17.328,17.328,28,4,10,10,0.734,"Left",28,4,24,24,0,0,-24,0,-24,24,24,"Advent",18,-6,28,10,4,10
"133",7,"POL RAM5-Ref-POL RAM6-Ref",-0.22327465415,-0.38848216715,-0.41629936715,-0.42463854715,-0.35594358605,-0.23721187155,-0.04903177155,-0.00628128955,-0.05977680065,-0.13770876515,-0.32592766515,-0.38071851715,-0.38893641715,-0.34175800215,-0.32795740215,-0.35580105215,-0.28506945115,-0.29189136415,-0.33725216415,-0.27842747915,-0.32376932515,-0.39123072715,-0.22196580265,-0.11565863365,-0.15352008865,-0.16788413865,-0.29641436315,-0.37090637715,-0.36196625715,-0.39608880715,-0.44950340715,-0.51236764715,-0.48860151715,-0.38563526715,-0.26918125015,-0.14014610015,1719,"DG_s09",15.969,16.594,17.328,17.328,28,4,10,10,0.734,"Left",28,4,24,24,0,0,-24,0,-24,24,24,"Advent",18,-6,28,10,4,10
"134",7,"POL RPC3-Ref-POL RPC4-Ref",-0.503023439,-0.554377143,-0.5383527515,-0.440823791,-0.4088871529,-0.3586778454,-0.4197885074,-0.4039903124,-0.249450882,-0.1461487855,-0.0700326700000001,0.00190119999999994,-0.1625065305,-0.304023834,-0.463829084,-0.675851934,-0.7626884035,-0.79186338325,-0.697992643015,-0.602217703015,-0.480876053015,-0.297182469765,-0.12833316,-0.1105994775,-0.1281840695,-0.2475779195,-0.44048334,-0.5471677125,-0.6140931705,-0.7561445205,-0.8299269,-0.79473206,-0.778467335,-0.646971736,-0.543704289,-0.556971699,1719,"DG_s09",15.969,16.594,17.328,17.328,28,4,10,10,0.734,"Left",28,4,24,24,0,0,-24,0,-24,24,24,"Advent",18,-6,28,10,4,10
"135",7,"POL LAM3-Ref-POL LAM4-Ref",-0.0734686738,-0.2570703738,-0.3957968238,-0.35992967555,-0.22621072555,0.01142682445,0.22592617445,0.334340226,0.435050876,0.360893981,0.315855891,0.320359341,0.280303541,0.214775701,0.131770431,-0.014654254,-0.190327559,-0.1599693215,-0.0644921115,-0.048797452,-0.0061496295,-0.00337772700000001,-0.0907750372,-0.0201257567,0.0465651258,0.0136251918,-0.023996148,-0.1129556945,-0.155579614,-0.1469298115,-0.102340384,-0.00880942900000001,0.1441181905,0.238228817,0.3045715395,0.2523344585,1719,"DG_s09",15.969,16.594,17.328,17.328,28,4,10,10,0.734,"Left",28,4,24,24,0,0,-24,0,-24,24,24,"Advent",18,-6,28,10,4,10
"136",7,"POL RHP5-Ref-POL RHP6-Ref",-0.26083125,-0.28868865,-0.3952149105,-0.510864861,-0.551714056,-0.7530314495,-0.887620839,-0.870199968,-0.807246573,-0.6271485295,-0.4573320295,-0.28809635,-0.25076565,-0.31527395,-0.393605382,-0.5490868315,-0.6103500815,-0.6153980315,-0.4906348495,-0.4136343,-0.423064,-0.39789745,-0.5090442215,-0.6058450155,-0.5250319655,-0.4297876655,-0.309240944,-0.1457348,-0.1971669,-0.363969513,-0.571299963,-0.78062966795,-0.80972081795,-0.76699900495,-0.65736491995,-0.6020733075,1719,"DG_s09",15.969,16.594,17.328,17.328,28,4,10,10,0.734,"Left",28,4,24,24,0,0,-24,0,-24,24,24,"Advent",18,-6,28,10,4,10
"137",7,"POL ROF2-Ref-POL ROF3-Ref",-0.1008722205,-0.0619015022,-0.0647376302,-0.03678187735,0.00400092865,-0.06858913365,-0.11726904265,-0.22133721,-0.2128818845,-0.1002369345,0.0550137655,0.2499467155,0.2284300045,0.199030664,0.143134114,0.084544714,0.1687368395,0.24640953,0.31269688,0.39066818,0.50098958,0.49978268,0.401555231,0.2361654885,-0.0455339115,-0.1997037115,-0.2558931625,-0.224408929,-0.1457746375,-0.1851676875,-0.2591145375,-0.3574131285,-0.42818622,-0.43343722,-0.44062132,-0.38252076,1719,"DG_s09",15.969,16.594,17.328,17.328,28,4,10,10,0.734,"Left",28,4,24,24,0,0,-24,0,-24,24,24,"Advent",18,-6,28,10,4,10
"138",7,"POL RPC5-Ref-POL RPC6-Ref",0.16396039,-0.023117461,-0.021933358,0.222110087,0.424060237,0.501429738,0.4030633583,0.0637478083,-0.1853033832,-0.2743841502,-0.28770453655,-0.17599658655,-0.183135747,-0.24085673,-0.21312935195,-0.26762650845,-0.3297088515,-0.26273549065,-0.273223363995,-0.293586707495,-0.284047622495,-0.287628368845,-0.3287945505,-0.288453818,-0.200871258,-0.1200654225,-0.0286792725,-0.107492035,-0.282285385,-0.380329798,-0.4162977676,-0.4487798376,-0.3783223051,-0.3248315871,-0.3093825025,-0.1423861525,1719,"DG_s09",15.969,16.594,17.328,17.328,28,4,10,10,0.734,"Left",28,4,24,24,0,0,-24,0,-24,24,24,"Advent",18,-6,28,10,4,10
"139",7,"POL LAM6-Ref-POL LAM7-Ref",0.4197656258,0.4552152258,0.3659763538,0.1642361038,0.03253897065,-0.03468471035,-0.06113381785,0.06072177165,0.0883124548,0.0933045358,0.2013673153,0.2859537258,0.2255220513,0.0642977013,-0.04071202125,-0.13998611625,0.01673005825,0.42055880825,0.6388987808,0.65402544265,0.62872559265,0.398148309955,0.103282609955,0.105473168105,0.131189568105,0.0949056873,0.1348052373,0.0100600623,-0.0947211847,-0.0232210212,0.0447798258,0.0301979758,-0.0853530272,-0.2549743272,-0.2823174507,0.0109498493,1719,"DG_s09",15.969,16.594,17.328,17.328,28,4,10,10,0.734,"Left",28,4,24,24,0,0,-24,0,-24,24,24,"Advent",18,-6,28,10,4,10
"140",7,"POL ROF3-Ref-POL ROF4-Ref",0.39897334455,0.36836372455,0.21129227455,0.10127481155,0.1675476185,0.2031726385,0.22824549,0.21816389,0.1892762,0.17152585,0.1835012485,0.1731269235,0.0724278085,0.0236530255,0.0440519755,0.1133177635,0.3803037185,0.6649408015,0.6588092845,0.5937151165,0.5185963665,0.3905716165,0.3985445335,0.4147778541,0.2542318995,0.1435601845,0.07621238405,0.13962945145,0.33245305605,0.34623662005,0.345085595,0.296673525,0.204126625,0.218358726,0.2377001695,0.194386955,1719,"DG_s09",15.969,16.594,17.328,17.328,28,4,10,10,0.734,"Left",28,4,24,24,0,0,-24,0,-24,24,24,"Advent",18,-6,28,10,4,10
"141",7,"POL RAM2-Ref-POL RAM3-Ref",0.109612494,0.1175903635,0.01488685,-0.12810265,-0.02929569,0.2095747155,0.345227079,0.347644994,0.1505712241,-0.2227437259,-0.5011924259,-0.6154678909,-0.612393221,-0.48425465195,-0.3753202184,-0.3746058184,-0.4031749034,-0.27003397775,-0.0759943613,0.00235873535000003,0.16372992035,0.10682636015,-0.10213482185,-0.0989012435,-0.207253585,-0.2731233105,-0.1339196785,-0.0859486935,-0.031268637,0.094517854,0.010143571,-0.122409789,-0.243323304,-0.432455254,-0.584657121,-0.701996021,1719,"DG_s09",15.969,16.594,17.328,17.328,28,4,10,10,0.734,"Left",28,4,24,24,0,0,-24,0,-24,24,24,"Advent",18,-6,28,10,4,10
"142",7,"POL RHP4-Ref-POL RHP5-Ref",0.3075753695,0.2051012895,0.1168770895,0.0862475895,0.0945056745,0.1188920045,0.1683149045,0.2401527545,0.2388750545,0.3170061045,0.240478791,-0.059294509,-0.230291309,-0.405931959,-0.4928677955,-0.4003068455,-0.310473488,-0.163432638,0.083026062,0.253218512,0.3579258045,0.286445206,0.032002071,-0.212475329,-0.3429754125,-0.276607364,-0.148176339,-0.04560855985,-0.01953352885,-0.11629051315,-0.22597015315,-0.2118165498,-0.1716509473,-0.1405022705,-0.117301179,-0.1890449615,1719,"DG_s09",15.969,16.594,17.328,17.328,28,4,10,10,0.734,"Left",28,4,24,24,0,0,-24,0,-24,24,24,"Advent",18,-6,28,10,4,10
"143",7,"POL RAM6-Ref-POL RAM7-Ref",-0.35679259155,-0.22015210955,-0.18577766455,-0.01237214555,0.04829384045,0.00547263445,0.05056895745,-0.04668616155,-0.18402024955,-0.34118872555,-0.50826584355,-0.60610499355,-0.60912429355,-0.453000108508,-0.218322008508,0.043686891492,0.097786921492,0.02149973645,-0.04656528405,0.04327776595,0.30744233595,0.33976536845,0.35570406995,0.24752056995,0.07911316995,0.20159373745,0.26499624145,0.1833963539,0.1720158789,0.0534013704,-0.1251834146,-0.25565072705,-0.42869660205,-0.4581900852,-0.2594909102,0.0077958898,1719,"DG_s09",15.969,16.594,17.328,17.328,28,4,10,10,0.734,"Left",28,4,24,24,0,0,-24,0,-24,24,24,"Advent",18,-6,28,10,4,10
"144",7,"POL RPC4-Ref-POL RPC5-Ref",0.9932647085,0.8941204605,0.9074054195,1.0170832195,0.9181810195,0.9368963675,0.76678068055,0.39855106555,0.28374739905,0.20815880552,0.17126905847,0.25647363592,0.19791051197,0.2139829625,0.305381704,0.30889201005,0.2873900605,0.2364787085,0.114636192,0.149836038,0.342239028,0.481276673,0.616093073,0.6426542085,0.6174561085,0.6781849585,0.7580546085,0.7739206385,0.536395481,0.254945531,0.090420426,-0.037250114,0.0501246215,0.2115185465,0.2084604845,0.2783490945,1719,"DG_s09",15.969,16.594,17.328,17.328,28,4,10,10,0.734,"Left",28,4,24,24,0,0,-24,0,-24,24,24,"Advent",18,-6,28,10,4,10
"145",8,"POL RAM5-Ref-POL RAM6-Ref",0.185397199,0.28125743641,0.28419305741,0.23427764091,0.26596116591,0.2265758275,0.2385784635,0.21698009,0.1239841015,0.1281229125,0.1014956015,0.155534373,0.5109298115,0.8269251515,0.9509614065,0.921582125,0.5799909785,0.1848959285,-0.0118364715,-0.1067698445,-0.019276258,0.162339937,0.232350848,0.244246181,0.140984451,0.024597956,0.04695995474,0.21667519474,0.37176613474,0.51641143474,0.580681973,0.45017863495,0.36179669995,0.31435124995,0.26938324945,0.2102661875,1720,"DG_s09",18.328,18.938,19.734,19.75,10,10,4,4,0.796,"Left",4,4,0,0,0,0,0,0,0,0,0,"10-10",6,6,10,4,10,4
"146",8,"POL LAM5-Ref-POL LAM6-Ref",-0.42180997855,-0.45539080745,-0.52530160145,-0.480777088,-0.420351408,-0.294609408,-0.200148574,-0.213836671,-0.1796960985,0.0681626015,0.2008634165,0.2117803385,0.258827286,0.00251979500000005,-0.25259907,-0.307689708,-0.341208863,-0.308894822,-0.276995695,-0.329668347,-0.434855392,-0.4922487641,-0.4772584316,-0.4953128316,-0.5332136316,-0.5685177195,-0.579523229,-0.4240102475,-0.2778541475,-0.1876677875,-0.0122661375,0.038987381,0.00483990100000004,0.002590551,-0.132180627,-0.2278719275,1720,"DG_s09",18.328,18.938,19.734,19.75,10,10,4,4,0.796,"Left",4,4,0,0,0,0,0,0,0,0,0,"10-10",6,6,10,4,10,4
"147",8,"POL LAM6-Ref-POL LAM7-Ref",0.1970550825,0.2590353945,0.28372706,0.2141692025,0.0571019825,-0.0355759795,-0.092406995,-0.076305945,0.0520506965,0.1728943065,0.270828914,0.333350434,0.346297049,0.282718183,0.2258937825,0.2565910101,0.2738915241,0.4302512801,0.5799050731,0.5853219555,0.60686513,0.59083978,0.57914128,0.551896015,0.4926663255,0.4142205105,0.2906759105,0.1840841455,0.14253274,0.105583382,0.14510381652,0.33413356652,0.39020178602,0.36260490052,0.384629196,0.3137358055,1720,"DG_s09",18.328,18.938,19.734,19.75,10,10,4,4,0.796,"Left",4,4,0,0,0,0,0,0,0,0,0,"10-10",6,6,10,4,10,4
"148",8,"POL ROF1-Ref-POL ROF2-Ref",-0.407399271,-0.5375582785,-0.583260947,-0.65486345,-0.594294487,-0.47649216,-0.434698533,-0.307753008,-0.228203521,-0.130951948,0.020763825,-0.069700582,-0.201187632,-0.2112998465,-0.1716956465,-0.1302169568,-0.0270775608,-0.0744316893,-0.2723313393,-0.342566497,-0.4192481155,-0.3965691825,-0.42160513,-0.390286771,-0.2234650485,-0.2221401895,-0.261014192,-0.197236681,-0.217895381,-0.01877838,0.31273052,0.37366905,0.30434015345,0.09827907068,-0.04402267932,-0.07055057932,1720,"DG_s09",18.328,18.938,19.734,19.75,10,10,4,4,0.796,"Left",4,4,0,0,0,0,0,0,0,0,0,"10-10",6,6,10,4,10,4
"149",8,"POL LAM1-Ref-POL LAM2-Ref",0.419105461,0.434231511,0.583619027,0.60752758235,0.40923458735,0.25028729735,0.07235844735,-0.04921741,-0.181286365,-0.234333389,-0.086122529,0.248280671,0.549915471,0.66198174,0.5662091774,0.3361182124,0.2351888824,0.1459128634,0.16754019895,0.31969951395,0.40298099395,0.64845975795,0.729962375,0.611192775,0.5312985095,0.2644010095,0.1247243045,0.0219583845,-0.0690958615,0.1366038385,0.4250995435,0.5772876135,0.671169125,0.663941375,0.501101475,0.445068475,1720,"DG_s09",18.328,18.938,19.734,19.75,10,10,4,4,0.796,"Left",4,4,0,0,0,0,0,0,0,0,0,"10-10",6,6,10,4,10,4
"150",8,"POL RAM4-Ref-POL RAM5-Ref",-0.0972889744,-0.1115671449,-0.09801692815,-0.10616094545,0.0132386802,0.0951175802,0.1760460402,0.1810531375,0.0783757025,0.0738834525,0.00668822965,0.01591318515,0.34787882015,0.60717017015,0.65602916765,0.60491905965,0.32115150965,-0.00840497635,-0.158963451,-0.2441913035,-0.213497237,0.00882249900000001,0.1669219645,0.2752530835,0.213449317,0.051543467,0.0825493015,0.1444525275,0.08991014,0.04119440165,-0.06929044215,-0.13852432915,-0.02693119165,0.1384047967,0.0979525895,0.0024720325,1720,"DG_s09",18.328,18.938,19.734,19.75,10,10,4,4,0.796,"Left",4,4,0,0,0,0,0,0,0,0,0,"10-10",6,6,10,4,10,4
"151",8,"POL RAM3-Ref-POL RAM4-Ref",-0.5459061671,-0.5562770171,-0.5029354256,-0.3816833256,-0.3221721329,-0.3167337829,-0.4320468744,-0.5014414244,-0.5119298011,-0.3076005011,-0.0580459511,0.0951824489,0.2152619829,0.0942269729,-0.0421193831,-0.1244173266,-0.2739221866,-0.3329339266,-0.3721400206,-0.4390607976,-0.2810476376,-0.1783345551,-0.1786913051,-0.1041278046,-0.0075204046,0.2520560629,0.3918365064,0.3036646764,0.0373016764,-0.3378188246,-0.3887659631,-0.32854952645,-0.1560587993,0.1338367017,0.1546446032,0.14775029905,1720,"DG_s09",18.328,18.938,19.734,19.75,10,10,4,4,0.796,"Left",4,4,0,0,0,0,0,0,0,0,0,"10-10",6,6,10,4,10,4
"152",8,"POL ROF3-Ref-POL ROF4-Ref",0.25409976315,0.13942956315,0.1945002765,0.164879308,0.087446258,0.1316019358,0.08110392255,0.08307154955,0.21892650955,0.21898006175,0.1630144385,0.1405883785,0.0992925185,0.09318445605,0.17387403105,0.2147143748,0.27473774775,0.3072092822,0.2014092572,0.08046781345,0.0477561375,0.1435063405,0.2928233905,0.5109793905,0.5396184864,0.4281216414,0.2837825414,0.1773406749,0.1627482595,0.2629096195,0.4983524695,0.593932486,0.7666341585,0.8871842435,0.8924535935,0.9320292935,1720,"DG_s09",18.328,18.938,19.734,19.75,10,10,4,4,0.796,"Left",4,4,0,0,0,0,0,0,0,0,0,"10-10",6,6,10,4,10,4
"153",8,"POL ROF4-Ref-POL ROF5-Ref",0.1658468565,-0.0844685725,-0.1243102725,-0.077896233,-0.010265108,0.00796319314999996,-0.14585952685,-0.24832330685,-0.30587614485,-0.246262507,-0.086106687,0.00292329299999999,0.0514941235,-0.0708618365,-0.2519744365,-0.3703450365,-0.396038868,-0.318127618,-0.209590118,-0.19957366735,-0.25576816835,-0.29176399635,-0.39150129635,-0.408957747,-0.444960867,-0.482255729,-0.42151993755,-0.32971093755,-0.21653845505,-0.15639976405,-0.0930647555,-0.0919214105,0.022650507,0.174735256,0.136141716,0.109391591,1720,"DG_s09",18.328,18.938,19.734,19.75,10,10,4,4,0.796,"Left",4,4,0,0,0,0,0,0,0,0,0,"10-10",6,6,10,4,10,4
"154",8,"POL RPC5-Ref-POL RPC6-Ref",-0.2239650735,-0.234154988,-0.143210838,0.042666362,0.129950612,0.2052941365,0.2484656815,0.2449556815,0.4014105315,0.4315087815,0.4301798315,0.3835953565,0.1609703424,0.1747778924,0.1195351974,0.0249234459,0.04198270692,0.05144820692,0.11406665192,0.11205333412,0.0505559372,-0.1415266628,-0.3617387628,-0.4370009185,-0.3941428671,-0.2924268421,-0.1590901586,-0.1266206286,-0.20259858,-0.2483581905,-0.213607024,-0.1495067965,-0.1227032965,-0.146070361,-0.201504918,-0.2234992685,1720,"DG_s09",18.328,18.938,19.734,19.75,10,10,4,4,0.796,"Left",4,4,0,0,0,0,0,0,0,0,0,"10-10",6,6,10,4,10,4
