"","trial","electrodes","bin_1","bin_2","bin_3","bin_4","bin_5","bin_6","bin_7","bin_8","bin_9","bin_10","bin_11","bin_12","bin_13","bin_14","bin_15","bin_16","bin_17","bin_18","bin_19","bin_20","bin_21","bin_22","bin_23","bin_24","bin_25","bin_26","bin_27","bin_28","bin_29","bin_30","bin_31","bin_32","bin_33","bin_34","bin_35","bin_36","X","SID","newround_time","choice_time","buttonpress_time","reveal_time","self_payoff","other_payoff","self_foregone","other_foregone","RT","side_chosen","self_var_payoff","other_var_payoff","ineq_var_abs","ineq_choice_abs","ineq_foregone_abs","ineq_disadvent","ineq_advent","ineq_disadvent_choice","ineq_advent_choice","ineq_var","ineq_choice","chose_equality","self_diff","other_diff","L_self","R_self","L_other","R_other"
"1",2,"POL RPC5-Ref-POL RPC6-Ref",0.15825921995,0.23257420495,0.26021482295,0.22500807865,0.27173811515,0.30836807635,0.31704396535,0.38990261015,0.50740201365,0.62352983195,0.72833476395,0.73436536395,0.72178846395,0.63221271695,0.58870951995,0.53700848495,0.41592386895,0.41062776095,0.34904053095,0.29016063345,0.38566472945,0.42624775495,0.45489643195,0.51332873945,0.48058265945,0.53483459445,0.46999524345,0.34989370845,0.32142848645,0.25063478645,0.35532214745,0.49224584745,0.4280566351,0.4263950781,0.3654771786,0.2703118241,1714,"DG_s09",3,3.625,4.797,4.797,12,12,10,10,1.172,"Left",12,12,0,0,0,0,0,0,0,0,0,"Equal",2,2,12,10,12,10
"2",2,"POL RPC4-Ref-POL RPC5-Ref",0.3388409425,0.347948647,0.5881953845,0.491632411,0.5073393655,0.5457430745,0.3818556634,0.5507629069,0.6615645269,0.8493730969,0.891475098,0.759913933,0.689721637215,0.530643937215,0.542948597215,0.569641562215,0.63161854,0.80154499,0.85242104,0.92260399,0.96249499,0.80134299,0.72409098,0.6166133935,0.4048653435,0.320570181185,0.257158086585,0.205703573085,0.265155005085,0.2379881474,0.3568768835,0.4169141395,0.4428966,0.425885275,0.2561542785,0.235835638,1714,"DG_s09",3,3.625,4.797,4.797,12,12,10,10,1.172,"Left",12,12,0,0,0,0,0,0,0,0,0,"Equal",2,2,12,10,12,10
"3",2,"POL RHP6-Ref-POL RHP7-Ref",0.3969924545,0.234703797,0.2582491185,0.281519184,0.318561434,0.446938461,0.503436701,0.5927617455,0.4314189255,0.283490517,0.301016421,0.131277871,0.159753616,0.107656005,0.061989885,0.1525460155,0.231461726,0.3217740875,0.2772496575,0.232041072,0.171115135,0.2552553735,0.3697262235,0.4133686985,0.392934063,0.29570767225,0.23135075925,0.28522620425,0.3022687245,0.28733706025,0.22799045325,0.16001834125,0.104585108,0.117911671,0.208240691,0.2480929635,1714,"DG_s09",3,3.625,4.797,4.797,12,12,10,10,1.172,"Left",12,12,0,0,0,0,0,0,0,0,0,"Equal",2,2,12,10,12,10
"4",2,"POL ROF2-Ref-POL ROF3-Ref",-0.5474113555,-0.6781636645,-0.71432185,-0.624223874,-0.428329551,-0.424244637,-0.451291687,-0.578858812,-0.499603757,-0.410792192,-0.241408847,-0.16702829,-0.304139319,-0.525095319,-0.6204199765,-0.4826610935,-0.3632184425,-0.1411759925,-0.035612155,-0.186010763,-0.32410275205,-0.42155796505,-0.60984799005,-0.67851113655,-0.694676244,-0.7084328865,-0.6011841032,-0.4779211104,-0.4401179339,-0.3044194034,-0.3668232267,-0.488112455,-0.518279874,-0.656508092,-0.706630402,-0.654963911,1714,"DG_s09",3,3.625,4.797,4.797,12,12,10,10,1.172,"Left",12,12,0,0,0,0,0,0,0,0,0,"Equal",2,2,12,10,12,10
"5",2,"POL ROF5-Ref-POL ROF6-Ref",-0.0911321135,0.0945765365,0.2430402015,0.1953860915,0.2159514715,-0.0713719435,-0.3874800935,-0.4377179535,-0.51983410465,-0.49485633065,-0.355830423615,-0.305526125115,-0.319915698965,-0.260130287965,-0.315000031,-0.363392097,-0.38491516,-0.55825443,-0.5343456115,-0.5009021855,-0.40796099995,-0.28989572995,-0.35062756245,-0.39481611595,-0.517465391,-0.481496061,-0.460461894,-0.452732509,-0.4647012644,-0.492396501,-0.451589186,-0.346065191,-0.2606735931,-0.1280385565,-0.0222630335,-0.00927401350000001,1714,"DG_s09",3,3.625,4.797,4.797,12,12,10,10,1.172,"Left",12,12,0,0,0,0,0,0,0,0,0,"Equal",2,2,12,10,12,10
"6",2,"POL LAM5-Ref-POL LAM6-Ref",0.0969452845,0.171749341,0.2129365785,0.1602305285,0.4089256635,0.5096558175,0.39351806,0.294964035,0.0784361745,0.1103211745,0.101083672,0.00833877050000001,-0.0060811825,-0.1523339955,-0.2354178455,-0.297435369,-0.3715402555,-0.4965017425,-0.4709593655,-0.2051399655,-0.00865056550000001,0.2603661845,0.3116616575,0.1243742575,0.1498523075,0.0488171075,0.1244673675,0.1631960555,-0.04306360945,-0.12989822595,-0.23121742795,-0.21503341595,-0.054933351,0.2653210155,0.4587380675,0.5832788675,1714,"DG_s09",3,3.625,4.797,4.797,12,12,10,10,1.172,"Left",12,12,0,0,0,0,0,0,0,0,0,"Equal",2,2,12,10,12,10
"7",2,"POL LAM6-Ref-POL LAM7-Ref",-0.01779694115,-0.02838853015,0.03579311985,0.18275346985,0.41984220135,0.51513312685,0.42924912685,0.24170846985,-0.0355910459,-0.2001197274,-0.24542632715,-0.34012900665,-0.3993130859,-0.4201077044,-0.50156892465,-0.4550029331,-0.4624352381,-0.3487608581,-0.3101711086,-0.20646147015,-0.17135932965,-0.19429138965,-0.13639562915,-0.12157967265,0.07571393185,0.19266776185,0.16061856335,-0.03378828665,-0.17087189915,-0.36499244115,-0.35676496365,-0.15704886365,0.08003200385,0.41272754585,0.67720672685,0.72118587685,1714,"DG_s09",3,3.625,4.797,4.797,12,12,10,10,1.172,"Left",12,12,0,0,0,0,0,0,0,0,0,"Equal",2,2,12,10,12,10
"8",2,"POL LAM3-Ref-POL LAM4-Ref",0.08096122745,0.19548288045,0.31693485095,0.34759980045,0.39294953495,0.36164559095,0.14550450995,0.08000914295,0.07177541295,0.07362668745,0.14304943235,0.22112417835,0.21202465935,0.13099941485,0.12426410545,0.07729377395,0.17561419295,0.30822061345,0.51183670895,0.55756530045,0.47934760045,0.41768308545,0.18558660245,0.18777378745,0.0821484075,0.00441099845,-0.0429771737,-0.1693723987,-0.14340616875,-0.1460366947,-0.08963792955,-0.0518962395,-0.0692606595,-0.0920683208,-0.0541581743,0.0989501896,1714,"DG_s09",3,3.625,4.797,4.797,12,12,10,10,1.172,"Left",12,12,0,0,0,0,0,0,0,0,0,"Equal",2,2,12,10,12,10
"9",2,"POL ROF4-Ref-POL ROF5-Ref",-0.0410835575,0.155249338,0.309386548,0.3409086825,0.4340964425,0.3400558625,0.307337231,0.352082338,0.223431585,0.078864465,-0.0528903415,-0.0794321335,-0.10533465445,-0.00895844805000001,0.01777273495,-0.01368484805,0.0188445484,-0.012401606,0.106121949,0.086901268,-0.0458388895,-0.1450662915,-0.160500924,-0.064611163,0.010604632,0.2513743055,0.163971418,0.021832327,-0.00774086800000001,-0.1009385855,-0.1329007655,-0.1293032385,0.0806137115,0.1789863005,0.27693201405,0.43255453705,1714,"DG_s09",3,3.625,4.797,4.797,12,12,10,10,1.172,"Left",12,12,0,0,0,0,0,0,0,0,0,"Equal",2,2,12,10,12,10
"10",2,"POL RPC2-Ref-POL RPC3-Ref",0.0226067114,0.0237963964,0.0786588763,0.1770283548,0.1836380548,0.2614128398,0.3683241663,0.1642436444,0.1792310444,0.3277200994,0.2517293984,0.2184268653,0.0920892103,-0.1941128497,-0.2068271487,0.0775382063,0.1499882383,0.3423297983,0.3853112483,0.3248043483,0.3239619838,0.0627775338,-0.1930222662,-0.4800763162,-0.5610847987,-0.5497570987,-0.4618709102,-0.3479521047,-0.3218702717,-0.1694022312,-0.1556613447,-0.0885029052,-0.0747381222,-0.2571571627,-0.2062257377,-0.2915321837,1714,"DG_s09",3,3.625,4.797,4.797,12,12,10,10,1.172,"Left",12,12,0,0,0,0,0,0,0,0,0,"Equal",2,2,12,10,12,10
"11",2,"POL RAM6-Ref-POL RAM7-Ref",-0.21098019015,-0.20340848215,0.16419511785,0.34111951465,0.36114819075,0.54100548775,0.47839293775,0.57815535775,0.65722919975,0.63459984475,0.51488669525,0.45689592025,0.48637928525,0.45395683525,0.44268678475,0.25607473925,0.08311570725,0.13698635725,0.09168789725,0.16261271775,0.25802980775,0.15934462275,0.06699138275,0.08125798025,0.11741886775,0.23163355275,0.37045473145,0.30636575395,0.39222355345,0.30034126845,0.30211363975,0.37178916975,0.27784909975,0.36789938475,0.39558298475,0.36324871875,1714,"DG_s09",3,3.625,4.797,4.797,12,12,10,10,1.172,"Left",12,12,0,0,0,0,0,0,0,0,0,"Equal",2,2,12,10,12,10
"12",2,"POL LAM1-Ref-POL LAM2-Ref",0.05984534535,0.1478027935,0.192697332235,0.290955082235,0.583455757235,0.648791085585,0.64278848035,0.56411768035,0.361133816,0.2592244065,0.1320965795,0.0578337245,0.01434167685,0.25114945635,0.37773837135,0.40233031185,0.33471817385,0.07626748335,0.03583729535,-0.08226386015,0.05036741635,0.04799626685,0.01605232985,0.15913626335,-0.03086846315,0.00437109334999999,0.11567101835,0.10205945985,0.17810451885,0.14320223735,0.07367761235,0.02425749435,0.09111678135,0.20567504635,0.19954670385,0.23547079095,1714,"DG_s09",3,3.625,4.797,4.797,12,12,10,10,1.172,"Left",12,12,0,0,0,0,0,0,0,0,0,"Equal",2,2,12,10,12,10
"13",2,"POL RPC3-Ref-POL RPC4-Ref",0.1179242838,0.1033475159,0.1711035975,0.0751662075,0.110753123,0.077569698,-0.0199712685,-0.012470856,0.1586125985,0.3536538035,0.3467294855,0.378057313,0.292466513,0.192507283,0.2327466175,0.2513863675,0.2664571675,0.228862027,0.377252727,0.372998277,0.242129297,0.1133243675,-0.1713156675,-0.1960103765,-0.1919551265,-0.10227520875,-0.03775855775,-0.13644165325,-0.16689962825,-0.0522125665,-0.071714101,-0.0881694065,0.1223274985,-0.061617356,-0.0667518245,-0.2248176645,1714,"DG_s09",3,3.625,4.797,4.797,12,12,10,10,1.172,"Left",12,12,0,0,0,0,0,0,0,0,0,"Equal",2,2,12,10,12,10
"14",2,"POL RAM5-Ref-POL RAM6-Ref",-0.365022255,-0.3645949965,-0.32183498505,-0.11036108505,-0.00412438704999998,0.09345332595,0.206214995,0.166945395,0.0817620016,-0.0553158249,-0.2087688204,-0.1857469154,-0.11338311985,-0.10306586985,-0.13907261985,-0.30130007485,-0.554163757,-0.573397807,-0.424151755,-0.363073754,-0.2302369625,-0.1938361625,-0.2713587495,-0.3652049405,-0.264351397,-0.23193029275,-0.16207030775,-0.1166429236,-0.1429106211,-0.12152055985,-0.13151282485,-0.023446961,-0.0644646505,0.112290584,0.214871449,0.1931300038,1714,"DG_s09",3,3.625,4.797,4.797,12,12,10,10,1.172,"Left",12,12,0,0,0,0,0,0,0,0,0,"Equal",2,2,12,10,12,10
"15",2,"POL LAM2-Ref-POL LAM3-Ref",0.0419903078,-0.1198977372,-0.0882709435,0.1875558565,0.311427326,0.535645371,0.6885642815,0.5398316315,0.4954206315,0.4449097575,0.2909502375,0.2627676525,0.0754648525,-0.017507836,0.000596902899999998,-0.1067724316,0.1529885684,0.1047040059,0.028181536,0.09931031715,-0.07578294585,-0.11953360985,-0.11274118635,-0.051482043,-0.0624823505,0.037384845,0.1240502025,0.0987029725,0.152524903,0.1253948095,0.141065899,0.128119278,0.301065368,0.47319087,0.423016858,0.541530854,1714,"DG_s09",3,3.625,4.797,4.797,12,12,10,10,1.172,"Left",12,12,0,0,0,0,0,0,0,0,0,"Equal",2,2,12,10,12,10
"16",2,"POL RHP4-Ref-POL RHP5-Ref",-0.239692139,-0.238496684,-0.042883213,-0.0845846055,-0.162313365,-0.259889714,-0.3164290585,-0.1927908035,-0.14984712,-0.140642899,-0.0321562545,-0.031787866,-0.1069675435,-0.10572694595,-0.44940014595,-0.69601433445,-0.71213027445,-0.7476993055,-0.574010451,-0.301014181,-0.122582076,-0.0414846444999999,-0.059728666,-0.1271767055,-0.2350740455,-0.1597860955,0.0527170215,0.155798891,0.151008756,0.00535573250000004,-0.1217831875,-0.1886728875,-0.1505179125,-0.071633549,-0.151618293,-0.218628426,1714,"DG_s09",3,3.625,4.797,4.797,12,12,10,10,1.172,"Left",12,12,0,0,0,0,0,0,0,0,0,"Equal",2,2,12,10,12,10
"17",2,"POL ROF3-Ref-POL ROF4-Ref",-0.2870858191,-0.3136625805,-0.371922808,-0.320020093,-0.289341473,-0.3962289126,-0.3388854401,-0.3562695131,-0.2832460481,-0.0745294231,0.0566748244,0.1888706834,0.0509847644,-0.1177723106,-0.2691288046,-0.2638944046,-0.108502296,0.035133038,0.260430412,0.152785962,0.1654850524,0.0240879659,-0.0943445011,-0.1573144516,-0.2811022716,-0.2303210291,-0.2751404131,-0.2883058781,-0.3410471681,-0.2857963756,-0.3215940161,-0.3671517506,-0.3133288351,-0.4108920176,-0.4434969911,-0.4461466411,1714,"DG_s09",3,3.625,4.797,4.797,12,12,10,10,1.172,"Left",12,12,0,0,0,0,0,0,0,0,0,"Equal",2,2,12,10,12,10
"18",2,"POL ROF1-Ref-POL ROF2-Ref",0.569515005178,0.797816250178,0.740834976978,0.553908151978,0.544024343478,0.273181134978,0.193483508178,0.315872058178,0.394000806678,0.417482515178,0.317812075678,0.246275189178,0.218391844178,0.347004179178,0.287625708678,0.345103400678,0.340567305678,0.156671530328,0.211588336828,0.176818551328,0.081112193178,0.114593048528,0.203537762028,0.170160301028,0.267740017678,0.138275802678,-0.079100107322,-0.086979406322,-0.162413806822,0.069801493178,0.109577700178,0.085931425178,-0.059634042822,-0.291542407822,-0.199774549322,-0.049236358322,1714,"DG_s09",3,3.625,4.797,4.797,12,12,10,10,1.172,"Left",12,12,0,0,0,0,0,0,0,0,0,"Equal",2,2,12,10,12,10
"19",2,"POL RAM2-Ref-POL RAM3-Ref",-0.0267997631,0.0271508639,-0.0179317031,0.0694854669,0.1237163654,0.3109424884,0.4490211289,0.3326423381,0.3907093221,0.2957329701,0.1330998486,0.2496065544,0.3052293394,0.3546031414,0.4739074779,0.4196493419,0.2992634084,0.1348243884,-0.0562208766,-0.1175815706,-0.1939087771,-0.1750824191,-0.0462223791,-0.0912853066,0.0548717134,0.1828220189,0.1855556699,0.3564983624,0.2659514114,0.15758692735,0.14312124985,0.08954944585,0.14131980435,0.0099666249,-0.0905635096,-0.0471699056,1714,"DG_s09",3,3.625,4.797,4.797,12,12,10,10,1.172,"Left",12,12,0,0,0,0,0,0,0,0,0,"Equal",2,2,12,10,12,10
"20",2,"POL RHP5-Ref-POL RHP6-Ref",-0.1902108725,-0.247516991,-0.2365180487,-0.2909464037,-0.3864332172,-0.2728708687,-0.30532232125,-0.26684917125,-0.23461927625,-0.34667462365,-0.2985545954,-0.2108494484,-0.0710317689,-0.096017071,-0.1348752455,-0.10172088235,-0.12498807335,-0.00563825984999999,-0.00808386484999998,-0.00807263049999998,0.078115781,0.061629452,0.156161067,0.0889766175,0.0581413175,-0.04069722796,-0.19473639396,-0.09795805496,-0.04179575496,-0.00302245604999998,0.06541035995,-0.10594797405,-0.35130427405,-0.318499968,-0.3436653095,-0.3384846595,1714,"DG_s09",3,3.625,4.797,4.797,12,12,10,10,1.172,"Left",12,12,0,0,0,0,0,0,0,0,0,"Equal",2,2,12,10,12,10
"21",2,"POL RPC1-Ref-POL RPC2-Ref",-0.2295516257,-0.3023669307,-0.3196507882,-0.138458852,-0.190566728,-0.189816086,-0.2883664945,-0.469325957,-0.535002391,-0.4927187795,-0.4159112135,-0.350529951,-0.3265696675,-0.3116612415,-0.37765306335,-0.46203115685,-0.45906946885,-0.56376657885,-0.578898933,-0.619590045,-0.575088246,-0.481664806,-0.491454771,-0.3901138085,-0.456346849,-0.518236276,-0.446073581,-0.429649138,-0.3662143935,-0.3926817865,-0.47400145407,-0.65565454257,-0.60863219207,-0.52654460707,-0.49347315155,-0.39103169155,1714,"DG_s09",3,3.625,4.797,4.797,12,12,10,10,1.172,"Left",12,12,0,0,0,0,0,0,0,0,0,"Equal",2,2,12,10,12,10
"22",2,"POL RAM3-Ref-POL RAM4-Ref",0.4886845795,0.5366548095,0.5731052895,0.6630260995,0.5566956995,0.6071952995,0.4099319105,0.2898352005,0.171840605,0.03874042,0.114677686,-0.046073154,-0.12114357615,-0.15764959065,-0.17131619915,-0.12632601715,-0.1047539485,0.028128951,0.0727357995,0.1927915175,0.3434940165,0.4253848165,0.5185830445,0.6349879445,0.5759340695,0.3617540792,0.3330487907,0.2030202307,0.1668932072,0.1902671,0.0146034735,-0.1283898665,-0.058227284,-0.0921558605,0.0782528345,0.3030141845,1714,"DG_s09",3,3.625,4.797,4.797,12,12,10,10,1.172,"Left",12,12,0,0,0,0,0,0,0,0,0,"Equal",2,2,12,10,12,10
"23",2,"POL RAM4-Ref-POL RAM5-Ref",-0.3442365185,-0.4249765705,-0.4405191935,-0.388672551,-0.296782641,-0.232445008,-0.293409043,-0.397889023,-0.5137988,-0.45867616,-0.51464506,-0.481743927,-0.5453648125,-0.7329839425,-0.7532854425,-0.8032588755,-0.920620413,-0.7586626575,-0.538821295,-0.485326035,-0.427858785,-0.47076813,-0.5716301975,-0.488825954,-0.302388154,-0.3679449145,-0.253270943,-0.2712178807,-0.3744988232,-0.29184262495,-0.33078715345,-0.34341415325,-0.26564410575,-0.146666154,-0.062171992,0.098859392,1714,"DG_s09",3,3.625,4.797,4.797,12,12,10,10,1.172,"Left",12,12,0,0,0,0,0,0,0,0,0,"Equal",2,2,12,10,12,10
"24",2,"POL ROF6-Ref-POL ROF7-Ref",-0.8975552845,-0.7071138345,-0.4050871345,-0.290942,-0.266213,-0.35696925,-0.54517715,-0.610966375,-0.729112425,-0.845548425,-1.089327225,-1.1883410875,-1.2166089925,-1.2470158775,-1.0919904625,-1.094098315,-1.189406245,-1.06152561,-1.08662970285,-0.94006401285,-0.78135292785,-0.83122962785,-0.848094377,-0.993584577,-0.905835927,-0.971345534,-0.974559316,-0.900854271,-1.140581118,-1.2146270975,-1.2633458263,-1.2351712303,-1.2970177283,-1.2982285668,-1.152816829,-1.1552851459,1714,"DG_s09",3,3.625,4.797,4.797,12,12,10,10,1.172,"Left",12,12,0,0,0,0,0,0,0,0,0,"Equal",2,2,12,10,12,10
"25",3,"POL LAM6-Ref-POL LAM7-Ref",-0.0147362117,0.1080161183,0.11455840635,0.03970444535,0.06185741535,-0.02760311465,0.1225377953,0.3027303193,0.2194606778,0.1701815198,0.1292010443,-0.0388249857,-0.0703738327,0.0840197053,-0.0157377842,-0.0121340507,0.02486438635,-0.17155314865,-0.15890388165,-0.12281854765,-0.2000183062,-0.0802749922,-0.1042543552,-0.0191278027,0.1678162873,0.1669006633,0.3177927793,0.2341844174,0.1096848770225,0.0318694695225,-0.0655555589775,-0.0728086570775,-0.1246909667,-0.1674755142,-0.1449890497,-0.0735224647,1715,"DG_s09",5.797,6.422,7.688,7.688,10,10,8,8,1.266,"Left",8,8,0,0,0,0,0,0,0,0,0,"10-10",2,2,10,8,10,8
"26",3,"POL ROF2-Ref-POL ROF3-Ref",-0.2508423891,-0.1905819891,0.1623776879,0.260158332,0.045513332,-0.20104526,-0.44784056,-0.530382421,-0.3992399615,-0.250739555,-0.3626904134,-0.4259295934,-0.4359070564,-0.3935811709,-0.1440763625,0.0293652465,0.08400462,-0.0547624057,-0.3298548057,-0.5701396557,-0.6784754857,-0.45715301,-0.370711875,-0.165048625,-0.07729766,-0.2593806195,-0.3277419695,-0.5145214495,-0.6399195545,-0.6889118235,-0.6020540135,-0.4221146629,-0.3915537479,-0.3146886744,-0.3550671539,-0.3287143545,1715,"DG_s09",5.797,6.422,7.688,7.688,10,10,8,8,1.266,"Left",8,8,0,0,0,0,0,0,0,0,0,"10-10",2,2,10,8,10,8
"27",3,"POL LAM5-Ref-POL LAM6-Ref",-0.1906494556,-0.0873361041,-0.00939040410000001,-0.0855720111,-0.1495134551,-0.0664636266,0.1449110734,0.4249953584,0.5329877349,0.5669533299,0.4452724549,0.4242840669,0.3507644659,0.2053740609,0.1377743029,-0.1210378441,-0.11292666085,0.03309711915,0.08749424915,0.10154284915,0.0574592769,-0.0401805946,-0.1055816916,-0.05047936955,0.02616345845,-0.05011847005,-0.05807697005,-0.0288437721,-0.0220194171,-0.0722655171,-0.0711667151,0.0258837999,-0.0340232041,-0.0092333291,0.1300800639,-0.0697904556,1715,"DG_s09",5.797,6.422,7.688,7.688,10,10,8,8,1.266,"Left",8,8,0,0,0,0,0,0,0,0,0,"10-10",2,2,10,8,10,8
"28",3,"POL RPC4-Ref-POL RPC5-Ref",0.01511902135,0.11968104535,0.23633398535,0.226558029,0.1459882795,0.252445189,0.372661899,0.435493701,0.4433880105,0.353686688,0.3377861913,0.4705992413,0.5407260113,0.50683181109,0.39483627579,0.12712167079,-0.03554333421,0.0661851,0.252616432,0.481632687,0.5625152235,0.403270323,0.367973283,0.301289233,0.243198579,0.280418425,0.232461965,0.203237755,0.193364356,0.2976093605,0.2522166605,0.2788820875,0.324286790175,0.239880614475,0.188062738975,0.103469329475,1715,"DG_s09",5.797,6.422,7.688,7.688,10,10,8,8,1.266,"Left",8,8,0,0,0,0,0,0,0,0,0,"10-10",2,2,10,8,10,8
"29",3,"POL LAM2-Ref-POL LAM3-Ref",0.1510656354,0.1867647254,0.1329126488,0.0015337188,-0.10395519145,-0.22093755045,-0.19973445495,-0.11831170895,-0.14518990895,-0.00457421145,0.07726774305,0.04282041105,0.19444935105,0.08610123205,0.08326766955,0.29843405555,0.17812320205,0.18866846005,0.13451766155,-0.11555828845,-0.09871464995,-0.21692298645,-0.21982219145,-0.20267672945,-0.1593424754,-0.0984688754,0.0493732506,0.1336613591,0.18279253355,0.2710606119,0.0398971019,0.0805205999,0.07446603635,0.139320558,0.1640307435,0.067662216,1715,"DG_s09",5.797,6.422,7.688,7.688,10,10,8,8,1.266,"Left",8,8,0,0,0,0,0,0,0,0,0,"10-10",2,2,10,8,10,8
"30",3,"POL RPC5-Ref-POL RPC6-Ref",0.05731935605,0.01660128755,0.12853269905,0.225721577,0.302476477,0.376786387,0.482824014,0.496467859,0.480990109,0.2959544045,0.1772817485,0.1476230985,0.1149395985,0.266723367,0.142124223,0.010997903,-0.016218722,-0.0570389145,0.1389937655,0.2446730305,0.2170929645,0.191829694,0.257791714,0.303529269,0.266963251,0.22287352145,0.15365098795,0.05778698345,0.12004010745,0.447166686,0.4690742695,0.590163924,0.639121659,0.447123309,0.445559309,0.292096571,1715,"DG_s09",5.797,6.422,7.688,7.688,10,10,8,8,1.266,"Left",8,8,0,0,0,0,0,0,0,0,0,"10-10",2,2,10,8,10,8
"31",3,"POL RAM2-Ref-POL RAM3-Ref",0.4686132377,0.4021974975,0.2407514535,0.1505092505,0.1693497845,0.2049226775,0.3476498715,0.308099671,0.223463229,0.2306001185,1.0736539685,1.816599675,1.989696925,2.0523488275,1.2534512775,0.7890121275,0.7327484025,0.7420836755,0.5872453855,0.32317940285,0.31376216785,0.19411490935,0.19445781535,0.127012398,0.040865953,0.231161652,0.303392436,0.364551921,0.4034372965,0.2638915895,0.2499724945,0.29750386445,0.25528543395,0.21077621745,0.15338530245,0.169045311,1715,"DG_s09",5.797,6.422,7.688,7.688,10,10,8,8,1.266,"Left",8,8,0,0,0,0,0,0,0,0,0,"10-10",2,2,10,8,10,8
"32",3,"POL RHP6-Ref-POL RHP7-Ref",-0.111463407,-0.103018342,-0.107380593,-0.151374786,0.0401787025000001,-0.060543312,-0.1214191565,-0.10410743,-0.20645883,-0.1525855805,-0.134393606,-0.142396659,-0.145173159,-0.161874105,-0.28463885,-0.368414886,-0.37692566,-0.334811614,-0.136627707,0.181547304,0.269017478,0.1562978025,0.068315728,-0.228228072,-0.448257772,-0.4114466775,-0.28193421,-0.10705066,0.18292509,0.352377871,0.419624571,0.374796821,0.326570071,0.352627921,0.2045471065,0.168158357,1715,"DG_s09",5.797,6.422,7.688,7.688,10,10,8,8,1.266,"Left",8,8,0,0,0,0,0,0,0,0,0,"10-10",2,2,10,8,10,8
"33",3,"POL ROF3-Ref-POL ROF4-Ref",0.06729976435,0.10126346435,0.38767383585,0.53628092885,0.38773974585,0.19898819085,-0.11674304215,-0.24076286115,-0.23614214115,-0.07852663615,-0.16686705265,-0.09745629415,0.00964010885,-0.04245886115,0.21600328835,0.28937789885,0.40801115885,0.44473482885,0.23578196535,0.11106129035,-0.09807143465,-0.1182342182,-0.0762762602,-0.1060200855,-0.1384195155,-0.21099181695,-0.25030547145,-0.19799092165,-0.14555726975,-0.08511482275,0.00593049725,0.04271303775,0.01352582385,-0.10231174365,-0.07925773415,-0.04518117415,1715,"DG_s09",5.797,6.422,7.688,7.688,10,10,8,8,1.266,"Left",8,8,0,0,0,0,0,0,0,0,0,"10-10",2,2,10,8,10,8
"34",3,"POL RHP4-Ref-POL RHP5-Ref",-0.1187761566,-0.2642520241,-0.1177583291,-0.0301985576,0.1235893705,0.296998838,0.210014842,0.080947645,-0.08332574,-0.297088295,-0.3731355822,-0.4532559452,-0.4987388802,-0.3377918752,-0.284878142,-0.2430010905,-0.2906891705,-0.4312918205,-0.428307621,-0.4343862275,-0.3815089875,-0.3683614685,-0.491972363,-0.3709526145,-0.1867852045,-0.158165879,-0.09760389895,-0.14064527745,-0.28935933095,-0.45055422545,-0.6342974105,-0.7967632155,-0.874228212,-0.777574982,-0.639649091,-0.5323935995,1715,"DG_s09",5.797,6.422,7.688,7.688,10,10,8,8,1.266,"Left",8,8,0,0,0,0,0,0,0,0,0,"10-10",2,2,10,8,10,8
"35",3,"POL RAM5-Ref-POL RAM6-Ref",0.3443267181,0.3713457181,0.4389148431,0.4236733581,0.2888780081,0.1537194551,6.41097349999842e-05,-0.051910616265,-0.135642188615,-0.324702785615,-0.3362169056,-0.3406880756,-0.39171842575,-0.10151637575,-0.0101900804,-0.0132134209,0.0583100866,-0.1141364214,-0.1606942684,-0.1867717269,-0.0330681119,-0.0269064529,-0.0026692059,-0.0594998509,-0.3194273259,-0.3333896285,-0.4416151235,-0.376776186,-0.430481711,-0.4499882644,-0.4750802394,-0.4036979769,-0.1955045419,-0.2260902714,-0.2240175134,-0.26632075032,1715,"DG_s09",5.797,6.422,7.688,7.688,10,10,8,8,1.266,"Left",8,8,0,0,0,0,0,0,0,0,0,"10-10",2,2,10,8,10,8
"36",3,"POL RAM6-Ref-POL RAM7-Ref",0.1673636635,0.154493559,0.0266985565,0.1642315265,0.2633296665,0.319936481,0.408329071,0.399098841,0.399577591,0.348510692,0.45319463285,0.65463021285,0.66792600285,0.6138093318,0.53595833445,0.35217983445,0.38384987695,0.4676464965,0.4428096505,0.4372144605,0.30886082635,0.14091742685,0.01711024935,-0.14228086065,0.041394671,0.159913381,0.271118016,0.327199856,0.180469784,0.302104074,0.30176243145,0.22296644445,0.16727205645,-0.000378213550000006,-0.081854456,0.0466874371,1715,"DG_s09",5.797,6.422,7.688,7.688,10,10,8,8,1.266,"Left",8,8,0,0,0,0,0,0,0,0,0,"10-10",2,2,10,8,10,8
"37",3,"POL ROF6-Ref-POL ROF7-Ref",-0.3674213565,-0.3302991205,-0.2465404855,-0.1531022635,-0.1142460935,-0.2721147185,-0.4249447225,-0.453302124,-0.4019955255,-0.3837078755,-0.4179398255,-0.4876215455,-0.46400865,-0.49045035,-0.49179555,-0.4823702105,-0.4662312855,-0.2479581355,-0.0687796855,0.0977698895,0.00907478950000001,-0.1161925295,-0.1278219945,-0.271496912,-0.288770301,-0.2950148735,-0.31759039945,-0.33000808245,-0.14587475745,-0.23205137595,-0.337934213,-0.313939359,-0.5005405225,-0.3508636475,-0.33714532395,-0.26704939935,1715,"DG_s09",5.797,6.422,7.688,7.688,10,10,8,8,1.266,"Left",8,8,0,0,0,0,0,0,0,0,0,"10-10",2,2,10,8,10,8
"38",3,"POL ROF5-Ref-POL ROF6-Ref",-0.50498971945,-0.52550882945,-0.47763265845,-0.49228371245,-0.578315911,-0.548858079,-0.6444283335,-0.5946095025,-0.5706275195,-0.602427985,-0.483525445,-0.5297804535,-0.5973444115,-0.597414578,-0.774767403,-0.743310055,-0.573882305,-0.493253294,-0.293438254,-0.3367678355,-0.3692379405,-0.3396209045,-0.3094475895,-0.2268343711,-0.1862568161,-0.2818568046,-0.4121716066,-0.485783348,-0.594428104,-0.5551780775,-0.53519096605,-0.39853590205,-0.31918566255,-0.39308575305,-0.4662813675,-0.61178677905,1715,"DG_s09",5.797,6.422,7.688,7.688,10,10,8,8,1.266,"Left",8,8,0,0,0,0,0,0,0,0,0,"10-10",2,2,10,8,10,8
"39",3,"POL RPC2-Ref-POL RPC3-Ref",0.2312876164,0.1860380414,0.1357862319,0.0273553464,0.0345555239,0.0317363049,0.0570844744,0.0926546904,0.0598282014,0.0507886364,0.1236472759,0.2619897854,0.3293053539,0.31787595985,0.30289660985,0.37473678985,0.30490722185,0.3337879249,0.3162602219,0.1350743369,0.1898160127,0.0276447627,-0.0215273683,0.0461682577,0.0132123919,0.1542370719,0.1008355874,0.0668461164,0.1316699339,0.1131079164,0.1865709849,0.2650605649,0.2438672389,0.2555259989,0.1883096194,0.1260753244,1715,"DG_s09",5.797,6.422,7.688,7.688,10,10,8,8,1.266,"Left",8,8,0,0,0,0,0,0,0,0,0,"10-10",2,2,10,8,10,8
"40",3,"POL RAM3-Ref-POL RAM4-Ref",-0.0475794607,-0.05210124235,0.04509509865,0.25402774365,0.1726684852,0.21452234885,0.17727478335,0.07220132235,0.2147554549,0.2511725714,1.1208352269,1.8377653229,1.7675634194,1.7283114494,0.9549887744,0.2759044549,0.3228704524,0.4324078374,0.2939515849,0.2832149099,0.2701815024,0.0568966649,0.0893397369,0.0954523664,0.1591077204,0.1997394304,0.2758083774,0.3156010974,0.1590963569,0.0709225444,-0.0150010601,-0.0470619501,-0.0665322431,0.0523964699,-0.00230379209999999,-0.0762312371,1715,"DG_s09",5.797,6.422,7.688,7.688,10,10,8,8,1.266,"Left",8,8,0,0,0,0,0,0,0,0,0,"10-10",2,2,10,8,10,8
"41",3,"POL RHP5-Ref-POL RHP6-Ref",-0.2359878146,-0.1014865146,-0.1028772846,-0.0423266596,0.1217894842,-0.0184715158,-0.1601054198,-0.3376587698,-0.6152982198,-0.6861622688,-0.5946320168,-0.4228178268,-0.2730860174,-0.21503860575,-0.29360205675,-0.39864379325,-0.48702226265,-0.3445994753,-0.1311260223,-0.1421970023,-0.1837565578,-0.3331528073,-0.5076022844,-0.3780671094,-0.2226914439,-0.1344069444,-0.0333066573,-0.1446111858,-0.2841292118,-0.3306340618,-0.4085607118,-0.3973297203,-0.4290203943,-0.4554820823,-0.4847507483,-0.5406388128,1715,"DG_s09",5.797,6.422,7.688,7.688,10,10,8,8,1.266,"Left",8,8,0,0,0,0,0,0,0,0,0,"10-10",2,2,10,8,10,8
"42",3,"POL ROF4-Ref-POL ROF5-Ref",-0.2174162515,-0.2031296511,-0.1031495161,0.0159168529,-0.1710617521,-0.280852081,-0.505841781,-0.68431695,-0.667598342,-0.683782792,-0.5437136805,-0.4097917746,-0.3909009756,-0.4166174756,-0.5715604371,-0.614609052,-0.429741734,-0.175819034,0.100834726,0.1278287395,0.1614315895,0.0783021395,-0.0969812856,-0.08908088005,-0.17353083005,-0.13773253005,0.03011053505,0.0173933535,-0.0886336595,-0.15642579065,-0.32497963415,-0.36313435115,-0.39152741735,-0.3439432362,-0.1764608427,-0.0907561942,1715,"DG_s09",5.797,6.422,7.688,7.688,10,10,8,8,1.266,"Left",8,8,0,0,0,0,0,0,0,0,0,"10-10",2,2,10,8,10,8
"43",3,"POL RPC1-Ref-POL RPC2-Ref",-0.238973687,-0.098629488,-0.037889563,-0.042223453,-0.0418977075,-0.2087032155,-0.3597668155,-0.4773612445,-0.3542948855,-0.2546360835,-0.2055538135,-0.1039653345,-0.24617307375,-0.218345939,-0.139341487,-0.141290915,-0.06178443075,-0.0588117965,-0.238657985,-0.341322352,-0.3984107915,-0.3216933625,0.071858904,0.110843593,0.0433515375,-0.07648512005,-0.26246322005,-0.10543014205,-0.05034804205,-5.89347999999934e-05,-0.0957319478,-0.2536536878,-0.3017749378,-0.3285574515,-0.370672731,-0.2999479215,1715,"DG_s09",5.797,6.422,7.688,7.688,10,10,8,8,1.266,"Left",8,8,0,0,0,0,0,0,0,0,0,"10-10",2,2,10,8,10,8
"44",3,"POL LAM1-Ref-POL LAM2-Ref",0.269947968,0.2202462499,0.2080951524,0.1149630274,0.0422414554,0.1246518585,0.0300753385,-0.1286326365,-0.1662617595,-0.3098802095,-0.2251436885,-0.0695616755,-0.0504367685,0.03760893,0.038333325,0.000690996999999999,-0.01155516335,-0.02203214035,-0.08284688585,-0.13987867085,-0.1390823505,-0.111265972,0.0829087975,0.1540428575,0.264900363,0.362257563,0.24089326595,0.13020195595,0.06035229495,-0.02238688605,-0.171472589,-0.155928979,-0.0963241555,-0.0435215095,0.09060472595,0.23721458195,1715,"DG_s09",5.797,6.422,7.688,7.688,10,10,8,8,1.266,"Left",8,8,0,0,0,0,0,0,0,0,0,"10-10",2,2,10,8,10,8
"45",3,"POL LAM3-Ref-POL LAM4-Ref",-0.01494898195,0.055666411065,0.174839791065,0.180983219565,0.213232971015,0.187797055,0.16628101,0.2672586875,0.15918792978,0.10884729128,0.00730385178,0.05289643178,0.1940576465,0.3980880965,0.491550201,0.432055621,0.426446269,0.470798839,0.398217625,0.3292313915,0.196082209,-0.065470191,-0.153492992,-0.1658139055,-0.058317738,0.040300316,0.180771646,0.2392877295,0.4269749945,0.4221512455,0.340026686,0.2027945495,-0.026603661,0.026762384,0.0751878935,0.165172031,1715,"DG_s09",5.797,6.422,7.688,7.688,10,10,8,8,1.266,"Left",8,8,0,0,0,0,0,0,0,0,0,"10-10",2,2,10,8,10,8
"46",3,"POL ROF1-Ref-POL ROF2-Ref",-0.1355708565,-0.1554511425,-0.1723516856,-0.1940275131,-0.2181571896,-0.3106930141,-0.3253815031,-0.3851312256,-0.4602525761,-0.3739677926,-0.489508819,-0.533818129,-0.5894052235,-0.6833008605,-0.615788283,-0.5303262845,-0.4334228995,-0.4333598995,-0.4263633145,-0.4527930555,-0.4886229305,-0.42823754,-0.471985729,-0.522048335,-0.5411158145,-0.46522996,-0.4191632385,-0.4124027438065,-0.4986881743065,-0.6200044193065,-0.4740967583065,-0.406856214,-0.267190424,-0.1754037825,-0.297559229,-0.4147022195,1715,"DG_s09",5.797,6.422,7.688,7.688,10,10,8,8,1.266,"Left",8,8,0,0,0,0,0,0,0,0,0,"10-10",2,2,10,8,10,8
"47",3,"POL RPC3-Ref-POL RPC4-Ref",-0.039715374,0.115219562,0.235245301,0.3810311385,0.134252533,-0.0432243735,-0.0965388185,-0.223149603,-0.253758038,-0.2743177315,-0.3594152825,-0.29496072015,-0.03551908515,-0.01849972665,-0.05278048065,0.0984963615,-0.00252063850000001,0.169313703,0.329709853,0.07687481005,-0.12040283995,-0.37138353995,-0.4935394252,-0.50048398225,-0.46788674725,-0.34105611975,-0.4144266165,-0.2651098215,-0.2620903565,-0.321353634,-0.2329507685,-0.1953616635,0.0136974365,0.3245873865,0.452529628,0.3551654545,1715,"DG_s09",5.797,6.422,7.688,7.688,10,10,8,8,1.266,"Left",8,8,0,0,0,0,0,0,0,0,0,"10-10",2,2,10,8,10,8
"48",3,"POL RAM4-Ref-POL RAM5-Ref",0.1014399635,0.2093186635,0.3554378765,0.330524959,0.105724359,-0.156421721,-0.346725543,-0.3034831183,-0.1753663198,-0.1399099733,-0.08607552725,-0.18114947945,-0.25386778595,-0.08005905245,-0.150993018,-0.018178517,0.126197741,0.03790225025,0.08583359175,-0.04957150925,-0.15192284875,-0.257744383,-0.1594032395,-0.04925202766,-0.05053612346,-0.01865606396,-0.15051180496,-0.2831018168,-0.4073203315,-0.4557192575,-0.392617996,-0.198090046,0.012942604,0.122370192,0.033728128,-0.105943372,1715,"DG_s09",5.797,6.422,7.688,7.688,10,10,8,8,1.266,"Left",8,8,0,0,0,0,0,0,0,0,0,"10-10",2,2,10,8,10,8
"49",4,"POL ROF2-Ref-POL ROF3-Ref",-0.204993160605,-0.569731810605,-0.429276113,-0.3706323805,-0.3521792105,-0.2648394567,-0.3974310637,-0.4745212787,-0.3523752867,-0.3683198435,-0.4379743715,-0.5033283695,-0.5992450315,-0.55706325805,-0.43424338805,-0.28235807305,-0.09475717305,0.018465864,-0.0768971995,-0.1080789645,-0.2387006125,-0.3378016595,-0.3765410995,-0.4856353995,-0.5723830015,-0.722402662,-0.7680987085,-0.7626595125,-0.58939982635,-0.29188987635,-0.11721482635,-0.03825899035,-0.081928861,-0.056218861,0.071192239,0.120601727,1716,"DG_s09",8.688,9.313,10.234,10.234,28,4,10,10,0.921,"Left",28,4,24,24,0,0,-24,0,-24,24,24,"Advent",18,-6,28,10,4,10
"50",4,"POL RAM4-Ref-POL RAM5-Ref",-0.2479358126,-0.3272592916,-0.3175343156,-0.2349577946,-0.0270055085,0.00248206299999998,-0.0880913665,-0.1554637695,-0.3245782585,-0.33317844,-0.30844119,-0.345597178,-0.3849034465,-0.31805717,-0.08303017,0.17349948,0.3257524875,0.380433316,0.2391125495,0.1845376495,0.203451609,0.063735446,-0.00900969100000001,-0.0758566095,-0.2328608945,-0.0444411565,0.0310948115,0.11685343,0.195307063,-0.0122561085,-0.0944450795,-0.3366986795,-0.483142187,-0.446282704,-0.3222809975,-0.1363281475,1716,"DG_s09",8.688,9.313,10.234,10.234,28,4,10,10,0.921,"Left",28,4,24,24,0,0,-24,0,-24,24,24,"Advent",18,-6,28,10,4,10
"51",4,"POL ROF5-Ref-POL ROF6-Ref",0.1272332711,0.1411663728,-0.0603483187,-0.2249865172,-0.1555489033,0.00538581099999999,0.0658544895,-0.020592712,-0.223870362,-0.4346145955,-0.378639819,-0.19170546025,-0.02407950675,0.07298412675,0.24431042175,0.2098716305,0.156882345,0.0614148577,-0.2098170973,-0.3666798148,-0.3964299978,-0.4745017105,-0.388995408,-0.258498528,-0.245115201,-0.125547939,-0.1960604115,-0.159124762,-0.012344774,0.107935564,0.283556039,0.3601497095,0.2853101295,0.0941566035,-0.0254068825,-0.1292436015,1716,"DG_s09",8.688,9.313,10.234,10.234,28,4,10,10,0.921,"Left",28,4,24,24,0,0,-24,0,-24,24,24,"Advent",18,-6,28,10,4,10
"52",4,"POL LAM5-Ref-POL LAM6-Ref",0.0950117031,0.0690166056,-0.1444450444,-0.1993039339,-0.13757117,-0.1521208465,0.0188517735,0.0467664765,0.0585966988,0.0923705969,0.04458193445,0.07008273745,0.18631129495,0.22756755835,0.2576605148,0.0968407178,0.0144187078,0.000238957800000002,-0.0820982822,-0.0587498322,-0.1760609872,-0.2033357962,-0.2001635852,-0.1721515852,-0.0956321622,-0.1867658692,-0.0405934737,-0.0998022737,-0.0991834717,0.0921306543,-0.0295056212,0.2637830288,0.2763166288,0.1328869888,0.1301676673,0.0424134773,1716,"DG_s09",8.688,9.313,10.234,10.234,28,4,10,10,0.921,"Left",28,4,24,24,0,0,-24,0,-24,24,24,"Advent",18,-6,28,10,4,10
"53",4,"POL ROF6-Ref-POL ROF7-Ref",0.01969566,-0.005507277,-0.0238747415,-0.0848599975,-0.0735821875,0.052352667,0.0298543495,-0.0799265895,-0.0730304295,-0.1553567405,0.0369681095,0.0675232465,-0.0640368285,-0.053903486,-0.147146786,-0.019839084,0.204583316,0.16219986,0.076842215,-0.127653935,-0.316852981,-0.370925105,-0.46029601,-0.55791381,-0.629603839,-0.643976015,-0.59289383,-0.3723770015,-0.1166416515,-0.0878228265,0.1238644885,0.33004701,0.41146876,0.532837605,0.515030605,0.378759609,1716,"DG_s09",8.688,9.313,10.234,10.234,28,4,10,10,0.921,"Left",28,4,24,24,0,0,-24,0,-24,24,24,"Advent",18,-6,28,10,4,10
"54",4,"POL RHP6-Ref-POL RHP7-Ref",-0.0732974795,-0.021656562,0.03703588,0.259745535,0.31786476,0.36575664,0.3135787225,0.103740215,-0.05440417495,-0.19556975095,-0.17781635445,-0.26289379695,-0.1651571515,-0.072265997,-0.137271791,-0.1615388105,-0.368069666,-0.4028106395,-0.2900832745,-0.079536255,0.07521587187,0.05520921387,0.11068146387,-0.01211269313,-0.0630419555,-0.0952449895,-0.2341008754315,-0.2756350384315,-0.2778070079315,-0.2342448184315,-0.2072158355,-0.2083493505,-0.176223813,-0.1469104092,-0.0509672062,0.014820499156,1716,"DG_s09",8.688,9.313,10.234,10.234,28,4,10,10,0.921,"Left",28,4,24,24,0,0,-24,0,-24,24,24,"Advent",18,-6,28,10,4,10
"55",4,"POL RPC1-Ref-POL RPC2-Ref",-0.3193665625,-0.2700856125,-0.2249914485,-0.1543359015,-0.1481413015,-0.2933872975,-0.4029770685,-0.396980933,-0.378416488,-0.193007504,-0.1212269858,-0.1399257128,-0.1449201328,-0.2646982433,-0.2689903865,-0.2853050625,-0.212389796,-0.0383809695,-0.03538448795,-0.05435688652,-0.01935063052,-0.21843963052,-0.32705335707,-0.337618077,-0.3646672645,-0.1444025545,0.0258317475,0.044171288,-0.044559972,-0.194781569,-0.301752316,-0.171198312,-0.09700108905,-0.07222304105,-0.07242715955,-0.11479211955,1716,"DG_s09",8.688,9.313,10.234,10.234,28,4,10,10,0.921,"Left",28,4,24,24,0,0,-24,0,-24,24,24,"Advent",18,-6,28,10,4,10
"56",4,"POL LAM1-Ref-POL LAM2-Ref",0.7478155985,0.7940547985,0.6129172505,0.42197161,0.1795414316,0.0823107316,0.1896904796,0.1942365476,0.1932276811,0.1963757311,0.0471330216,-0.0167247819,-0.0924660815,-0.256370831,-0.3674018215,-0.3489431605,-0.186524366,-0.1332274425,-0.14363386205,-0.16132318205,-0.35447407705,-0.38457579605,-0.2799871345,-0.28970932,-0.172215825,-0.03704568,0.059064528,0.0638875955,-0.1045974745,-0.2297328389,-0.4012331969,-0.2912182579,-0.0105309379,0.0059617441,0.1577630021,0.0624348021,1716,"DG_s09",8.688,9.313,10.234,10.234,28,4,10,10,0.921,"Left",28,4,24,24,0,0,-24,0,-24,24,24,"Advent",18,-6,28,10,4,10
"57",4,"POL RAM5-Ref-POL RAM6-Ref",0.1063460301,0.0239695901,-0.0950506149,-0.14822881085,0.05562203565,0.12127468725,0.12575354875,0.15596853125,0.12486204825,0.09486227215,0.09572216065,-0.01590089685,-0.19607692885,-0.23811619335,-0.12154283335,0.22370246665,0.33618663165,0.36954099515,0.25977779515,0.03947894715,0.02312634715,0.02770523465,0.13917887465,0.26627082265,0.22504939585,0.36490929385,0.34985315885,0.28168979385,0.28069243965,0.12093356215,0.02617370715,-0.09725152785,-0.000239556850000003,0.08864092065,0.20294826565,0.27916594265,1716,"DG_s09",8.688,9.313,10.234,10.234,28,4,10,10,0.921,"Left",28,4,24,24,0,0,-24,0,-24,24,24,"Advent",18,-6,28,10,4,10
"58",4,"POL LAM6-Ref-POL LAM7-Ref",0.21764400715,0.19500204115,0.05810036115,-0.02055023385,-0.17423902885,-0.26680682935,-0.28779182935,-0.18273952135,-0.07240542335,-0.11018392335,-0.12000522435,-0.20542014785,-0.23854565585,-0.15376626585,-0.17262156485,-0.12167922635,0.03076693365,0.13391959365,0.22827868615,0.30087912315,0.17613305265,0.08908111125,0.14375615775,0.0493130933,-0.0835550862,0.0180380882,0.0644254992,0.03816717965,0.15739864115,-0.00141328135,-0.10818495435,0.04542606465,0.14504200315,0.26034839265,0.27471347045,0.26914032045,1716,"DG_s09",8.688,9.313,10.234,10.234,28,4,10,10,0.921,"Left",28,4,24,24,0,0,-24,0,-24,24,24,"Advent",18,-6,28,10,4,10
"59",4,"POL ROF3-Ref-POL ROF4-Ref",0.1920934446,-0.1550135554,-0.1793774149,-0.184879628,-0.095077811,0.0596985915,0.080356996,0.079140898,0.0896443635,0.101745751,0.071683697,0.00306669625,0.02209457675,0.05649438675,0.05087665855,0.1148083673,0.3137057043,0.4304189643,0.383986261,0.366467576,0.1907923075,-0.0396253715,0.008865997,-0.136655678,-0.3148539595,-0.3481289405,-0.4149398235,-0.347190552,-0.164525647,-0.0806797595,-0.0428770545,-0.040200206,-0.0121745625,0.1327023,0.305800245,0.41240671,1716,"DG_s09",8.688,9.313,10.234,10.234,28,4,10,10,0.921,"Left",28,4,24,24,0,0,-24,0,-24,24,24,"Advent",18,-6,28,10,4,10
"60",4,"POL ROF4-Ref-POL ROF5-Ref",0.16075407715,0.10195843165,-0.05139271835,-0.19931705085,-0.13056637585,0.07368555265,0.24369855765,0.38577749015,0.30827999015,0.17811384015,0.10392145815,0.15305500815,0.10829219815,0.06620687165,0.19972234865,0.05847362465,0.13328353465,0.18293012115,-0.01741886335,-0.19142598935,-0.32631598935,-0.39569439885,-0.33408859035,-0.21870668385,-0.12273818335,-0.04573438935,-0.01299295085,0.12744929265,0.25451529215,0.35690354765,0.35885714515,0.27458028015,0.08465207965,0.0136909463,-0.0557838712,-0.0571653507,1716,"DG_s09",8.688,9.313,10.234,10.234,28,4,10,10,0.921,"Left",28,4,24,24,0,0,-24,0,-24,24,24,"Advent",18,-6,28,10,4,10
"61",4,"POL LAM3-Ref-POL LAM4-Ref",0.2531430125,0.3961346575,0.6477733075,0.6469914525,0.6680322025,0.472001867,0.2626164985,0.1513719985,0.0586613985,0.04618869,0.1558806105,0.19124659,0.23266584,0.278739976,0.161343724,0.0107562945,-0.089661694,-0.037221086,0.0136624846,0.1011519251,-0.0263818864,-0.1238891731,-0.1644435287,-0.1993270992,-0.0266134492,0.0708035675,0.1320697052,0.2856550852,0.2660682917,0.2764675967,0.249919638,0.201198546,0.21376113,0.1211505705,0.2865606765,0.2762430185,1716,"DG_s09",8.688,9.313,10.234,10.234,28,4,10,10,0.921,"Left",28,4,24,24,0,0,-24,0,-24,24,24,"Advent",18,-6,28,10,4,10
"62",4,"POL RHP4-Ref-POL RHP5-Ref",0.1201510645,0.196292559,0.1609621055,0.1468725225,0.111275602,0.080713352,0.034902051,0.1501117315,0.2724023825,0.1097124846,0.10479013345,-0.00935602155,-0.04232773105,-0.05463984365,-0.0477776241,-0.0222129991,-0.1085750056,0.0315319104,0.1330225965,0.1844751465,0.23771292175,0.10578235725,-0.07807944475,-0.09626879325,-0.1390325875,-0.0764781735,-0.021594802,-0.1374975685,-0.1589352335,-0.2135903885,-0.19121434485,-0.13945671785,-0.09040499565,-0.02881795565,-0.1071359688,-0.1495012458,1716,"DG_s09",8.688,9.313,10.234,10.234,28,4,10,10,0.921,"Left",28,4,24,24,0,0,-24,0,-24,24,24,"Advent",18,-6,28,10,4,10
"63",4,"POL RPC5-Ref-POL RPC6-Ref",0.1589270647,0.3145146457,0.2477411392,0.1124038827,0.1345868362,0.0777363542,0.3425041242,0.4677244807,0.4804820007,0.3807496042,0.2087227692,0.2796349692,0.3555831342,0.6009490567,0.7661821417,0.5403529787,0.2799641287,-0.0135697213,-0.3368636713,-0.3211470648,-0.2293809803,-0.2293694803,-0.2390151803,-0.1777445363,-0.1105804958,-0.1275358958,-0.01518537105,0.0439525801,0.0930005051,0.4243488051,0.44838829935,0.2771377107,0.13688178955,-0.15882728045,-0.27003799945,-0.16915865145,1716,"DG_s09",8.688,9.313,10.234,10.234,28,4,10,10,0.921,"Left",28,4,24,24,0,0,-24,0,-24,24,24,"Advent",18,-6,28,10,4,10
"64",4,"POL RPC4-Ref-POL RPC5-Ref",-0.0363066365,0.00618896349999999,0.057044387,0.103307631,0.173859086,0.163004846,0.189624789,0.2565229165,0.2467316865,0.3224841765,0.2827312665,0.2861882165,0.2183505715,0.077934747,0.149266586,0.0492188315,0.168789588,0.1034481125,-0.0328148405,0.076017214,0.0765321525,0.1864852525,0.21713553975,0.06045387475,-0.15009812525,-0.30993312525,-0.3503703185,-0.2336591055,-0.0798335555,0.0682821345,0.1585691625,0.0425796595,-0.094968244,-0.146154322,-0.16038497,-0.08650366,1716,"DG_s09",8.688,9.313,10.234,10.234,28,4,10,10,0.921,"Left",28,4,24,24,0,0,-24,0,-24,24,24,"Advent",18,-6,28,10,4,10
"65",4,"POL RPC3-Ref-POL RPC4-Ref",0.09259487575,-0.02922077925,-0.00711567075,0.03876468425,-0.09831796625,-0.05288393725,0.04700760975,0.13322565975,0.25131731025,0.38066333625,0.36801088375,0.18059598155,0.01692435155,-0.08774376995,-0.20043621895,-0.20119493575,0.02277274425,0.12173655025,0.22003521525,0.32518828425,0.19083953425,0.07236807325,-0.01571609775,-0.00570854775000001,-0.10781285425,-0.21146622775,-0.15276590375,-0.14353335375,-0.05924392725,-0.00542085760000002,0.0798499259,0.0541001259,0.0217617409,0.02463242575,-0.13816272425,-0.21490519925,1716,"DG_s09",8.688,9.313,10.234,10.234,28,4,10,10,0.921,"Left",28,4,24,24,0,0,-24,0,-24,24,24,"Advent",18,-6,28,10,4,10
"66",4,"POL RAM6-Ref-POL RAM7-Ref",0.2153566459,0.1467017218,0.0275648158,-0.000559627100000015,0.1361671804,0.2652580475,0.325128778,0.3609100885,0.318055016,0.280470918,0.2136820985,0.2509650375,0.1602992475,0.157294696,0.167061073,0.1055158235,0.2782405585,0.352888855,0.334070203,0.48718235355,0.33304098405,0.12264994405,0.1363768159,-0.03232024915,-0.08382244965,0.03091619335,0.0796883825,0.0927051225,0.1612918527,0.1061279312,0.0211017002,0.0997848352,0.135869983,0.1055975495,0.1728691075,0.204024941,1716,"DG_s09",8.688,9.313,10.234,10.234,28,4,10,10,0.921,"Left",28,4,24,24,0,0,-24,0,-24,24,24,"Advent",18,-6,28,10,4,10
"67",4,"POL RAM3-Ref-POL RAM4-Ref",0.7715822705,0.5891271705,0.3815764332,0.3583081067,0.4650321707,0.4821197027,0.475148079,0.301631529,0.18449108925,0.37534130725,0.45125866825,0.57867878825,0.597031738,0.398707982,0.3634511195,0.4326809995,0.5772712395,0.6314561155,0.58881366,0.56436691,0.43819961,0.272346607,0.2167022825,0.1646850275,0.15240419795,0.43699118095,0.43855319995,0.33429735495,0.2000613395,0.06826301165,0.27808998515,0.40903652415,0.57179786415,0.628054697,0.578413847,0.648087258,1716,"DG_s09",8.688,9.313,10.234,10.234,28,4,10,10,0.921,"Left",28,4,24,24,0,0,-24,0,-24,24,24,"Advent",18,-6,28,10,4,10
"68",4,"POL RAM2-Ref-POL RAM3-Ref",0.0689852625,0.0486454675,0.065840819,0.152133243,0.2185021455,0.1585441385,0.0332965235,-0.0693062825,-0.1267196875,-0.14148114055,-0.13514573855,-0.16456257255,-0.24377461605,-0.313643736,-0.291119602,-0.213355012,-0.1584262218,-0.03110275845,-0.01668947515,-0.01988476615,-0.08385764185,-0.2102520152,-0.20662166965,-0.20759791715,-0.03959283315,0.16689850185,0.243685397,0.2923203645,0.0521664645,-0.129408487,-0.114544047,-0.110603791,0.205640669,0.1568990455,0.0191004455,-0.082840706,1716,"DG_s09",8.688,9.313,10.234,10.234,28,4,10,10,0.921,"Left",28,4,24,24,0,0,-24,0,-24,24,24,"Advent",18,-6,28,10,4,10
"69",4,"POL RPC2-Ref-POL RPC3-Ref",0.2498506377,0.1097488877,0.1091023972,0.2588395697,0.2910912572,0.24335788645,0.32172723645,0.31052399145,0.37059160645,0.31202807835,0.19325900985,0.06291764985,-0.07873838015,0.0406810487,0.0414839032,0.11128379475,0.24265527675,0.31468079675,0.52872261075,0.4891431382,0.4186241692,0.2918612777,0.1087182127,0.2103410537,0.2148650297,0.0779126192,0.0502484762,0.0173057797,0.0474442407,0.1072491187,0.1784646767,0.2400826232,0.2156353747,0.2684003457,0.1645852117,-0.0462023883,1716,"DG_s09",8.688,9.313,10.234,10.234,28,4,10,10,0.921,"Left",28,4,24,24,0,0,-24,0,-24,24,24,"Advent",18,-6,28,10,4,10
"70",4,"POL ROF1-Ref-POL ROF2-Ref",-0.228326867,-0.1638913655,-0.070081102,0.145672396,0.244164356,0.2544900495,0.1502076095,-0.0289558385,-0.1127059275,-0.1386282995,-0.102522072,-0.0097625965,-0.0391111925,-0.017776378,0.0473851845,0.147989909,0.133598071,0.06184461,0.034182155,-0.032091845,0.0223887161,0.0746171301,-0.0349611349,-0.0246327639,0.029929213,0.0259873395,0.1379355355,0.1470867745,0.0456491295,0.106450939,0.019621328,-0.002766677,0.071628343,0.042801923,0.1262115845,0.0047890795,1716,"DG_s09",8.688,9.313,10.234,10.234,28,4,10,10,0.921,"Left",28,4,24,24,0,0,-24,0,-24,24,24,"Advent",18,-6,28,10,4,10
"71",4,"POL RHP5-Ref-POL RHP6-Ref",-0.4086333803,-0.2945205038,-0.2025424672,-0.1335739277,-0.0213303535,0.0112814465,-0.078225886,-0.0272010155,-0.124888511,-0.396717841,-0.416858554,-0.49034232105,-0.42609230605,-0.31385688735,-0.24700431185,-0.1905782038,-0.2608387073,-0.360743446,-0.4635047325,-0.353775438,-0.340930372965,-0.291788992965,-0.268793897965,-0.488102643465,-0.586825849,-0.5233467815,-0.5270456872,-0.4411966938,-0.2667307498,-0.2704016318,-0.2322707466,-0.32136384,-0.393558382,-0.3105454475,-0.247667582,-0.144465542,1716,"DG_s09",8.688,9.313,10.234,10.234,28,4,10,10,0.921,"Left",28,4,24,24,0,0,-24,0,-24,24,24,"Advent",18,-6,28,10,4,10
"72",4,"POL LAM2-Ref-POL LAM3-Ref",0.124084229,0.150363339,0.154233329,0.206141479,0.186150629,0.188160329,0.161916779,0.115407579,0.177311879,0.110831019,0.116208799,0.172309899,0.044585884,-0.013026191,-0.043837634,-0.238140382,-0.225863715,-0.140807415,-0.1647371235,-0.0807858155,-0.0994011365,-0.1571308325,-0.1423400005,-0.164185208,-0.1669734055,0.0314221255,0.086691465,0.2399221625,0.208101608,-0.064527332,-0.202743362,-0.33816709235,-0.30744356635,-0.23765734535,-0.10004090535,-0.164719046,1716,"DG_s09",8.688,9.313,10.234,10.234,28,4,10,10,0.921,"Left",28,4,24,24,0,0,-24,0,-24,24,24,"Advent",18,-6,28,10,4,10
"73",5,"POL ROF1-Ref-POL ROF2-Ref",0.1323770575,0.0152690775,-0.0375255775,-0.0919235665,-0.11950603,-0.0427084285,0.0164564515,0.0212847615,0.0251651115,-0.019662339,0.062471156,0.096215921,0.1498152466,0.1686683456,0.0693469706,0.0011187406,0.108613832,0.233259782,0.480073432,0.661263919,0.448426152,0.3003937765,0.0137737565,-0.1911764505,-0.0687843595,-0.046515542,0.06711352315,0.2067887747,0.2853122537,0.3197813387,0.25812404355,0.209215701,0.259393531,0.278455474,0.3836649995,0.4457644105,1717,"DG_s09",11.234,11.844,12.781,12.781,22,6,10,10,0.937,"Right",22,6,16,16,0,0,-16,0,-16,16,16,"Advent",12,-4,10,22,10,6
"74",5,"POL RAM6-Ref-POL RAM7-Ref",-0.20443838045,-0.13639302995,-0.26065306495,-0.32086226645,-0.41285830995,-0.50070535545,-0.503680806,-0.488714451,-0.4788127135,-0.3518098185,-0.42577806335,-0.52382661835,-0.52826202985,-0.63239931035,-0.50043755495,-0.39180345545,-0.46389399145,-0.47338350345,-0.39984870845,-0.22183420795,-0.19223675695,-0.30303138945,-0.49690246095,-0.42746681095,-0.17935447695,-0.05816343495,-0.03451646345,-0.31430839495,-0.46226648995,-0.40570718195,-0.29827178595,-0.35290255445,-0.46131233945,-0.52974021245,-0.48251962345,-0.34057598695,1717,"DG_s09",11.234,11.844,12.781,12.781,22,6,10,10,0.937,"Right",22,6,16,16,0,0,-16,0,-16,16,16,"Advent",12,-4,10,22,10,6
"75",5,"POL RPC4-Ref-POL RPC5-Ref",0.05385972865,0.03336380965,0.29142971965,0.21606272515,0.19048882065,0.36832713615,0.38707098615,0.48933326565,0.56716937015,0.57947877015,0.57339267015,0.54396897515,0.39685691515,0.2366218216,0.1389641166,0.1967556116,0.3109776716,0.24656406065,0.18269801065,0.09315545115,0.03728853615,0.09942261115,0.13470581205,0.28290307155,0.18295513005,0.10164555955,0.00993316365,-0.27533948635,-0.27971831985,-0.33489441985,-0.31948969735,-0.20947104435,-0.27524920435,-0.23002580935,-0.25983943185,-0.27551089435,1717,"DG_s09",11.234,11.844,12.781,12.781,22,6,10,10,0.937,"Right",22,6,16,16,0,0,-16,0,-16,16,16,"Advent",12,-4,10,22,10,6
"76",5,"POL RAM3-Ref-POL RAM4-Ref",0.354039207,0.297496116,0.297505538,0.099286398,0.137442221,0.025887158,-0.0510406335,0.2878917115,0.423410926,0.650869075,0.7400595615,0.5287069965,0.390771197,0.236363574,0.2814077075,0.2070645495,0.154636293,0.348270216,0.324566931,0.483314554,0.5207748575,0.431048896,0.350647861,0.35008442635,0.39068314935,0.33772093285,0.37432426635,0.2269759385,0.1997020045,0.2280748575,0.119140734,0.0211867965,-0.05914692,-0.0755524085,-0.038324773,0.07775140345,1717,"DG_s09",11.234,11.844,12.781,12.781,22,6,10,10,0.937,"Right",22,6,16,16,0,0,-16,0,-16,16,16,"Advent",12,-4,10,22,10,6
"77",5,"POL RPC1-Ref-POL RPC2-Ref",-0.1868251645,-0.0564928145,-0.036969762,0.03389995425,-0.00245218025000001,-0.08315778275,0.07900802805,0.2646458118,0.3747453958,0.2744372583,0.2534951465,0.1162233265,0.0711122165,0.188246935,0.000873693499999995,-0.0775793365,-0.014695702,-0.038190884,0.170700836,0.1498280405,0.014284211,-0.1007246355,-0.3287603305,-0.3672887325,-0.367827783,-0.404128083,-0.2758001035,-0.136743341,-0.148249225,-0.0824042985,-0.082579678,-0.1129720772,0.0473660623,0.2122735253,0.2582947728,0.305450357,1717,"DG_s09",11.234,11.844,12.781,12.781,22,6,10,10,0.937,"Right",22,6,16,16,0,0,-16,0,-16,16,16,"Advent",12,-4,10,22,10,6
"78",5,"POL LAM2-Ref-POL LAM3-Ref",-0.5137826429,-0.3205649034,-0.2425504734,-0.3346212504,-0.4204702954,-0.5173700754,-0.52780751695,-0.48276822645,-0.44572591645,-0.57129868645,-0.59126671105,-0.57953454505,-0.64281301005,-0.64420876005,-0.6512976704,-0.6873063434,-0.6244836484,-0.5056060304,-0.3607679839,-0.2364572149,-0.1735394904,-0.2027355224,-0.4030270724,-0.5905121739,-0.630373291155,-0.663945492505,-0.617540357505,-0.552254106505,-0.62516528075,-0.4979234404,-0.4562432794,-0.42839905235,-0.3500892414,-0.3893068514,-0.4489506274,-0.51794492945,1717,"DG_s09",11.234,11.844,12.781,12.781,22,6,10,10,0.937,"Right",22,6,16,16,0,0,-16,0,-16,16,16,"Advent",12,-4,10,22,10,6
"79",5,"POL ROF5-Ref-POL ROF6-Ref",-0.1224858005,-0.00210333450000001,0.0081327405,0.1180461445,0.077274677,0.154462781,0.248494721,0.272865671,0.319288491,0.26360989,0.213788307,0.1399508042,0.0904119822,0.02658033035,-0.07622067165,0.00253390515,0.15472113765,0.3112574205,0.4733205355,0.7228023575,0.7881957575,0.6884612725,0.620637491,0.251559041,0.04193962485,0.10883010985,0.22610774635,0.28732866585,0.378162552,0.2888831366,0.1590459956,0.2549390026,0.3203979826,0.4299934895,0.3814001855,0.126626109,1717,"DG_s09",11.234,11.844,12.781,12.781,22,6,10,10,0.937,"Right",22,6,16,16,0,0,-16,0,-16,16,16,"Advent",12,-4,10,22,10,6
"80",5,"POL ROF6-Ref-POL ROF7-Ref",-0.00468641450000001,0.1391909555,0.2523129378,0.1919478983,0.2006324358,0.1679342193,0.246063183,0.496963233,0.57741420205,0.6259579754,0.6249512844,0.4162775479,0.28906915035,0.2089286485,0.0128168435,0.030002616,0.275714016,0.3815024643,0.6442343143,0.8905223283,0.7869907283,0.954991155,0.86239391,0.5954363535,0.4206364535,0.1836348745,0.153287879,0.1986330495,0.3237584395,0.302866265,0.2203810435,0.197838918,0.086552728,0.1568253465,0.2037335755,0.257853,1717,"DG_s09",11.234,11.844,12.781,12.781,22,6,10,10,0.937,"Right",22,6,16,16,0,0,-16,0,-16,16,16,"Advent",12,-4,10,22,10,6
"81",5,"POL ROF3-Ref-POL ROF4-Ref",0.0623001093,0.2115342593,0.4478357593,0.484104602,0.4377347292,0.3018109442,0.1280333842,0.031773292125,0.052932450425,0.045258279425,0.117408154425,0.2317848965,0.3038722065,0.3054052175,0.252188274,0.1677467215,0.184262146,0.287516341,0.4692865695,0.589364895,0.524102467,0.631101267,0.589669317,0.501797524,0.599984152,0.575500652,0.541465382,0.531077062,0.425591581,0.163219331,0.0906872355,0.2216496755,0.207457246,0.432893346,0.4671496875,0.2560650635,1717,"DG_s09",11.234,11.844,12.781,12.781,22,6,10,10,0.937,"Right",22,6,16,16,0,0,-16,0,-16,16,16,"Advent",12,-4,10,22,10,6
"82",5,"POL ROF4-Ref-POL ROF5-Ref",-0.0828013313,-0.1601700363,-0.1578984863,-0.1287134638,-0.1003489448,0.0685545807,0.1572106247,0.1800648412,0.1411135822,0.1398520582,0.0076423642,0.0345279717,0.0624374497,-0.0432002001,0.1246820099,0.2329990434,0.5594136284,0.6699276017,0.7249542917,0.8022158917,0.5568337417,0.4753899852,0.3984213417,0.1483523867,0.0994097447,0.1317226502,-0.0054765563,-0.0308733098,-0.0066892278,-0.0939235668,-0.0385165618,-0.0317709218,0.000545103199999994,0.1224371067,0.1572154749,0.0884055434,1717,"DG_s09",11.234,11.844,12.781,12.781,22,6,10,10,0.937,"Right",22,6,16,16,0,0,-16,0,-16,16,16,"Advent",12,-4,10,22,10,6
"83",5,"POL RAM5-Ref-POL RAM6-Ref",-0.22726993095,-0.13555286595,-0.06012822395,-0.09966290595,0.09937680605,0.125484529,0.066772897,0.0774926,-0.014568024,0.07178246805,0.16725164105,0.16239716905,0.01257352805,-0.15534558495,-0.17873759995,-0.03567907595,0.06842721755,0.06889345955,0.06823331455,0.01285040955,0.05229494105,0.13175838205,0.10871127205,0.10277687205,0.08868262255,-0.05923244745,-0.16885683595,-0.24855134845,-0.38933622395,-0.38775907395,-0.37848187545,-0.42632501295,-0.39658161295,-0.33053371045,-0.22404135045,-0.18262283285,1717,"DG_s09",11.234,11.844,12.781,12.781,22,6,10,10,0.937,"Right",22,6,16,16,0,0,-16,0,-16,16,16,"Advent",12,-4,10,22,10,6
"84",5,"POL ROF2-Ref-POL ROF3-Ref",0.37254740845,0.26327556345,0.37576768595,0.2787631997,0.21573460175,0.20322786775,0.13087362525,0.1925666815,0.19529497095,0.29512129995,0.34718341295,0.26818612795,0.2122815164,0.1507703334,0.1222566924,0.1543012989,0.14844322895,0.14407587045,0.32211390245,0.64169572095,0.80277508595,0.97158321245,0.87106596245,0.62058171245,0.60371116245,0.39501138405,0.32272306755,0.23509505755,0.12393883905,0.23658859245,0.28138165895,0.42142386895,0.52547543745,0.56464251245,0.62443226245,0.54612898295,1717,"DG_s09",11.234,11.844,12.781,12.781,22,6,10,10,0.937,"Right",22,6,16,16,0,0,-16,0,-16,16,16,"Advent",12,-4,10,22,10,6
"85",5,"POL RPC3-Ref-POL RPC4-Ref",-0.3407013055,-0.2313815755,-0.1506010523,0.0090161077,0.1147618727,0.1374448927,0.2904966695,0.3376686815,0.298466557,0.322353457,0.238439537,0.269461115,0.5445686045,0.5812741845,0.4670023805,0.2541843305,-0.0431124695,-0.1666433145,-0.07783053,-0.061104303,0.0055841525,0.0717791788,0.0343873238,0.0727507448,0.0417543313,0.02161119615,-0.01775715935,-0.03034498735,-0.05100321735,-0.1532529435,-0.0142645915,-0.0259746845,0.0221293385,0.1495569535,0.1185325765,0.202776067,1717,"DG_s09",11.234,11.844,12.781,12.781,22,6,10,10,0.937,"Right",22,6,16,16,0,0,-16,0,-16,16,16,"Advent",12,-4,10,22,10,6
"86",5,"POL RPC2-Ref-POL RPC3-Ref",-0.0608213915,0.0724141965,0.4019307465,0.654386201,0.9130876195,1.0073355815,0.881902851,0.925448401,0.760246672,0.573158774,0.5041741935,0.3452862435,0.4684805725,0.6098682705,0.6644780815,0.5531969623,0.5144966623,0.5544398623,0.5873189158,0.509819478,0.438061658,0.227858888,0.034500908,0.173484746,-0.004738514,0.03773971687,0.11263204337,0.04566903887,0.11847886887,0.11500926,0.084802942,-0.00120959449999999,0.094539476,0.199025574,0.335901692,0.39046814465,1717,"DG_s09",11.234,11.844,12.781,12.781,22,6,10,10,0.937,"Right",22,6,16,16,0,0,-16,0,-16,16,16,"Advent",12,-4,10,22,10,6
"87",5,"POL LAM5-Ref-POL LAM6-Ref",-0.096182991,0.049473879,0.1233607975,-0.0286165225,0.110470017,0.1157949075,0.0726880245,0.18123611,0.2447372585,0.165970468,0.218896251,0.2373467305,0.092351307,0.0824539915,0.0082353555,0.0915175655,0.284480407,0.28221240785,0.38087891385,0.32350914235,0.18758059235,0.1663629925,0.036870847,0.082551787,0.088475717,0.0177296115,0.01579570122,-0.02511709928,0.00429967571999999,0.16668752572,0.3238195615,0.3094525135,0.322779706,0.299373446,0.1346266195,0.140248774,1717,"DG_s09",11.234,11.844,12.781,12.781,22,6,10,10,0.937,"Right",22,6,16,16,0,0,-16,0,-16,16,16,"Advent",12,-4,10,22,10,6
"88",5,"POL RPC5-Ref-POL RPC6-Ref",0.3161009303,0.3808501303,0.5539257008,0.4998381648,0.5809470148,0.5221543848,0.35401791525,0.45239214525,0.43306189525,0.58790812525,0.7590941848,0.7971410348,0.7306887008,0.6292693878,0.5504399578,0.4369553328,0.4267857668,0.3123257008,0.3493027308,0.32172394425,0.16295047425,0.03527480325,-0.05311615825,0.0014514313,0.0463123318,0.0880862318,0.0537647753,0.0347677473,-0.0125467899,-0.0447849399,-0.0508136597,-0.1810695097,-0.147316919,0.035150581,0.040865245215,0.182066498215,1717,"DG_s09",11.234,11.844,12.781,12.781,22,6,10,10,0.937,"Right",22,6,16,16,0,0,-16,0,-16,16,16,"Advent",12,-4,10,22,10,6
"89",5,"POL RAM2-Ref-POL RAM3-Ref",0.04761095215,0.15829796715,0.24513162465,0.18384994735,0.22904248435,0.05080198435,0.066655727335,0.086289614335,0.084857140835,0.187186212335,0.17063174035,0.20664652435,0.17362172835,0.05793316485,-0.03497049965,-0.05161505915,0.00222428085,0.18708797785,0.12124105385,-0.000371097649999999,-0.04106556165,-0.07833232165,0.15382819835,0.33955519835,0.33943735235,0.18061320735,0.03879962035,-0.01679527717,-0.00938692167000001,0.11240896983,0.12110531633,0.07521081385,-0.04069093615,-0.15244637765,-0.15810378715,-0.19310601715,1717,"DG_s09",11.234,11.844,12.781,12.781,22,6,10,10,0.937,"Right",22,6,16,16,0,0,-16,0,-16,16,16,"Advent",12,-4,10,22,10,6
"90",5,"POL RHP4-Ref-POL RHP5-Ref",-0.21784297025,-0.35126430025,-0.32550489385,-0.15333988885,-0.10643874635,0.07900367065,0.13788531075,0.04542238275,0.06961644275,0.00646718425000001,-0.11095997625,0.02463424675,0.11460484425,0.15379687075,0.279119353815,0.165206593315,0.103000056815,0.143000706815,0.20843583775,0.22895675575,0.30856414225,0.27242855725,0.35409400725,0.35694091475,0.13659812175,-0.01514778325,-0.12519793075,-0.17892415875,-0.18863921575,-0.07054929515,-0.19311841665,-0.25475283765,-0.21076663765,-0.25380488825,-0.26601920235,-0.13618976335,1717,"DG_s09",11.234,11.844,12.781,12.781,22,6,10,10,0.937,"Right",22,6,16,16,0,0,-16,0,-16,16,16,"Advent",12,-4,10,22,10,6
"91",5,"POL RAM4-Ref-POL RAM5-Ref",-0.23591305695,-0.3103859226,-0.3094371476,-0.29085861109,0.02493218891,0.09441991906,0.18514809406,0.29032122505,0.10579271255,0.0529667125,-0.00857844575,-0.13809316325,-0.1332860299,-0.16125800385,-0.1339177576,-0.0477850521,-0.03346404345,-0.03260480995,-0.00102435195,-0.15682439695,-0.18945486145,-0.14000878245,-0.12011264345,0.03003316655,0.11395573555,0.03278723855,-0.01485234495,-0.03377213995,-0.10347132695,-0.06998435695,-0.14908912845,-0.23419509895,-0.25570832345,-0.18626693245,-0.09799915245,-0.12062539195,1717,"DG_s09",11.234,11.844,12.781,12.781,22,6,10,10,0.937,"Right",22,6,16,16,0,0,-16,0,-16,16,16,"Advent",12,-4,10,22,10,6
"92",5,"POL RHP5-Ref-POL RHP6-Ref",-0.259710549,-0.187677389,-0.208169809,-0.153697812,-0.041551933,0.0822671381,0.2852098406,0.3019564916,0.3745720776,0.377073584,0.2233251815,0.252409441,0.105012901,0.0156155875,-0.0590111925,-0.0570748945,-0.01837279,0.078423136,0.306487586,0.368150621,0.2728837165,0.0673520415,-0.03834019405,-0.03698643895,0.07795711255,0.14317421105,0.1539522331,0.14175692885,0.07157968485,-0.03773318865,-0.09067927015,-0.2289484575,-0.26882804,-0.154549855,-0.09657568,-0.011832489,1717,"DG_s09",11.234,11.844,12.781,12.781,22,6,10,10,0.937,"Right",22,6,16,16,0,0,-16,0,-16,16,16,"Advent",12,-4,10,22,10,6
"93",5,"POL LAM3-Ref-POL LAM4-Ref",-0.186950343,-0.103242107,-0.083198445,-0.0269044625,0.1450503555,0.153272087,0.078750504,-0.0587528785,-0.3188346595,-0.389647866,-0.223710616,-0.051157028575,0.122056426425,0.162339636425,0.165698636425,0.081427975,-0.00113233,0.0249275905,0.0260130905,0.11556151285,0.12563406785,0.04787905185,0.09117804685,0.06892442165,0.17962390265,0.1995426333,0.0726692723,0.10623206165,0.18805877565,0.3250549605,0.4415212265,0.602518364,0.4886197875,0.3155382175,0.2571703275,0.1579864275,1717,"DG_s09",11.234,11.844,12.781,12.781,22,6,10,10,0.937,"Right",22,6,16,16,0,0,-16,0,-16,16,16,"Advent",12,-4,10,22,10,6
"94",5,"POL LAM6-Ref-POL LAM7-Ref",-0.1390088305,-0.11081871015,-0.0834561379,-0.1223909769,0.1052598166,0.2013409911,0.1642593616,0.1588789815,-0.0104643655,-0.049767568,-0.0244568485,0.1093580081,0.2199343551,0.2437994276,0.1480499051,-0.0080021689,-0.1195295839,-0.2355930679,-0.1193556789,0.0172426841,-0.0188785894,-0.0286587904,-0.1363410454,-0.2783348184,-0.1992834874,-0.1853174454,-0.0878271204,0.1198134796,0.1018674606,0.1960298786,0.1720362361,0.1054549861,0.2312907761,0.1192449461,0.113418086,0.119066836,1717,"DG_s09",11.234,11.844,12.781,12.781,22,6,10,10,0.937,"Right",22,6,16,16,0,0,-16,0,-16,16,16,"Advent",12,-4,10,22,10,6
"95",5,"POL LAM1-Ref-POL LAM2-Ref",-0.341023185,-0.317900561,-0.312137812,-0.308160512,-0.27001133505,-0.27485967005,-0.32816934305,-0.39593784605,-0.376109013,-0.256295792,-0.089917562,0.039394491,-0.0970262695,-0.2007128595,-0.26232373145,-0.46834073145,-0.43448702645,-0.4030576277,-0.42999324175,-0.44937518525,-0.39471709525,-0.23887796,-0.295459304,-0.281927661,-0.346897715,-0.54063721,-0.4090411095,-0.305492922,-0.386267853,-0.3062860175,-0.4240413985,-0.4526690205,-0.463919037,-0.4771868855,-0.425914778085,-0.499409688085,1717,"DG_s09",11.234,11.844,12.781,12.781,22,6,10,10,0.937,"Right",22,6,16,16,0,0,-16,0,-16,16,16,"Advent",12,-4,10,22,10,6
"96",5,"POL RHP6-Ref-POL RHP7-Ref",-0.2102901565,-0.134689989,-0.07009116595,0.05178649555,0.25503774555,0.39607187305,0.413198423,0.398587939,0.347353789,0.2621337455,0.2476290225,0.30666200305,0.25491614939,0.25001370789,0.25068557839,0.21432550734,0.280417311,0.2935160309,0.4310097604,0.6602537234,0.6354226414,0.5291192165,0.3861516715,0.0113854715,-0.05429750685,0.0107956343,0.0340990093,0.1389647093,0.06259476965,0.00804665350000003,0.0107276275,0.00855641850000002,0.056025537,0.073233485,0.044558731,0.0516803579,1717,"DG_s09",11.234,11.844,12.781,12.781,22,6,10,10,0.937,"Right",22,6,16,16,0,0,-16,0,-16,16,16,"Advent",12,-4,10,22,10,6
"97",6,"POL RAM3-Ref-POL RAM4-Ref",-0.256646305095,-0.147997679095,-0.1040265625,-0.010141988,-0.0207532385,-0.1816003355,-0.2743954595,-0.4438239595,-0.5212857275,-0.47105571075,-0.30138115075,-0.16691485075,-0.10761888275,-0.1378087075,-0.1022278575,-0.132694291,-0.254179491,-0.2969181935,-0.3119827435,-0.10673551,0.072975905,0.0841787332,-0.0605214953,-0.2468436668,-0.1479614318,-0.1663598685,-0.17776543,-0.00723570849999999,-0.2356163135,-0.23901059549,-0.28026180549,-0.48136684649,-0.44579013149,-0.4000327545,-0.3213066595,-0.2862998865,1718,"DG_s09",13.781,14.391,14.969,14.969,30,15,10,10,0.578,"Left",30,15,15,15,0,0,-15,0,-15,15,15,"Advent",20,5,30,10,15,10
"98",6,"POL ROF4-Ref-POL ROF5-Ref",0.0859195526,0.1207216826,0.1554540111,0.1576475176,0.1422051335,0.2748410135,0.198939592,0.203681037,0.17311321135,0.06046951685,0.16251459835,0.06358639335,0.003940399,0.0775319235,-0.0515531275,-0.1052661675,-0.1340011505,-0.198649344,-0.090134318,-0.052822763,-0.0032201205,0.046085143,-0.004855531,0.02900432135,-0.00834209565,-0.06018507215,-0.15394330815,-0.1667748155,-0.1221583125,-0.060571636,0.083992724,0.260681359,0.4200349705,0.330650808,0.266150363,0.188737912,1718,"DG_s09",13.781,14.391,14.969,14.969,30,15,10,10,0.578,"Left",30,15,15,15,0,0,-15,0,-15,15,15,"Advent",20,5,30,10,15,10
"99",6,"POL LAM1-Ref-POL LAM2-Ref",-0.19444832635,-0.27920818535,-0.23386071035,-0.24608660735,-0.23060880735,-0.17800325085,-0.24385817585,-0.05506561585,0.05207932515,-0.09260027235,-0.29193347235,-0.55408008735,-0.44626927835,-0.24671809835,-0.13017693335,0.08055410165,0.00867208165,-0.15756264835,-0.15939150035,-0.33843847035,-0.35065705085,-0.2467603583,-0.2564739808,-0.1897974999,-0.3283355074,-0.36859279545,-0.33007097345,-0.36206673485,-0.24992317835,-0.29884669785,-0.25779982635,-0.18191915585,-0.08209435435,0.12794051065,0.15680182665,0.13359764615,1718,"DG_s09",13.781,14.391,14.969,14.969,30,15,10,10,0.578,"Left",30,15,15,15,0,0,-15,0,-15,15,15,"Advent",20,5,30,10,15,10
"100",6,"POL LAM5-Ref-POL LAM6-Ref",-0.07717254075,0.00495692425,0.01311036125,0.05822261625,0.17839469525,0.26699021025,0.25707592125,0.15494220625,-0.03028285375,-0.10868493375,-0.16205562125,-0.12708217125,-0.13728800125,-0.16437715075,-0.07217774975,0.11013105025,0.30792966525,0.2938954407,0.2787549557,0.1718524452,0.0544990214,0.06287903095,0.04098140405,-0.007270962745,-0.082790338945,-0.115874122595,-0.195608916195,-0.1400974344,0.1047088156,0.13068047055,0.16688492105,0.12284624715,-0.11527509435,-0.12929291515,-0.12642066515,-0.22332524575,1718,"DG_s09",13.781,14.391,14.969,14.969,30,15,10,10,0.578,"Left",30,15,15,15,0,0,-15,0,-15,15,15,"Advent",20,5,30,10,15,10
"101",6,"POL RHP5-Ref-POL RHP6-Ref",-0.122120353,-0.0844214725,-0.0062985585,0.0741060315,0.0994811075,0.096315765,0.066811147,0.1228856185,0.085827773,0.0948720935,0.045271579,-0.0666324075,-0.146688655,-0.105579305,-0.014503961,0.001182755,0.19931052,0.1628609745,0.1349484744,0.3633083384,0.3439459384,0.3271400299,0.37646125275,0.29849895275,0.44207630275,0.55359114675,0.622116889,0.552223979,0.3685135305,0.186699239,0.0102962815,0.0387756415,0.10404484,0.3446357315,0.513155039,0.522936189,1718,"DG_s09",13.781,14.391,14.969,14.969,30,15,10,10,0.578,"Left",30,15,15,15,0,0,-15,0,-15,15,15,"Advent",20,5,30,10,15,10
"102",6,"POL RAM5-Ref-POL RAM6-Ref",-0.4473923328,-0.5346332983,-0.4840367893,-0.2657153393,-0.1882558505,0.0183418595,0.02366419,-0.08071205,-0.2063174874,-0.3829271874,-0.5278434024,-0.6212500194,-0.624844497,-0.631727947,-0.425089512,-0.318281205,-0.165997269,0.034974731,-0.0671722395,-0.2126021395,-0.4607087605,-0.6719464105,-0.665279073,-0.5638703395,-0.439804474,-0.407549129,-0.240443881,-0.214483102,-0.217208874,-0.142961494,-0.1843009755,-0.178904548,-0.1095661575,-0.0269452145,-0.214977108,-0.081030098,1718,"DG_s09",13.781,14.391,14.969,14.969,30,15,10,10,0.578,"Left",30,15,15,15,0,0,-15,0,-15,15,15,"Advent",20,5,30,10,15,10
"103",6,"POL ROF1-Ref-POL ROF2-Ref",-0.5210503276,-0.5552870772,-0.5522752772,-0.5948994272,-0.7361116736,-0.7731016505,-0.7088708875,-0.61237607875,-0.48866278125,-0.42216297275,-0.4230165263,-0.42705378505,-0.53190893255,-0.51459349955,-0.5148706105,-0.519488063,-0.263734493,-0.214876471,-0.209815873,-0.1498862655,-0.2358829055,-0.4483821055,-0.523027447,-0.551189262,-0.5923510675,-0.3384514903,-0.1372965953,0.0604824647,0.0661130077,0.1002425355,0.1765525355,0.1483403855,0.190644818,0.0799120225000001,0.1661851725,0.1063780725,1718,"DG_s09",13.781,14.391,14.969,14.969,30,15,10,10,0.578,"Left",30,15,15,15,0,0,-15,0,-15,15,15,"Advent",20,5,30,10,15,10
"104",6,"POL RAM6-Ref-POL RAM7-Ref",0.3825174495,0.733327532,0.7120572455,0.7121313495,0.47221582735,0.14832076685,0.00921198935,-0.03571095565,-0.02559242615,-0.05201056565,-0.07530846565,-0.10924796565,-0.125338137,-0.081531038,0.0693660955,0.0755501955,0.1701205095,0.4684659105,0.669963577,0.908595582,0.9156009545,0.7299232045,0.6003197345,0.51378099,0.6684453175,0.6952966975,0.7170657175,0.758736907,0.602254227,0.456215197,0.32381022765,0.32330693765,0.30615574115,0.44721732515,0.4271135945,0.2316177845,1718,"DG_s09",13.781,14.391,14.969,14.969,30,15,10,10,0.578,"Left",30,15,15,15,0,0,-15,0,-15,15,15,"Advent",20,5,30,10,15,10
"105",6,"POL ROF5-Ref-POL ROF6-Ref",-0.18402654295,-0.13392502095,-0.10781817545,-0.0831766139,-0.08760013145,-0.08255971645,-0.13154305195,-0.0588411785,-0.05385272541,-0.08262165841,-0.10562483791,-0.19031180341,-0.2953426265,-0.3037850715,-0.2055708715,-0.085870981,0.108380719,0.292621817,0.254782837,0.197491919,0.033514654,-0.166227125,-0.23430805325,-0.22382015425,-0.12290219025,-0.00273456675,0.0713272255,-0.00717794050000001,-0.059348541,-0.0848244055,-0.1247402215,-0.1382022365,-0.2054139175,-0.2931545775,-0.3290516755,-0.3570004255,1718,"DG_s09",13.781,14.391,14.969,14.969,30,15,10,10,0.578,"Left",30,15,15,15,0,0,-15,0,-15,15,15,"Advent",20,5,30,10,15,10
"106",6,"POL RPC2-Ref-POL RPC3-Ref",-0.172862144,0.079320956,0.265338226,0.435386198,0.468481278,0.2903218397,0.2534472832,0.3254490662,0.2479758112,0.3526839995,0.413254336,0.341707236,0.404432376,0.432089326,0.36495273935,0.24456970135,0.08981743585,-0.19530901415,-0.3984690275,-0.4121863655,-0.33133742,-0.12436262,0.17272258,0.299190356,0.328002241,0.254741055,0.070541214,0.0350528153,0.0230895753,0.0182448553,-0.0111388037,-0.05523773,-0.1289539795,-0.186884522,-0.13475609745,-0.18598383245,1718,"DG_s09",13.781,14.391,14.969,14.969,30,15,10,10,0.578,"Left",30,15,15,15,0,0,-15,0,-15,15,15,"Advent",20,5,30,10,15,10
"107",6,"POL LAM3-Ref-POL LAM4-Ref",-0.25172770885,-0.14115195685,-0.16642045685,-0.13523154335,-0.06803603135,-0.1503456049,-0.3616703549,-0.4492612584,-0.4112670954,-0.39444643585,-0.40127773585,-0.40656100235,-0.32311937235,-0.25361028335,-0.08640486835,0.13606980165,-0.00128520334999999,-0.1185928273,-0.0986847323,-0.3244657618,-0.3271352343,-0.22531106035,-0.22773032385,-0.1755550672,-0.1794028887,-0.24252016245,-0.34528488895,-0.4278613361,-0.4606899336,-0.36032900985,-0.24233446585,-0.25323048585,-0.17731806835,-0.31292580335,-0.40941109508,-0.46507580508,1718,"DG_s09",13.781,14.391,14.969,14.969,30,15,10,10,0.578,"Left",30,15,15,15,0,0,-15,0,-15,15,15,"Advent",20,5,30,10,15,10
"108",6,"POL RHP4-Ref-POL RHP5-Ref",-0.069423843,-0.2400687335,-0.2890728775,-0.295072981,-0.247776731,-0.1770942775,-0.2576861445,-0.30627622725,-0.47497039225,-0.42159509325,-0.2897839134,-0.26379329715,-0.27938105615,-0.33826071515,-0.252572695,-0.2291949085,-0.0342951345,-0.000423055000000006,-0.017084455,-0.0127005825,-0.1929108325,-0.2827926125,-0.1636248125,-0.1230244225,0.0549933775,0.0809684205,-0.049265574,-0.098437649,-0.152805949,-0.1415111283,-0.1881188573,-0.1434731168,-0.3015569668,-0.3258241305,-0.370823777,-0.4692734217,1718,"DG_s09",13.781,14.391,14.969,14.969,30,15,10,10,0.578,"Left",30,15,15,15,0,0,-15,0,-15,15,15,"Advent",20,5,30,10,15,10
"109",6,"POL ROF3-Ref-POL ROF4-Ref",-0.278243131,-0.1405645245,-0.1704733595,-0.2511922035,-0.321954161,-0.4601823675,-0.422417151,-0.396036096,-0.494130254,-0.4598439775,-0.552378964,-0.5635243715,-0.3636536365,-0.262335663,-0.113823063,0.0288021945,-0.0244790989999999,-0.105644083,-0.1769857265,-0.3300162765,-0.499626108,-0.5242802435,-0.489422542,-0.274738492,0.084742458,0.2681445775,0.2194368281,0.2189672281,0.1128526781,0.0654423781,0.1439683495,0.00114742850000005,-0.0976302665,-0.0379559665,-0.0320990965,0.1254277745,1718,"DG_s09",13.781,14.391,14.969,14.969,30,15,10,10,0.578,"Left",30,15,15,15,0,0,-15,0,-15,15,15,"Advent",20,5,30,10,15,10
"110",6,"POL RPC1-Ref-POL RPC2-Ref",-0.38450421,-0.2265033555,-0.195040355,-0.232227505,-0.05162758,-0.153755598,-0.240349556,-0.2336814745,-0.4172451835,-0.3530736155,-0.1720157975,-0.095807879,-0.1193876245,-0.2260696085,-0.350305696,-0.367140801,-0.306669677,-0.349684058,-0.3740176715,-0.4270312055,-0.4699657225,-0.43622642225,-0.44600334545,-0.42661229295,-0.30423359545,-0.3581255012,-0.404893672,-0.5762701205,-0.6614470685,-0.5917475205,-0.575804004,-0.485566204,-0.556397196,-0.580564876,-0.575475487,-0.5157250945,1718,"DG_s09",13.781,14.391,14.969,14.969,30,15,10,10,0.578,"Left",30,15,15,15,0,0,-15,0,-15,15,15,"Advent",20,5,30,10,15,10
"111",6,"POL RAM4-Ref-POL RAM5-Ref",-0.4348959605,-0.3605132085,-0.389822878,-0.247816722,-0.3006303665,-0.3178161939,-0.3462347394,-0.5221021394,-0.509333706,-0.5750051556,-0.6728691606,-0.6205011701,-0.508520485,-0.446466258,-0.173404588,-0.0910281285,-0.0386249785,0.00815745150000002,-0.1831344005,-0.3241829105,-0.5015960255,-0.5570674425,-0.521380416,-0.411671624,-0.267963159,-0.183296399,0.0286712065,0.022838497,-0.133058984,-0.1775759445,-0.3547700725,-0.42344221,-0.3646788975,-0.385420775,-0.4141386395,-0.2686780745,1718,"DG_s09",13.781,14.391,14.969,14.969,30,15,10,10,0.578,"Left",30,15,15,15,0,0,-15,0,-15,15,15,"Advent",20,5,30,10,15,10
"112",6,"POL LAM2-Ref-POL LAM3-Ref",0.0119740616,0.0161776111,-0.0824973434,-0.0071722271,0.1850174129,0.2627819034,0.3657428834,0.38189777165,0.37926357165,0.29744487265,0.10959692265,0.0242156844,-0.0095202391,0.1288415744,0.2179098204,0.2938132689,0.3201767524,0.2382745309,0.2143282758,0.1837814988,0.1421526343,0.1187946408,-0.0257012001,-0.1032184066,-0.3151672521,-0.3336034876,-0.1385449376,-0.0404354211,0.0995738069,0.2073565959,0.1736884714,0.0564256949,-0.0348967831,-0.2190181731,-0.2798077936,-0.2833432836,1718,"DG_s09",13.781,14.391,14.969,14.969,30,15,10,10,0.578,"Left",30,15,15,15,0,0,-15,0,-15,15,15,"Advent",20,5,30,10,15,10
"113",6,"POL RPC5-Ref-POL RPC6-Ref",0.18411468025,0.26976434675,0.52057271625,0.50954868825,0.55466839325,0.44634508775,0.18246265775,0.26647584225,0.10252546775,0.23782337175,0.33371326905,0.47124418455,0.56034980355,0.34207429855,0.32362105625,0.07124440935,-0.02302049465,0.02594898585,0.04423032585,0.024040532785,0.032996012285,0.022167315335,0.117286234335,0.2287694243,0.2987893543,0.24560993975,0.13154292075,0.15341983875,0.20599302575,0.23302457975,0.10871973475,-0.04463462675,-0.20165219325,-0.21114839625,-0.17254104625,-0.14383700025,1718,"DG_s09",13.781,14.391,14.969,14.969,30,15,10,10,0.578,"Left",30,15,15,15,0,0,-15,0,-15,15,15,"Advent",20,5,30,10,15,10
"114",6,"POL ROF6-Ref-POL ROF7-Ref",-0.056099189665,0.115128875335,0.152582197335,0.10775893125,-0.02056383175,-0.14716844125,-0.28853177875,-0.26384519425,-0.27982261625,-0.37849570675,-0.38651718425,-0.28675159275,-0.15437310775,-0.02965115275,0.0234116563,-0.1205165087,-0.2329773897,-0.1966820897,-0.24471548275,-0.15919893775,-0.09438111975,-0.03150242475,0.10682170425,0.12299159325,0.34390720625,0.35441035625,0.38405787625,0.43519965725,0.35119452225,0.18075966175,0.17815376175,0.23943466175,0.20942529675,0.17773552775,0.02595479025,-0.07350070975,1718,"DG_s09",13.781,14.391,14.969,14.969,30,15,10,10,0.578,"Left",30,15,15,15,0,0,-15,0,-15,15,15,"Advent",20,5,30,10,15,10
"115",6,"POL ROF2-Ref-POL ROF3-Ref",-0.33413917805,-0.2495501158,-0.2351372003,-0.1963541778,-0.1643903498,-0.28519615455,-0.25830649455,-0.21436814705,-0.26127780825,-0.19470286175,-0.22362792175,-0.26931191275,-0.11508522805,-0.130568690465,-0.024605525465,0.166703395535,0.040301272035,0.02456068045,-0.16185781955,-0.47048596955,-0.49799431605,-0.4698011349,-0.3502241449,-0.0471894949,0.2434658751,0.30207206645,0.23108602045,0.31619567045,0.26052392045,0.34050055045,0.50629915645,0.36934779145,0.35321982145,0.46046112145,0.44547042145,0.39176814684,1718,"DG_s09",13.781,14.391,14.969,14.969,30,15,10,10,0.578,"Left",30,15,15,15,0,0,-15,0,-15,15,15,"Advent",20,5,30,10,15,10
"116",6,"POL RPC3-Ref-POL RPC4-Ref",0.138144031,0.405258251,0.509779001,0.804074454,0.894909012,0.980724762,0.871861612,0.692576912,0.493486332,0.212728899,0.164709444,0.223555094,0.248965514,0.212900372,0.277816577,0.220569127,0.339514387,0.417183362,0.288957231,0.170955017,0.00233383300000001,-0.05369943705,-0.11370905605,-0.04265307205,0.02766296095,0.053727621,0.196476321,0.207505301,0.2434819245,0.264378536,0.1779187685,0.0609496185,-0.037366569,-0.013956625,-0.00519661400000002,-0.033573589,1718,"DG_s09",13.781,14.391,14.969,14.969,30,15,10,10,0.578,"Left",30,15,15,15,0,0,-15,0,-15,15,15,"Advent",20,5,30,10,15,10
"117",6,"POL RHP6-Ref-POL RHP7-Ref",-0.268739301245,-0.339929504745,-0.173324044745,-0.169959764745,-0.110322704295,-0.031605246795,-0.013906521295,0.247902316705,0.362085380205,0.368978512205,0.250200476705,0.092728871955,-0.074626148045,-0.109435324545,0.058053275455,0.106535964055,0.092670044055,0.109368487055,0.058098347055,0.111849675205,0.221828312505,0.251325884505,0.237562712305,0.153370523305,0.106196870005,0.162136371005,0.205755433205,0.358609922205,0.397772810205,0.332865153205,0.407261753205,0.347725953205,0.509030331205,0.747091044205,0.786157544205,0.936800444205,1718,"DG_s09",13.781,14.391,14.969,14.969,30,15,10,10,0.578,"Left",30,15,15,15,0,0,-15,0,-15,15,15,"Advent",20,5,30,10,15,10
"118",6,"POL LAM6-Ref-POL LAM7-Ref",0.118890324,0.208344439,0.165643854,0.248161659,0.27617961382,0.08500081732,-0.10013097768,-0.23009076768,-0.2913163865,-0.108168795,0.037098262,0.087764262,0.1876009345,0.1472939445,0.16848843135,0.22811166135,0.25341355435,0.19676793585,0.191713612,0.248115982,0.267810723,0.2283770685,0.2552520985,0.2936092145,0.1667503145,0.131604068,0.082760014,0.080505998,0.210940638,0.30088677765,0.27145550665,0.18429654615,0.11392932465,0.2703926945,0.2712813975,0.429379758,1718,"DG_s09",13.781,14.391,14.969,14.969,30,15,10,10,0.578,"Left",30,15,15,15,0,0,-15,0,-15,15,15,"Advent",20,5,30,10,15,10
"119",6,"POL RPC4-Ref-POL RPC5-Ref",0.379382781095,0.429987672095,0.624652433595,0.497651415595,0.417837775595,0.313688493595,0.097417105895,0.101144723895,-0.040044389605,0.100219761895,0.173093992095,0.434130452595,0.608183306095,0.510050656095,0.632045163595,0.367832933095,0.113728983095,-0.047969436905,-0.116504012405,-0.135937347405,-0.019758795905,0.091831390595,0.105890870595,0.167808116995,0.168341112895,0.112022346395,0.092634392395,0.233558490995,0.333434473595,0.387353772595,0.204457822095,-3.20359050000017e-05,-0.186409075905,-0.216676387405,-0.187463951405,-0.218056033405,1718,"DG_s09",13.781,14.391,14.969,14.969,30,15,10,10,0.578,"Left",30,15,15,15,0,0,-15,0,-15,15,15,"Advent",20,5,30,10,15,10
"120",6,"POL RAM2-Ref-POL RAM3-Ref",-0.22653449274,-0.30852352164,-0.35006605664,-0.38588827714,-0.21743179964,-0.04020778814,0.01773323466,-0.000659986840000001,-0.07212677294,-0.08470504794,-0.08712737074,-0.12339547574,-0.20282876314,-0.23665897784,-0.13932197434,0.13982609566,0.10897886416,0.10545190686,-0.07255224664,-0.26978770614,-0.21164426914,-0.22545886364,-0.18989941364,-0.18601332514,-0.09921914214,-0.19176765464,-0.01412169714,0.18709507386,0.09909411936,0.17843445336,-0.000446554140000013,-0.12972072414,0.05747346536,0.24065162386,0.45595587386,0.43472964386,1718,"DG_s09",13.781,14.391,14.969,14.969,30,15,10,10,0.578,"Left",30,15,15,15,0,0,-15,0,-15,15,15,"Advent",20,5,30,10,15,10
"121",7,"POL ROF4-Ref-POL ROF5-Ref",0.182405585,0.2450113125,0.38453159,0.496391598,0.61682025,0.6522276575,0.518364559,0.456193951,0.41393714,0.4106197665,0.48281917222,0.56270184922,0.58504517322,0.53536515472,0.66761132,0.735572898,0.736832648,0.859138255,0.763154475,0.6649559455,0.754019419,0.6828843345,0.580660062,0.60709092,0.3689660465,0.246148631,0.252943371,0.3477017375,0.5420746975,0.5851417321,0.62250113983,0.51258608033,0.47467437383,0.44119444423,0.5572490375,0.737723047,1719,"DG_s09",15.969,16.594,17.328,17.328,28,4,10,10,0.734,"Left",28,4,24,24,0,0,-24,0,-24,24,24,"Advent",18,-6,28,10,4,10
"122",7,"POL RPC2-Ref-POL RPC3-Ref",0.04792975485,0.13694199935,0.32660496285,0.41223198935,0.52139559285,0.47802572425,0.25650187425,0.22377815525,0.26809460525,0.34821001885,0.4065078189,0.2752404094,0.1222579844,0.0478203994,0.12698664435,0.29745637285,0.32155557585,0.33372658635,0.31553069135,0.25146969135,0.16549436335,0.08698105285,0.11702435285,0.16007115285,0.29863650285,0.25112214135,0.04274134135,-0.02470320765,-0.06934825765,-0.04891867615,0.01766917385,-0.11014265515,-0.17463383815,0.04427081185,0.23329526185,0.38130023485,1719,"DG_s09",15.969,16.594,17.328,17.328,28,4,10,10,0.734,"Left",28,4,24,24,0,0,-24,0,-24,24,24,"Advent",18,-6,28,10,4,10
"123",7,"POL ROF1-Ref-POL ROF2-Ref",-0.061360287795,0.0262634987050001,-0.045503712295,0.025160187705,-0.145843385295,-0.304201961295,-0.322815865695,-0.387967865695,-0.422915153195,-0.412353791695,-0.369389210295,-0.275685510295,-0.128099299795,0.057072014705,0.090757650205,0.069850950205,0.179384250205,0.071781187705,0.089011317705,0.066739967705,-0.076380882295,-0.059032884795,-0.104936799795,-0.311069199795,-0.415475211795,-0.251659246795,-0.140117701795,-0.093255124795,-0.043969947795,-0.271714573795,-0.347217093795,-0.294140826295,-0.170590341295,0.210506484705,0.461630189705,0.674099845205,1719,"DG_s09",15.969,16.594,17.328,17.328,28,4,10,10,0.734,"Left",28,4,24,24,0,0,-24,0,-24,24,24,"Advent",18,-6,28,10,4,10
"124",7,"POL LAM2-Ref-POL LAM3-Ref",0.049852265,-0.0912897,-0.235308921,-0.388559284,-0.442808499,-0.330350269,-0.1810630175,-0.114280358,-0.141150593,-0.3629092195,-0.600038365,-0.7773700615,-0.8748925115,-0.88618784,-0.6882641845,-0.582161858,-0.534923073,-0.4747448185,-0.452039109,-0.4011939295,-0.334961096,-0.288932394,-0.258595061,-0.153438817,-0.243037923,-0.3667892295,-0.4854107985,-0.60400722325,-0.42824233575,-0.42414282575,-0.45223539075,-0.418179471,-0.459404971,-0.435913513,-0.407185476,-0.312656371,1719,"DG_s09",15.969,16.594,17.328,17.328,28,4,10,10,0.734,"Left",28,4,24,24,0,0,-24,0,-24,24,24,"Advent",18,-6,28,10,4,10
"125",7,"POL LAM5-Ref-POL LAM6-Ref",0.038832811,0.1416186074,0.0344940529,-0.0801861021,-0.2308947371,-0.29436259125,-0.16706676605,0.04686198395,0.17435001895,0.2891367277,0.3177464655,0.278881441,0.187765843,0.1871783485,0.155264733,-0.050520947,-0.079303262,-0.2113580115,-0.162997219,-0.0360645245,0.0497123385,0.00530166200000001,-0.115358898,-0.1326181805,-0.30856175,-0.315549677,-0.2498147002,-0.2999416727,-0.3232744032,-0.2590531232,-0.22103425,-0.082318335,0.01771074,0.03660302738,-0.07359552762,-0.17054242947,1719,"DG_s09",15.969,16.594,17.328,17.328,28,4,10,10,0.734,"Left",28,4,24,24,0,0,-24,0,-24,24,24,"Advent",18,-6,28,10,4,10
"126",7,"POL ROF6-Ref-POL ROF7-Ref",0.12764881925,0.23106582425,0.34983335425,0.45011772425,0.38016477725,0.22062349075,0.17795380125,0.22000421525,0.10656688025,0.15670928175,0.1457810318,0.0307493078,0.1232066228,0.1377042343,0.15659067125,0.22077299175,0.16888769675,0.12971966025,0.05592597275,0.06530776025,0.19858604025,0.2749953197,0.3732843437,0.4742543757,0.5207289257,0.53179400125,0.56652217725,0.46598392025,0.22463297025,0.181318487655,-0.014845757345,-0.025424106845,0.124447718155,0.12915580525,0.58564455025,0.63798125375,1719,"DG_s09",15.969,16.594,17.328,17.328,28,4,10,10,0.734,"Left",28,4,24,24,0,0,-24,0,-24,24,24,"Advent",18,-6,28,10,4,10
"127",7,"POL LAM1-Ref-POL LAM2-Ref",0.3028766653,0.1205945578,0.0960007153,-0.1563077117,-0.2018768842,-0.1784489352,-0.0452497122,0.02491301927395,-0.04152945822605,-0.16798790972605,-0.37499225972605,-0.3617390797,-0.32182935695,-0.28599779695,-0.22253322195,-0.25241907495,-0.2294287852,0.0160978548,0.0241347268,0.00619407129999999,-0.0386484232,-0.3399850732,-0.4642867202,-0.4914872783,-0.5041660863,-0.4182310933,-0.1381463433,0.0527305888,0.1668222373,0.1905429308,-0.0155674542,-0.0465407542,-0.0411397972,-0.0212692062,0.044977210565,-0.036535899435,1719,"DG_s09",15.969,16.594,17.328,17.328,28,4,10,10,0.734,"Left",28,4,24,24,0,0,-24,0,-24,24,24,"Advent",18,-6,28,10,4,10
"128",7,"POL RHP6-Ref-POL RHP7-Ref",-0.23601683505,-0.40686526055,-0.4553805605,-0.5289413465,-0.5785713265,-0.465720466,-0.55815439355,-0.70124142755,-0.74508909255,-0.97276067755,-1.01038720005,-0.95678662505,-0.77561472505,-0.55746592505,-0.46805216505,-0.43917648955,-0.51935709205,-0.50369164205,-0.44257979655,-0.38584417505,-0.40685350255,-0.42565625255,-0.52299396705,-0.55453491755,-0.58904333255,-0.60985470755,-0.34670574855,-0.11005530005,-0.01707440505,-0.12783347705,-0.33741889705,-0.50394279705,-0.66655709705,-0.56827629305,-0.45278732305,-0.32534822305,1719,"DG_s09",15.969,16.594,17.328,17.328,28,4,10,10,0.734,"Left",28,4,24,24,0,0,-24,0,-24,24,24,"Advent",18,-6,28,10,4,10
"129",7,"POL ROF5-Ref-POL ROF6-Ref",0.07712182295,0.30010017295,0.41801700895,0.43459638795,0.4690371322,0.3576739345,0.36172426085,0.32933404331,0.27170653306,0.36138068076,0.30804807091,0.30061378845,0.32032559795,0.31255104795,0.45046832545,0.52221409475,0.56069109975,0.54483344375,0.46761250625,0.59174958795,0.67637703795,0.63688198145,0.49527713895,0.32549320395,0.21710822395,0.33482298645,0.51812325145,0.65034177645,0.65523660645,0.60269116345,0.48822238345,0.47065394295,0.47832559295,0.50029883595,0.72570995095,0.76173755185,1719,"DG_s09",15.969,16.594,17.328,17.328,28,4,10,10,0.734,"Left",28,4,24,24,0,0,-24,0,-24,24,24,"Advent",18,-6,28,10,4,10
"130",7,"POL RAM4-Ref-POL RAM5-Ref",0.110220687,0.217990474,0.140996027,0.139312932,0.167871796,0.098628584,0.171850637,-0.046667608,-0.0704518875,-0.1613819825,-0.2820528935,-0.178192746245,-0.156726724245,-0.066381668245,-0.107712833245,-0.0730443419,0.0551920751,0.0637804456,0.1868121156,0.2039323682,0.0780508932,0.1106201912,0.1067980203,0.2075999291,0.1832404221,0.2152670276,0.1868756695,0.049578133,-0.043614535,-0.131684995,-0.1228643815,-0.1276433435,-0.094797424,-0.0970246055,-0.0200852055,0.060075797,1719,"DG_s09",15.969,16.594,17.328,17.328,28,4,10,10,0.734,"Left",28,4,24,24,0,0,-24,0,-24,24,24,"Advent",18,-6,28,10,4,10
"131",7,"POL RPC1-Ref-POL RPC2-Ref",0.20165449635,0.48243894135,0.43618779135,0.49462012035,0.393460715,0.285003915,0.23898755,0.2666299095,0.4157084675,0.3133587585,0.210846139,0.11668279,0.0727965112,0.2065048702,0.2873482457,0.2406019312,0.163541522,0.186470322,0.1213828155,0.1142862805,0.1067036865,-0.1696660135,-0.161741628,-0.2005684475,-0.180485242,-0.130064642,-0.0648670745,-0.0296867985,-0.043693291,0.074578327,0.0476736799,0.0823561074,0.1436277899,0.0605099469,0.07334471805,0.00443420205,1719,"DG_s09",15.969,16.594,17.328,17.328,28,4,10,10,0.734,"Left",28,4,24,24,0,0,-24,0,-24,24,24,"Advent",18,-6,28,10,4,10
"132",7,"POL RAM3-Ref-POL RAM4-Ref",-0.287888857725,-0.22887249405,-0.22698777905,-0.2292065886,-0.2851692496,-0.3307850446,-0.31959658175,-0.2908229892,-0.2643731942,-0.3353102877,-0.374471441,-0.3737365855,-0.3751742045,-0.284663545,-0.298305695,-0.352179718,-0.37750401955,-0.39613917805,-0.37962110137,-0.44049062437,-0.53656168782,-0.57155420482,-0.526745052,-0.4342636325,-0.2957940975,-0.213579238,-0.2619594125,-0.28923306445,-0.35714758045,-0.38072610545,-0.37279107045,-0.367359027,-0.41841647265,-0.51613779765,-0.49687024265,-0.49097747665,1719,"DG_s09",15.969,16.594,17.328,17.328,28,4,10,10,0.734,"Left",28,4,24,24,0,0,-24,0,-24,24,24,"Advent",18,-6,28,10,4,10
"133",7,"POL RAM5-Ref-POL RAM6-Ref",0.197670977,0.216743339,0.1532826405,0.048802899,0.099305024,0.1058118305,0.0015985385,-0.10030387,-0.135162775,-0.1561300935,-0.064240712,0.03835429015,0.17584034515,0.13235649515,0.03047992865,0.0289839515,-0.000455598499999994,0.067805367,0.227711757,0.22056914355,0.16782425865,0.20640064815,0.20383654315,0.3561748316,0.313815509,0.338342339,0.359261039,0.18703974,0.2393920555,0.2919365255,0.24218836,0.2079207825,0.1262549645,0.0853350165,0.197277332,0.4145969145,1719,"DG_s09",15.969,16.594,17.328,17.328,28,4,10,10,0.734,"Left",28,4,24,24,0,0,-24,0,-24,24,24,"Advent",18,-6,28,10,4,10
"134",7,"POL RPC3-Ref-POL RPC4-Ref",0.1424425545,0.2971732585,0.355525253,0.400140503,0.429121798,0.311494133,0.115431883,0.0181734515,0.02654647,0.069806551,0.18846174,0.1459451125,0.095041314,0.068751978,0.0424679758,0.1119758348,0.1418192148,0.2167188348,0.270244448,0.271124103,0.193734689,-0.010531061,-0.161846277,-0.166086277,-0.074376863,-0.02287057885,0.03337799615,0.03606584115,-0.04743876485,-0.018160839,0.15071978,-0.02305727,-0.143648314,-0.1180514845,-0.1993743125,-0.130337933,1719,"DG_s09",15.969,16.594,17.328,17.328,28,4,10,10,0.734,"Left",28,4,24,24,0,0,-24,0,-24,24,24,"Advent",18,-6,28,10,4,10
"135",7,"POL LAM3-Ref-POL LAM4-Ref",-0.1161239509,-0.1477937815,-0.1633677515,-0.215518799,-0.40402135045,-0.41985474895,-0.24781474895,-0.29484096545,-0.096436159,-0.0187435355,-0.0812411535,0.091122584,-0.061178506,-0.198021446,-0.2556168245,-0.337231375,-0.41084864,-0.35436814,-0.3769412175,-0.4667854475,-0.38497356135,-0.27090612285,-0.17406558185,-0.08200813935,-0.1035010165,-0.174713245,-0.1998365375,-0.1525599895,-0.08667102958,0.09813651042,0.06930861842,0.00961839541999998,0.1390752315,0.1545389315,0.1917696546,0.1831259476,1719,"DG_s09",15.969,16.594,17.328,17.328,28,4,10,10,0.734,"Left",28,4,24,24,0,0,-24,0,-24,24,24,"Advent",18,-6,28,10,4,10
"136",7,"POL RHP5-Ref-POL RHP6-Ref",-0.112486369,-0.215969087,-0.483108187,-0.5170171274,-0.5332707379,-0.4501472894,-0.36308082005,-0.35392591665,-0.46885283715,-0.44255465765,-0.4207027585,-0.2788595635,-0.203871918,-0.337235329,-0.3666772605,-0.4536081035,-0.493720049,-0.45471236975,-0.41446098075,-0.28541233775,-0.12357132225,0.0278657795,0.0697663505,0.1053411005,0.00473240050000001,-0.19037783365,-0.22421922465,-0.19874927465,-0.28886644415,-0.251136859,-0.251212719,-0.384483769,-0.3462653774,-0.3754886739,-0.3762659434,-0.4049971434,1719,"DG_s09",15.969,16.594,17.328,17.328,28,4,10,10,0.734,"Left",28,4,24,24,0,0,-24,0,-24,24,24,"Advent",18,-6,28,10,4,10
"137",7,"POL ROF2-Ref-POL ROF3-Ref",0.0892207663,0.0307378178,-0.00780208670000002,-0.0419766682,-0.113931769895,-0.017060421395,-0.070482917895,-0.249387086395,-0.3305304477,-0.4471358847,-0.3350682412,-0.32732473135,-0.16694847535,-0.1699149263,-0.1678959108,-0.14960059765,-0.18857562915,-0.0951517462,-0.0182053637,-0.0439745867,-0.1274367112,-0.25906032225,-0.31972518975,-0.14859103975,-0.02512377475,0.1713918363,0.0648124158,-0.0485469782,-0.0491357337,-0.2763267337,-0.3173330832,-0.4299120892,-0.4202646537,-0.3119098817,-0.00163592520000003,0.1642713398,1719,"DG_s09",15.969,16.594,17.328,17.328,28,4,10,10,0.734,"Left",28,4,24,24,0,0,-24,0,-24,24,24,"Advent",18,-6,28,10,4,10
"138",7,"POL RPC5-Ref-POL RPC6-Ref",-0.23361165615,-0.16596637115,-0.10420336915,-0.04328590165,0.02475844835,0.0556946273,0.1050299023,0.1468061563,0.2062453883,0.43612783435,0.37307893785,0.27754363985,0.32882426585,0.14756581735,0.15783310385,0.15647250175,0.14663112725,0.32659032575,0.28763364825,0.36397729585,0.26521959735,0.02462421735,-0.02878119515,-0.13438952265,-0.13287653265,-0.07862964265,-0.05357356915,-0.09669957915,-0.06717128615,0.03298315385,0.09347222235,0.14642737285,0.11058060485,0.09421774685,0.13465518985,0.1629566345,1719,"DG_s09",15.969,16.594,17.328,17.328,28,4,10,10,0.734,"Left",28,4,24,24,0,0,-24,0,-24,24,24,"Advent",18,-6,28,10,4,10
"139",7,"POL LAM6-Ref-POL LAM7-Ref",0.0010739443,0.0104892057,0.0381897106,-0.0801506259,-0.0592992259,-0.000230535099999998,0.123830756,0.289652981,0.251173512,0.1464564755,-0.0405633245,-0.2011809745,-0.19979165,-0.1916037975,-0.0714009375,0.1049167825,0.1653721554,0.1010459344,0.0807211079,-0.0149483821,-0.0104941445,-0.0250873425,-0.116956226,-0.1382006035,-0.254347911,-0.300877608,-0.260886681,-0.1582446335,0.000696444000000004,0.199194224,0.196004178,0.155427628,0.0529726105,-0.0701541095,-0.07231701845,-0.06367644845,1719,"DG_s09",15.969,16.594,17.328,17.328,28,4,10,10,0.734,"Left",28,4,24,24,0,0,-24,0,-24,24,24,"Advent",18,-6,28,10,4,10
"140",7,"POL ROF3-Ref-POL ROF4-Ref",0.03373006185,0.00508452485,0.00786372585,0.07296563135,0.1185462467,0.1683747937,0.0698491487,-0.0027077348,-0.12902455515,-0.33477776515,-0.11787965015,-0.15334856815,-0.0463183118,-0.0580242618,-0.2836915768,-0.2873565903,-0.21113644965,-0.01468769965,0.11694002635,0.08914487235,0.02825858635,-0.08028954865,-0.10985099715,-0.10443033315,-0.18320843415,-0.09908718715,-0.13360564365,-0.05118477615,-0.0055701615,0.0493302265,0.0323730705,-0.088845242,-0.07323865215,-0.11895915215,0.07984648285,0.20409826735,1719,"DG_s09",15.969,16.594,17.328,17.328,28,4,10,10,0.734,"Left",28,4,24,24,0,0,-24,0,-24,24,24,"Advent",18,-6,28,10,4,10
"141",7,"POL RAM2-Ref-POL RAM3-Ref",0.1153767035,0.00160331149999998,0.1097868565,0.12385163,-0.106838694,-0.1054492005,-0.22341497,-0.1477928095,-0.169643892,-0.236185286,-0.3230646958,-0.3776109703,-0.3459317783,-0.3019670458,-0.22061853835,-0.23915737535,-0.26142745585,-0.24766677485,-0.177496293,-0.19449140495,-0.27934395995,-0.33717720995,-0.36325276495,-0.3438640995,-0.3834016995,-0.318799108,-0.206769263,-0.236115485,-0.1813350455,-0.2168394395,-0.3205510245,-0.2189136045,-0.18493562755,-0.29804406405,-0.31188248905,-0.29169984755,1719,"DG_s09",15.969,16.594,17.328,17.328,28,4,10,10,0.734,"Left",28,4,24,24,0,0,-24,0,-24,24,24,"Advent",18,-6,28,10,4,10
"142",7,"POL RHP4-Ref-POL RHP5-Ref",-0.5238062795,-0.3854663495,-0.2793106355,-0.2522842805,-0.1245081385,-0.0542726185,-0.0113843275,-0.0868687105,-0.1534683185,-0.250077818,-0.382847373,-0.272867059,-0.290477208,-0.2398750255,-0.0908023255,-0.198709493,-0.3019749025,-0.2008904855,-0.1023147855,-0.155848718,-0.1445297015,-0.191254957,-0.253006907,-0.000133988000000029,0.0492589055,-0.0192959765,-0.2023383265,-0.4533499495,-0.476308294,-0.50279455,-0.35268625,-0.3245008655,-0.3893617095,-0.386165223,-0.405285698,-0.3233842095,1719,"DG_s09",15.969,16.594,17.328,17.328,28,4,10,10,0.734,"Left",28,4,24,24,0,0,-24,0,-24,24,24,"Advent",18,-6,28,10,4,10
"143",7,"POL RAM6-Ref-POL RAM7-Ref",0.29993456535,0.08234194885,-0.23610680115,-0.27262590015,-0.167133095,-0.144992539,0.001920861,0.035535481,-0.194846346,-0.3589670855,-0.428773268,-0.560628071,-0.527969571,-0.4863426355,-0.4492292415,-0.3815047965,-0.3645592835,-0.284189108,-0.369924577,-0.353434197,-0.19873846,-0.122210671,0.0649716865,0.05814824715,-0.0666384883,0.0260522017,0.0395098417,0.13619015605,0.2318533915,-0.00282346149999999,-0.1738945125,-0.2620777543,-0.3254313444,-0.249558689815,-0.178614228815,-0.103775857015,1719,"DG_s09",15.969,16.594,17.328,17.328,28,4,10,10,0.734,"Left",28,4,24,24,0,0,-24,0,-24,24,24,"Advent",18,-6,28,10,4,10
"144",7,"POL RPC4-Ref-POL RPC5-Ref",-0.452130191,-0.412118391,-0.239837898,-0.2145873685,-0.1511200235,-0.0846147865,-0.175203986,-0.2252989145,-0.184255361,0.065922852,0.2397101085,0.2460686615,0.250967978,-0.007700342,-0.062576392,0.06068115,0.060798174,0.029728699,-0.018381951,-0.2231015885,-0.3513222275,-0.3926267825,-0.4923415775,-0.42081238335,-0.38635883335,-0.33904570785,-0.39443222785,-0.3795664235,-0.3554746535,-0.345431084,-0.253984469,-0.26563974,-0.27315186,-0.300062523,-0.3112714825,-0.3033050952,1719,"DG_s09",15.969,16.594,17.328,17.328,28,4,10,10,0.734,"Left",28,4,24,24,0,0,-24,0,-24,24,24,"Advent",18,-6,28,10,4,10
"145",8,"POL RAM5-Ref-POL RAM6-Ref",-0.1264260726,-0.0319348356,-0.0264023356,-0.0106509755,0.0622916695,-0.1096836405,-0.10754257,-0.0467658317,0.01891530645,0.16462873945,0.07173829645,-0.00203422184999999,-0.018563715,-0.021317373,0.0679044994,0.1400661889,0.0371523189,-0.0691918561,-0.037494039,-0.00384380349999999,0.1735200265,0.2868032,0.2891885215,0.273948801,0.2023887235,0.290867172,0.210669391,0.396957182,0.4864073145,0.338464032,0.329302492,0.200300611,0.175396116,0.3592964765,0.364940555,0.2816113765,1720,"DG_s09",18.328,18.938,19.734,19.75,10,10,4,4,0.796,"Left",4,4,0,0,0,0,0,0,0,0,0,"10-10",6,6,10,4,10,4
"146",8,"POL LAM5-Ref-POL LAM6-Ref",0.0389655135,0.0165565335,-0.3629668165,-0.3720712595,-0.2455616065,-0.232872044,0.002989156,0.139098731,0.037480698,-0.04696281155,-0.11096385605,-0.22564832605,-0.24008955155,-0.083034057,-0.148025508,-0.0789658555,0.16319385,0.067569043,0.096800345775,0.225839513275,0.172322715775,0.093769372775,0.07477662,0.002688785,-0.0929851125,-0.089102688,-0.103048609,-0.1550118289,-0.1671364325,-0.203164457,-0.210600968,-0.1193257531,-0.154002838,-0.0949909935,0.065827634,0.064409454,1720,"DG_s09",18.328,18.938,19.734,19.75,10,10,4,4,0.796,"Left",4,4,0,0,0,0,0,0,0,0,0,"10-10",6,6,10,4,10,4
"147",8,"POL LAM6-Ref-POL LAM7-Ref",-0.051969011,-0.0567331495,-0.028973404,-0.033893654,0.1110381075,0.2618494335,0.233926124,0.480953359,0.3884424775,0.2062427775,0.0837347465,-0.0039274235,-0.0188618855,-0.00462208549999998,0.0677702045,0.1028514545,0.2665494865,0.329667479,0.3156934475,0.3163230875,0.1881785875,0.139478995,0.1494541065,0.107460994,0.131249325,0.195638,0.182768846,0.1521669335,0.1643776057,0.1723450427,0.2456708407,0.27189898405,0.27963319785,0.26926005185,0.33288561785,0.4709828945,1720,"DG_s09",18.328,18.938,19.734,19.75,10,10,4,4,0.796,"Left",4,4,0,0,0,0,0,0,0,0,0,"10-10",6,6,10,4,10,4
"148",8,"POL ROF1-Ref-POL ROF2-Ref",-0.18167176,-0.2802169835,-0.27016376,-0.392192145,-0.504570614,-0.5234567885,-0.5616230435,-0.5752468925,-0.4997969917,-0.5923363462,-0.7077734962,-0.7517198402,-0.863914832,-0.860265132,-0.8404154615,-0.813903641,-0.801212436,-0.58618663295,-0.48062271345,-0.44004868595,-0.55997893695,-0.7100317385,-0.726607812,-0.693113232,-0.530269157,-0.5487269185,-0.545141855,-0.6550777225,-0.6610712444,-0.5513583349,-0.6617959849,-0.5256110774,-0.526146751,-0.4746132288,-0.2813440088,-0.2738282988,1720,"DG_s09",18.328,18.938,19.734,19.75,10,10,4,4,0.796,"Left",4,4,0,0,0,0,0,0,0,0,0,"10-10",6,6,10,4,10,4
"149",8,"POL LAM1-Ref-POL LAM2-Ref",-0.08087483055,-0.00388826604999998,0.27323088395,0.46009527345,0.4208083405,0.2803504255,0.113537184,0.0954700345,0.1633936395,0.1992731995,0.201907195,0.08320354,0.068687615,0.298495805,0.32899704265,0.27765210765,0.31709444015,0.30165844015,0.276377063,0.47558105055,0.46129075805,0.24326940955,0.34871281505,0.3027310595,0.2962577845,0.388001625,0.258809977,0.2573756,0.19047357,0.072035878,0.058549006,0.054580402,0.233830292,0.344606973,0.423193279,0.634001728,1720,"DG_s09",18.328,18.938,19.734,19.75,10,10,4,4,0.796,"Left",4,4,0,0,0,0,0,0,0,0,0,"10-10",6,6,10,4,10,4
"150",8,"POL RAM4-Ref-POL RAM5-Ref",-0.00225939045,-0.03188316295,0.04287408705,0.19139360605,0.34725298355,0.25733995405,0.15730629605,0.02026701455,-0.05999662545,0.21029878955,0.21755812405,0.31912872805,0.38294635005,0.17785648905,0.20222687755,0.17671140093,0.11525547183,0.05248989783,0.04765259283,0.09044689295,0.18553350755,0.29919509255,0.30774705305,0.32115453105,0.24695910055,0.30428507555,0.31568010655,0.29719720355,0.28948074405,0.21292997455,0.11548760055,0.19370501055,0.38759795055,0.3911039044,0.4672353817,0.3208017817,1720,"DG_s09",18.328,18.938,19.734,19.75,10,10,4,4,0.796,"Left",4,4,0,0,0,0,0,0,0,0,0,"10-10",6,6,10,4,10,4
"151",8,"POL RAM3-Ref-POL RAM4-Ref",-0.4243464875,-0.5628554305,-0.6821774785,-0.6640362785,-0.5287275435,-0.40887750265,-0.35012059315,-0.2113105185,-0.134513856,-0.02692048185,-0.02296451285,-0.1147743875,-0.16571724364,-0.22208870814,-0.23929677569,-0.10581618569,-0.18171158675,-0.28809123725,-0.2540497662,-0.3017309727,-0.2118405815,-0.1385456315,-0.2265509135,-0.383422747,-0.4682050285,-0.4405468265,-0.2095654265,-0.062291785,-0.038790635,-0.0294040625,-0.0790046625,-0.0530477455,0.1812350545,0.143420907,0.1448114925,0.1250795355,1720,"DG_s09",18.328,18.938,19.734,19.75,10,10,4,4,0.796,"Left",4,4,0,0,0,0,0,0,0,0,0,"10-10",6,6,10,4,10,4
"152",8,"POL ROF3-Ref-POL ROF4-Ref",-0.10153661235,-0.52632666235,-0.70663672735,-0.5711052821,-0.4134099321,-0.2674584571,-0.2192565315,-0.21205413175,-0.20332563175,-0.22741453125,-0.21052268235,-0.23218923785,-0.35168858225,-0.35093535175,-0.40512080525,-0.4428575371,-0.4153586882,-0.3661454442,-0.2486384702,-0.04611717285,0.04912062265,-0.00358905585000002,-0.03056103235,-0.17321942885,-0.15716537885,-0.17316559235,-0.10580763485,-0.07753122835,-0.09257677835,-0.1208611288,-0.3255544098,-0.4802916698,-0.6813548698,-0.72479217635,-0.55418392635,-0.47852416135,1720,"DG_s09",18.328,18.938,19.734,19.75,10,10,4,4,0.796,"Left",4,4,0,0,0,0,0,0,0,0,0,"10-10",6,6,10,4,10,4
"153",8,"POL ROF4-Ref-POL ROF5-Ref",-0.3433081091,-0.2695962191,-0.2065790691,-0.1188101791,-0.0565712585,-0.1440448485,-0.2266671485,-0.2810398385,-0.374463001,-0.241748841,-0.196329346,-0.1936877985,-0.161419902,-0.133636852,0.046845303,0.1642762105,0.3322570065,0.2991771205,0.1522550675,0.1020701875,-0.087342525,0.024236251,0.196524554,0.178981646,0.1449828085,0.087283721,-0.024330961,-0.04502511255,-0.04498991255,-0.151961516335,-0.201061227335,-0.234466895785,-0.127712937285,0.043685554,0.209412797,0.4654361,1720,"DG_s09",18.328,18.938,19.734,19.75,10,10,4,4,0.796,"Left",4,4,0,0,0,0,0,0,0,0,0,"10-10",6,6,10,4,10,4
