"","trial","electrodes","bin_1","bin_2","bin_3","bin_4","bin_5","bin_6","bin_7","bin_8","bin_9","bin_10","bin_11","bin_12","bin_13","bin_14","bin_15","bin_16","bin_17","bin_18","bin_19","bin_20","bin_21","bin_22","bin_23","bin_24","bin_25","bin_26","bin_27","bin_28","bin_29","bin_30","bin_31","bin_32","bin_33","bin_34","bin_35","bin_36","X","SID","newround_time","choice_time","buttonpress_time","reveal_time","self_payoff","other_payoff","self_foregone","other_foregone","RT","side_chosen","self_var_payoff","other_var_payoff","ineq_var_abs","ineq_choice_abs","ineq_foregone_abs","ineq_disadvent","ineq_advent","ineq_disadvent_choice","ineq_advent_choice","ineq_var","ineq_choice","chose_equality","self_diff","other_diff","L_self","R_self","L_other","R_other"
"1",2,"POL RPC5-Ref-POL RPC6-Ref",0.6356853213,0.4991113213,0.37786844615,0.42803549615,0.69101633585,1.10836523585,1.483321311,1.660857411,1.619834711,1.399046761,1.050995325,0.619076175,0.162681875,-0.116109475,-0.185890589,-0.085677519,0.103961191,0.155295791,0.046608341,-0.077839729,-0.103348089,-0.0028321738,0.1879509412,0.3342509772,0.3541427072,0.271083642,0.160618077,0.106884591,0.14895480625,0.26516604125,0.38465180125,0.4280624632,0.35420356795,0.16435718295,-0.10482447705,-0.302269689,1714,"DG_s09",3,3.625,4.797,4.797,12,12,10,10,1.172,"Left",12,12,0,0,0,0,0,0,0,0,0,"Equal",2,2,12,10,12,10
"2",2,"POL RPC4-Ref-POL RPC5-Ref",0.41754499,0.240930695,0.18497430365,0.33355784465,0.67632769465,1.06594599465,1.235348186,1.1048586405,0.7501802905,0.3948667905,0.21311907885,0.23849779935,0.41519579935,0.57064807935,0.585253139,0.456027714,0.210628514,-0.076243716,-0.228544064,-0.213744664,-0.03350349345,0.25761860655,0.49368250655,0.63857840655,0.6720674634,0.5703086834,0.3207705834,0.0522132834,-0.054424434,0.0145053795,0.2382262795,0.4637761145,0.5135744315,0.418103198,0.275867248,0.177277013,1714,"DG_s09",3,3.625,4.797,4.797,12,12,10,10,1.172,"Left",12,12,0,0,0,0,0,0,0,0,0,"Equal",2,2,12,10,12,10
"3",2,"POL RHP6-Ref-POL RHP7-Ref",0.6304783725,1.1243869225,1.5083059045,1.6962546045,1.6466560545,1.3885279795,1.02089879845,0.67216554845,0.42416434845,0.27544822345,0.1616573045,0.00635970450000001,-0.1621429455,-0.2062142455,-0.0677342525,0.2368327475,0.5888709975,0.8096921975,0.8568139045,0.8258570045,0.8528990045,0.9700612545,1.0877144045,1.050915317,0.833564667,0.657292373,0.650956823,0.7943501105,0.91719256415,0.78254965815,0.47806720815,0.21859030815,0.0789201545,0.0417146545,0.0512275545,0.122138263,1714,"DG_s09",3,3.625,4.797,4.797,12,12,10,10,1.172,"Left",12,12,0,0,0,0,0,0,0,0,0,"Equal",2,2,12,10,12,10
"4",2,"POL ROF2-Ref-POL ROF3-Ref",-0.739178818,-0.492775798,-0.226616348,-0.015624998,0.1242831985,0.2301002285,0.3567314285,0.5250999285,0.6952807285,0.7744462785,0.6636324285,0.3182550755,-0.2014248245,-0.6282296245,-0.8091147795,-0.7319982735,-0.4393139235,-0.1331353235,0.1062630315,0.2985852785,0.4268848285,0.4353476285,0.268131378,-0.082124022,-0.553468322,-0.991030822,-1.3005895715,-1.4445070715,-1.3535568215,-1.1076546465,-0.764152594,-0.378506194,-0.099062894,-0.00978585235000001,-0.14545400485,-0.41145060485,1714,"DG_s09",3,3.625,4.797,4.797,12,12,10,10,1.172,"Left",12,12,0,0,0,0,0,0,0,0,0,"Equal",2,2,12,10,12,10
"5",2,"POL ROF5-Ref-POL ROF6-Ref",-0.60250275135,-0.52541959385,-0.27563659385,0.07220330615,0.33410075615,0.50566309865,0.65632939865,0.82664199865,0.99675859865,1.09353704865,1.04063794865,0.80369092465,0.39049597465,-0.12355697535,-0.44957197535,-0.54311965135,-0.44019680135,-0.23806150135,-0.22409400135,-0.34579715135,-0.40503825135,-0.3207762544,-0.0977671044,0.1494142456,0.2491760236,0.19387917165,0.07968177165,0.00699666165,0.02539339865,0.12580230365,0.24911490365,0.32570041365,0.30131574735,0.13733959735,-0.17433810265,-0.50176975265,1714,"DG_s09",3,3.625,4.797,4.797,12,12,10,10,1.172,"Left",12,12,0,0,0,0,0,0,0,0,0,"Equal",2,2,12,10,12,10
"6",2,"POL LAM5-Ref-POL LAM6-Ref",0.1495333465,1.0244630465,1.8210129915,2.3084873415,2.4088038415,2.1225755915,1.5304965415,0.776255118,0.078879918,-0.363970632,-0.555727082,-0.6097590085,-0.7126469085,-0.7812624085,-0.6978154175,-0.4294500175,0.0242327325,0.4073596825,0.6316905915,0.7607660415,0.8160216915,0.7306598415,0.40024054,-0.04183646,-0.2669641595,-0.2382436095,0.036682092,0.356949642,0.4328594415,0.3285968915,0.121106003,-0.162988547,-0.454584397,-0.601380827,-0.558967873,-0.350141173,1714,"DG_s09",3,3.625,4.797,4.797,12,12,10,10,1.172,"Left",12,12,0,0,0,0,0,0,0,0,0,"Equal",2,2,12,10,12,10
"7",2,"POL LAM6-Ref-POL LAM7-Ref",-1.61621004955,-1.580520286,-1.531656856,-1.50157632,-1.482307055,-1.46861749,-1.471200065,-1.496363765,-1.51780787,-1.48528007,-1.36535513,-1.17468729,-0.986454685,-0.902413785,-0.9975119495,-1.2513748045,-1.5192716545,-1.6792891334,-1.7177960134,-1.7088384784,-1.7995703784,-2.0471226995,-2.269732205,-2.359257035,-2.307471285,-2.154330435,-2.069640235,-2.104555385,-2.153463985,-2.05458809345,-1.72974339345,-1.20194384345,-0.63771104345,-0.297863385,-0.348944535,-0.7319594875,1714,"DG_s09",3,3.625,4.797,4.797,12,12,10,10,1.172,"Left",12,12,0,0,0,0,0,0,0,0,0,"Equal",2,2,12,10,12,10
"8",2,"POL LAM3-Ref-POL LAM4-Ref",0.8203717615,1.2024512115,1.33822245,1.2111097745,0.8605951245,0.3938355745,0.0681938745,0.000166363800000013,0.1868691138,0.5420710138,0.8016541638,0.8167879935,0.5568509935,0.2537960935,0.1606110445,0.307269251,0.671791001,1.018761251,1.14511665,1.0844283,0.88706450635,0.59268705635,0.28683410635,0.11044840635,0.099094632025,0.217080270125,0.350976985125,0.357703235125,0.2574482031,0.137404965,0.04540345,-0.0252028499999999,-0.1120144,-0.1876431,-0.18282095,-0.0621918945,1714,"DG_s09",3,3.625,4.797,4.797,12,12,10,10,1.172,"Left",12,12,0,0,0,0,0,0,0,0,0,"Equal",2,2,12,10,12,10
"9",2,"POL ROF4-Ref-POL ROF5-Ref",0.4789115919,0.1199423819,-0.2637473181,-0.5574929181,-0.7241194531,-0.7897482931,-0.7992588931,-0.7559133501,-0.6273855226,-0.4051696726,-0.1410767226,0.0566626844000001,0.0901191569,-0.06493762245,-0.34592537245,-0.64950852245,-0.91006917245,-1.1178419431,-1.2632693931,-1.3088547931,-1.2401408931,-1.0508630981,-0.80233104695,-0.63667548145,-0.65908883145,-0.82839342645,-0.8657209061,-0.6629301216,-0.2041069716,0.3794640784,0.7465425569,0.7980717569,0.5867376569,0.2159915414,-0.2179138586,-0.6438927086,1714,"DG_s09",3,3.625,4.797,4.797,12,12,10,10,1.172,"Left",12,12,0,0,0,0,0,0,0,0,0,"Equal",2,2,12,10,12,10
"10",2,"POL RPC2-Ref-POL RPC3-Ref",0.3226689849,0.4447217349,0.5926699524,0.76346245,0.93647565,1.0682557,1.1024803,0.99408327,0.766278592,0.565756746,0.540671946,0.729083176,1.054641504,1.3164568,1.33752515,1.080806734,0.627559034,0.183320434,-0.087095416,-0.1696642,-0.1235141,-0.0894769,-0.14523325,-0.24862,-0.3778161,-0.49603425,-0.48423095,-0.35169609,-0.115563193,0.161876827,0.31643348642,0.32788472642,0.22897662942,0.05820915942,-0.1624325,-0.37609375,1714,"DG_s09",3,3.625,4.797,4.797,12,12,10,10,1.172,"Left",12,12,0,0,0,0,0,0,0,0,0,"Equal",2,2,12,10,12,10
"11",2,"POL RAM6-Ref-POL RAM7-Ref",0.0788138810000001,0.373377881,0.750180431,0.931763294,0.857193578,0.577464078,0.248259128,0.064430065,0.0837114900000001,0.2858703335,0.5369957535,0.6334090885,0.4904311485,0.256117655,0.190324705,0.32304187,0.61684917,0.8286025085,0.6813421885,0.4272873885,0.300535614,0.32332483885,0.45580663385,0.44803933385,0.33023730835,0.285990644,0.35602074035,0.52830843785,0.68284593225,0.80911823325,0.9784852419,1.1961136444,1.39397875,1.5325481,1.66239345,1.828679,1714,"DG_s09",3,3.625,4.797,4.797,12,12,10,10,1.172,"Left",12,12,0,0,0,0,0,0,0,0,0,"Equal",2,2,12,10,12,10
"12",2,"POL LAM1-Ref-POL LAM2-Ref",0.537827436,0.695124736,0.7618617065,0.76474592,0.7158553025,0.5856074525,0.3363440025,0.1817912225,0.3047427115,0.7317302615,1.4129133115,1.9986906615,2.19054789,1.938257366,1.392262791,0.874249266,0.56515822275,0.48997229675,0.59109972175,0.72681719675,0.84437689,0.92809944,0.94024364,0.92221528,0.98475893,1.18021968,1.47153613,1.69996084,1.71222399,1.49320865,1.1196465735,0.7421481735,0.5163424445,0.4870491945,0.618319171,0.801220821,1714,"DG_s09",3,3.625,4.797,4.797,12,12,10,10,1.172,"Left",12,12,0,0,0,0,0,0,0,0,0,"Equal",2,2,12,10,12,10
"13",2,"POL RPC3-Ref-POL RPC4-Ref",0.12987345,0.21303555,0.4447529055,0.8280063055,1.2609501055,1.5920771055,1.7626781,1.7757663,1.66133635,1.4461847085,1.1455522585,0.7958761585,0.5233924085,0.42382505,0.504571095,0.713599678295,0.899369635295,0.946320670295,0.833145975295,0.602814742,0.416570785,0.38763865,0.5274350185,0.7753500635,0.9557738081,0.9633154081,0.8213518896,0.6132501946,0.43447655,0.3436336,0.3348292,0.34507345,0.31263575,0.30139155,0.41886763505,0.70736813505,1714,"DG_s09",3,3.625,4.797,4.797,12,12,10,10,1.172,"Left",12,12,0,0,0,0,0,0,0,0,0,"Equal",2,2,12,10,12,10
"14",2,"POL RAM5-Ref-POL RAM6-Ref",-0.27571542885,-0.10119044885,0.13022485115,0.37095220115,0.58855349415,0.77158441415,0.91618821415,1.01389786415,1.04405666415,0.97622531415,0.78831683065,0.4865334089,0.1085500589,-0.2979968911,-0.5893588576,-0.62378212085,-0.39217988485,0.06532336515,0.55695141515,0.84155400015,0.79460836665,0.38561946665,-0.01270932335,-0.12679209835,0.08254414915,0.58696674915,1.00885843915,1.12758151415,0.99095381415,0.69513406915,0.33793616915,-0.000227580849999992,-0.23623318085,-0.31323903585,-0.23341084185,-0.04646429185,1714,"DG_s09",3,3.625,4.797,4.797,12,12,10,10,1.172,"Left",12,12,0,0,0,0,0,0,0,0,0,"Equal",2,2,12,10,12,10
"15",2,"POL LAM2-Ref-POL LAM3-Ref",0.9237076506,1.3812160373,1.6403437873,1.6806507873,1.5300530373,1.2296954873,0.8040310603,0.3056837603,0.014312428,0.014900028,0.264522855,0.651314205,0.8548356873,0.8478323373,0.7952793873,0.8032667373,0.8718397373,0.9033039373,0.7897115023,0.55668409985,0.32702856485,0.1981350246,0.1938741096,0.28765826205,0.43519444705,0.6047074373,0.7777160373,0.9254836873,1.0029937873,0.9727414873,0.8343340873,0.6502461873,0.5267976373,0.5355142373,0.6822519873,0.9071805873,1714,"DG_s09",3,3.625,4.797,4.797,12,12,10,10,1.172,"Left",12,12,0,0,0,0,0,0,0,0,0,"Equal",2,2,12,10,12,10
"16",2,"POL RHP4-Ref-POL RHP5-Ref",0.77504814,1.05523814,1.19165029,1.12742754,0.85106114,0.4151238595,-0.0345295405,-0.3069776655,-0.3353108655,-0.162512635,0.063150665,0.145631225,0.023808935,-0.229618015,-0.466410815,-0.5878602,-0.574511035,-0.47455145,-0.38681509,-0.346741015,-0.312872891,-0.240474776,-0.105170536,0.094497039,0.32080064,0.52104144,0.64449529,0.64032399,0.48901434,0.2355206051,-0.0218562749,-0.19867432775,-0.27556700525,-0.29547880435,-0.33025592435,-0.4198375215,1714,"DG_s09",3,3.625,4.797,4.797,12,12,10,10,1.172,"Left",12,12,0,0,0,0,0,0,0,0,0,"Equal",2,2,12,10,12,10
"17",2,"POL ROF3-Ref-POL ROF4-Ref",0.773630774,1.102009574,1.349895374,1.5094258,1.6564135,1.8730474,2.16629475,2.43699135,2.5092939,2.242788975,1.631740975,1.012007475,0.69290264745,0.67792437245,0.89488605745,1.02297287295,0.8370364005,0.5153334505,0.3297665155,0.3637014156,0.6037287356,0.8979992806,1.0043690421,0.8534461765,0.5191897065,0.2652060615,0.1446742,0.15413615,0.24561365,0.2829478,0.343268,0.483809141,0.679594407985,0.813011467985,0.786887367985,0.644667676985,1714,"DG_s09",3,3.625,4.797,4.797,12,12,10,10,1.172,"Left",12,12,0,0,0,0,0,0,0,0,0,"Equal",2,2,12,10,12,10
"18",2,"POL ROF1-Ref-POL ROF2-Ref",-0.70561887692485,-0.79369605,-0.8144959,-0.79997565,-0.7855885,-0.78789485,-0.8214548,-0.9128576,-1.0642974,-1.16225805,-1.16081465,-1.0519377,-0.85614205,-0.69051547,-0.57831864055,-0.49299187055,-0.40475572055,-0.28757990055,-0.12792783,0.05834035,0.21440035,0.25336935,0.0931200110000001,-0.263879339,-0.5522269495,-0.5920036945,-0.3599293055,0.0753672945000001,0.408390955,0.45678245,0.2363595995,-0.1382238005,-0.4957422005,-0.7312570505,-0.83867005,-0.87794955,1714,"DG_s09",3,3.625,4.797,4.797,12,12,10,10,1.172,"Left",12,12,0,0,0,0,0,0,0,0,0,"Equal",2,2,12,10,12,10
"19",2,"POL RAM2-Ref-POL RAM3-Ref",-0.5512911495,-0.290203934,0.021447616,0.224256713,0.226329038,0.0473928225,-0.1058715925,-0.068275795,0.190083605,0.577781255,0.83681542,0.794769539,0.476914439,0.086046789,-0.180003561,-0.2857405745,-0.2941972245,-0.3645196745,-0.5506179245,-0.6990328745,-0.7335560245,-0.6221278245,-0.4117324745,-0.2240843245,-0.0891034245,-0.0304957245,-0.0615948245,-0.1293160245,-0.126490727,0.018485038,0.311600538,0.672992888,0.9721966905,1.1249942255,1.1153104255,0.9837178255,1714,"DG_s09",3,3.625,4.797,4.797,12,12,10,10,1.172,"Left",12,12,0,0,0,0,0,0,0,0,0,"Equal",2,2,12,10,12,10
"20",2,"POL RHP5-Ref-POL RHP6-Ref",-0.891480197,-1.155921347,-1.1874208715,-0.9887354715,-0.6483891715,-0.3948738715,-0.29714075,-0.3116008,-0.3497485,-0.3347345,-0.2444148,-0.1181431,-0.0288887999999999,-0.0181106,-0.0694523,-0.14336465,-0.1961968,-0.172103,-0.03706955,0.1892744,0.44074375,0.61231135,0.6178273,0.45749155,0.2084466,-0.0365305,-0.2275651,-0.375045435,-0.5376501385,-0.7835653885,-1.1010221385,-1.3007269535,-1.3086074831,-1.1192394581,-0.7832836581,-0.4901986581,1714,"DG_s09",3,3.625,4.797,4.797,12,12,10,10,1.172,"Left",12,12,0,0,0,0,0,0,0,0,0,"Equal",2,2,12,10,12,10
"21",2,"POL RPC1-Ref-POL RPC2-Ref",-0.2115381,-0.35259335,-0.397479,-0.32465885,-0.14561745,0.062985,0.20027715,0.2383083,0.1910595,0.1026983,0.02856435,0.00980444999999996,0.0610601,0.17392996,0.3320884014,0.5282338514,0.7635618514,1.0301438414,1.291314,1.47576085,1.493976,1.278949122,0.869488972,0.518801597,0.3985166415,0.5071941695,0.7352549695,0.8276139945,0.72526715,0.5977621976,0.5773012976,0.6950949976,0.8809672976,1.01599285,1.0620031,1.05748225,1714,"DG_s09",3,3.625,4.797,4.797,12,12,10,10,1.172,"Left",12,12,0,0,0,0,0,0,0,0,0,"Equal",2,2,12,10,12,10
"22",2,"POL RAM3-Ref-POL RAM4-Ref",-0.977462554,-0.884984009,-0.567522609,-0.174090209,0.044022235,0.09241535,0.0468359,0.0078627,0.0394106,0.1246309,0.17227075,0.06955610075,-0.21787844925,-0.54160684925,-0.74681059425,-0.820684775,-0.806428325,-0.7449872813,-0.6076926913,-0.3442171113,0.0341100387,0.369067195,0.4718175,0.30645297,-0.0257738435,-0.3225159265,-0.4397961265,-0.3618383965,-0.179943433,-0.06156095,-0.09214045,-0.23105566245,-0.39377878245,-0.51368609745,-0.55848319535,-0.5194484779,1714,"DG_s09",3,3.625,4.797,4.797,12,12,10,10,1.172,"Left",12,12,0,0,0,0,0,0,0,0,0,"Equal",2,2,12,10,12,10
"23",2,"POL RAM4-Ref-POL RAM5-Ref",-0.2441173425,-0.1204222425,0.017789865,0.178226685,0.323362535,0.3906389635,0.330812281,0.152344511,-0.00567533900000006,-0.0488499575,0.01914827595,0.13508783095,0.14230198095,0.02378702095,-0.0805940875,-0.0975756925,-8.21556300000248e-05,0.18784429437,0.39354879437,0.58648269437,0.7043387075,0.6272487735,0.3774015235,0.32780215415,0.56728355415,1.08316148815,1.67373743815,1.8464768575,1.5167953905,0.8846535405,0.3625436905,0.0633314905,-0.0254984925,0.0221167075,0.0736184275,0.2024934275,1714,"DG_s09",3,3.625,4.797,4.797,12,12,10,10,1.172,"Left",12,12,0,0,0,0,0,0,0,0,0,"Equal",2,2,12,10,12,10
"24",2,"POL ROF6-Ref-POL ROF7-Ref",-0.05519441055,0.38235478945,0.63353566445,0.52635594745,0.15363934745,-0.05996165555,0.02770274445,0.40957275945,0.90511935945,1.05774601245,0.75496653945,0.18104978945,-0.16309471105,-0.16775931105,0.17822736195,0.72903461195,1.06502711245,1.15753806245,1.04612356245,0.79449111245,0.50427300745,0.29077572745,0.21093262745,0.24601377745,0.31571843245,0.32600222245,0.2476561183,0.1139398583,-0.0266874417,-0.1377975517,-0.20328199755,-0.22764538755,-0.23110518755,-0.24259428755,-0.28838978755,-0.37798663755,1714,"DG_s09",3,3.625,4.797,4.797,12,12,10,10,1.172,"Left",12,12,0,0,0,0,0,0,0,0,0,"Equal",2,2,12,10,12,10
"25",3,"POL LAM6-Ref-POL LAM7-Ref",1.095939765,1.069258387,0.802209437,0.527449137,0.4055225265,0.4600643795,0.613951747,0.658438747,0.5208788575,0.3101086675,0.1457208,0.10262655,0.247879615,0.565697265,0.986621915,1.422447315,1.72389855,1.75924425,1.486983662,0.966378112,0.441657562,0.132514162,0.0601335500000001,0.19921555,0.36363325,0.385718,0.26755895,0.0571369500000001,-0.0528400999999999,-0.0364588499999999,0.0737766000000001,0.17451515,0.11405905,0.175491012,0.459391312,0.988885812,1715,"DG_s09",5.797,6.422,7.688,7.688,10,10,8,8,1.266,"Left",8,8,0,0,0,0,0,0,0,0,0,"10-10",2,2,10,8,10,8
"26",3,"POL ROF2-Ref-POL ROF3-Ref",1.4418127825,1.8352351775,1.897505,1.5924730375,1.23742015598,1.12088595598,1.30431990598,1.71413426848,2.03878365,2.0920629,1.9275845,1.628112613,1.260348893,0.898798493,0.617841943,0.45328863,0.44667538,0.6157301325,0.9063341325,1.2418860825,1.4915504525,1.5063745709,1.2627704109,0.9478682609,0.7632490809,0.75842926,0.881457905,0.9638250795,0.9047607595,0.7942885095,0.7479089455,0.801418571,0.910970621,0.9875951465,0.9653024344,0.8402612344,1715,"DG_s09",5.797,6.422,7.688,7.688,10,10,8,8,1.266,"Left",8,8,0,0,0,0,0,0,0,0,0,"10-10",2,2,10,8,10,8
"27",3,"POL LAM5-Ref-POL LAM6-Ref",0.3528111555,0.8469128055,1.3705832055,1.6755336975,1.6417671475,1.286991081,0.871012871,0.6500032795,0.6770987295,0.880601196,0.993079337,0.8024174785,0.4326581285,0.2065956785,0.177015284,0.336009309,0.531881746,0.468648546,0.2144767595,0.0930275895,0.175644668,0.482340568,0.939325518,1.256091163,1.3944122475,1.3695934975,1.2180518925,1.0102218525,0.8596140525,0.8564422525,1.0082013575,1.2384864975,1.4021199475,1.3657511325,1.0937607235,0.7021284735,1715,"DG_s09",5.797,6.422,7.688,7.688,10,10,8,8,1.266,"Left",8,8,0,0,0,0,0,0,0,0,0,"10-10",2,2,10,8,10,8
"28",3,"POL RPC4-Ref-POL RPC5-Ref",-0.3237126304,-0.56682029215,-0.74105285715,-0.78271550715,-0.68118665715,-0.44179099765,-0.15596489765,0.14841185235,0.48303395235,0.82326754285,1.10067854285,1.22981984285,1.15755559285,0.91752034285,0.65125954285,0.50987619285,0.54335369285,0.69248699285,0.82331619285,0.85623409285,0.85041944285,0.89453339285,1.00144949285,1.08192174285,0.97716012285,0.57038352785,0.08187957785,-0.09998142915,0.06809424085,0.56471683585,1.09780428585,1.27925234285,1.12274419285,0.73782188585,0.27870893585,-0.11866456415,1715,"DG_s09",5.797,6.422,7.688,7.688,10,10,8,8,1.266,"Left",8,8,0,0,0,0,0,0,0,0,0,"10-10",2,2,10,8,10,8
"29",3,"POL LAM2-Ref-POL LAM3-Ref",0.608644661,0.800314411,1.015183121,1.19214395,1.27958795,1.26673,1.17854655,1.0563926,0.93434535,0.822430175,0.71589847605,0.63850599705,0.66118596705,0.83769284205,1.164452941,1.56093157,1.88004805,1.9978919,1.86461665,1.514934925,1.094166435,0.794450502,0.701364502,0.807011177,1.015813717,1.1924179,1.2872116,1.29374515,1.20158455,1.004943690455,0.730551040455,0.473853240455,0.354617232955,0.4306589575,0.6980100575,1.0609873075,1715,"DG_s09",5.797,6.422,7.688,7.688,10,10,8,8,1.266,"Left",8,8,0,0,0,0,0,0,0,0,0,"10-10",2,2,10,8,10,8
"30",3,"POL RPC5-Ref-POL RPC6-Ref",-0.2561508,-0.17398015,-0.0284843,0.17435165,0.34557205,0.41403965,0.38324695,0.385408238215,0.536080843215,0.865671543215,1.308176493215,1.670477655,1.8172994,1.76320345,1.62360035,1.5099282,1.44716435,1.36918075,1.1955112565,0.9964345015,0.9366906015,1.0745466015,1.349846195,1.5468312,1.428446054,0.995724604,0.7062325855,0.7190593855,1.0500592315,1.6011651815,1.9180492,1.91113185,1.6755045,1.3591116,1.08173403,0.884833597625,1715,"DG_s09",5.797,6.422,7.688,7.688,10,10,8,8,1.266,"Left",8,8,0,0,0,0,0,0,0,0,0,"10-10",2,2,10,8,10,8
"31",3,"POL RAM2-Ref-POL RAM3-Ref",0.44816818785,0.57879625285,0.78268555285,0.99255910285,1.0722707435,0.983490939,1.006647289,1.407601289,2.2788373605,3.44479615,4.34915005,4.48446155,3.6881701885,2.6126814835,1.9485264835,1.7679314835,1.978080495,2.0110387,1.7019142,1.4798708,1.53410515,1.81375565,1.99100795,1.86072635,1.52294415,1.15283773,0.883356865,0.760848515,0.745125415,0.7440390915,0.6584009115,0.4253776615,0.1171527615,-0.073322395,-0.12742155,-0.0417813,1715,"DG_s09",5.797,6.422,7.688,7.688,10,10,8,8,1.266,"Left",8,8,0,0,0,0,0,0,0,0,0,"10-10",2,2,10,8,10,8
"32",3,"POL RHP6-Ref-POL RHP7-Ref",0.791450138,0.7038543145,0.3608763645,-0.0107512355,-0.2301177005,-0.2955623,-0.2490292,-0.24970475,-0.25666655,-0.15126579635,0.09988870365,0.42771230365,0.60014184665,0.490472893,0.280063593,0.2882053665,0.6130782735,1.2542633235,1.9494807735,2.33559775,2.32819385,1.9999014,1.5740193,1.30431345,1.29248535,1.4658658,1.60650615,1.4890501825,1.0735378075,0.5739780075,0.2481759775,0.15588514215,0.25492410105,0.37217328605,0.36835241605,0.3238064139,1715,"DG_s09",5.797,6.422,7.688,7.688,10,10,8,8,1.266,"Left",8,8,0,0,0,0,0,0,0,0,0,"10-10",2,2,10,8,10,8
"33",3,"POL ROF3-Ref-POL ROF4-Ref",1.58818275525,2.2742673615,2.4706683115,2.070740007,1.3641623445,0.9508462445,0.9951147445,1.479530549,2.0818457115,2.2878938115,2.1109503115,1.7598418115,1.4509159115,1.2941926615,1.2757510615,1.2988821615,1.2607328615,1.1203861615,0.888670416,0.597871351,0.316642351,0.1608642065,0.208440967,0.459543082,0.822711632,1.1209566265,1.2018547115,0.99893970905,0.57617555905,0.20344475905,0.03736003805,0.0787791455,0.24261627,0.29747467,0.160470191,-0.052562914,1715,"DG_s09",5.797,6.422,7.688,7.688,10,10,8,8,1.266,"Left",8,8,0,0,0,0,0,0,0,0,0,"10-10",2,2,10,8,10,8
"34",3,"POL RHP4-Ref-POL RHP5-Ref",-0.2342429215,0.0338658285,0.3733611285,0.5213355485,0.457547911,0.212589311,-0.138979189,-0.353954609,-0.3854163,-0.26304735,-0.07492325,-0.0755278,-0.2173255,-0.28217245,-0.19451857,0.05853508,0.36537448,0.52703783,0.5439124,0.4964499,0.45715825,0.4626732,0.51626275,0.5997441,0.70147095,0.8193104,0.94325575,1.05672165,1.1609124,1.27394425,1.3944328,1.47443575,1.42023105,1.1316287535,0.6411617035,0.2880177715,1715,"DG_s09",5.797,6.422,7.688,7.688,10,10,8,8,1.266,"Left",8,8,0,0,0,0,0,0,0,0,0,"10-10",2,2,10,8,10,8
"35",3,"POL RAM5-Ref-POL RAM6-Ref",0.2159646,0.342708,0.5450829371,0.8001041871,1.0823034871,1.3545010371,1.54658895,1.564423085,1.3415886645,0.9631458645,0.7039102855,0.6567724905,0.814777261,1.092870311,1.32095219,1.513257,1.68977585,1.78523375,1.684441868,1.365997703,0.978296953,0.684797403,0.564580235,0.6355297005,0.8145162005,0.9903935505,1.0947071905,1.12500715,1.19985885,1.42372525,1.80048341,2.1934324,2.35311065,2.141460306,1.608518661,0.932671311,1715,"DG_s09",5.797,6.422,7.688,7.688,10,10,8,8,1.266,"Left",8,8,0,0,0,0,0,0,0,0,0,"10-10",2,2,10,8,10,8
"36",3,"POL RAM6-Ref-POL RAM7-Ref",0.3029992345,0.1797738345,0.1793168345,0.2699947345,0.3264124845,0.2968520845,0.3188022345,0.5468662845,1.0278488345,1.6592286845,2.2239190345,2.5225560345,2.4446470345,1.9849559845,1.254487736,0.487548486,-0.04969974575,-0.25015179075,-0.16361024225,0.02611175775,0.0971442225,-0.0148516175,-0.1874174475,-0.2257921785,-0.0556737115,0.2665527235,0.5538045035,0.5948187345,0.3438550445,-0.0830966555,-0.4943469055,-0.7638627055,-0.8280602155,-0.692347362,-0.454704857,-0.206087407,1715,"DG_s09",5.797,6.422,7.688,7.688,10,10,8,8,1.266,"Left",8,8,0,0,0,0,0,0,0,0,0,"10-10",2,2,10,8,10,8
"37",3,"POL ROF6-Ref-POL ROF7-Ref",-0.27209245,-0.020661645,0.242599455,0.429447025,0.5113183555,0.4916746555,0.4187091055,0.3673822305,0.39180565815,0.50251965315,0.66812850315,0.84333765815,1.01181325,1.18744685,1.3826187,1.57711745,1.7080867,1.6857572,1.4303433561,0.9405500061,0.4932739061,0.3269813226,0.4608941665,0.8339469165,1.1587358165,1.24906105,1.17485225,1.04692735,0.94208835,0.8719102,0.797029535,0.6764645125,0.5237987625,0.4113942975,0.398830469,0.4897986915,1715,"DG_s09",5.797,6.422,7.688,7.688,10,10,8,8,1.266,"Left",8,8,0,0,0,0,0,0,0,0,0,"10-10",2,2,10,8,10,8
"38",3,"POL ROF5-Ref-POL ROF6-Ref",-0.1380249,-0.0858149,-0.0664214000000001,-0.0928754500000001,-0.1578389,-0.2219985,-0.2444636,-0.20385295,-0.0961889,0.05243805,0.216644973,0.3936568235,0.5848707735,0.7862834735,0.9821180005,1.1399384,1.2197188,1.19908585,1.1019295,0.99874565,0.95904565,1.00591905,1.10384755,1.1833282,1.20373255,1.18702115,1.19337055,1.2748703,1.43668685,1.62564415,1.75422845,1.74345695,1.5561863,1.209409112,0.767259712,0.319271212,1715,"DG_s09",5.797,6.422,7.688,7.688,10,10,8,8,1.266,"Left",8,8,0,0,0,0,0,0,0,0,0,"10-10",2,2,10,8,10,8
"39",3,"POL RPC2-Ref-POL RPC3-Ref",-0.199157787,-0.640343337,-0.846230687,-0.797021357,-0.521215757,-0.188685507,0.149998993,0.5448651965,0.9883659465,1.3959609965,1.6400819965,1.6093924965,1.2560330465,0.61659724285,-0.13585980715,-0.62862945715,-0.80949174415,-0.725218361375,-0.499860771375,-0.360027517375,-0.171412930375,0.1858509905,0.7016569505,1.1973948465,1.3947323465,1.1019609865,0.4379813865,0.0608620465,0.1452856965,0.6929075565,1.4741731565,1.8249724965,1.6667337465,1.1596950965,0.55606649556,0.08570375756,1715,"DG_s09",5.797,6.422,7.688,7.688,10,10,8,8,1.266,"Left",8,8,0,0,0,0,0,0,0,0,0,"10-10",2,2,10,8,10,8
"40",3,"POL RAM3-Ref-POL RAM4-Ref",-0.8673583335,-0.897825318,-0.8278127625,-0.8116156125,-0.748544564,-0.479608739,0.1920199955,1.3746336455,2.89826995,4.67912785,6.37385885,7.37940685,7.18452935,5.70581885,3.4252323095,1.4559991365,0.3490268865,0.2141653865,0.872132427,1.5635936,1.96021135,1.96865435,1.5490326,0.89021345,0.30033535,-0.0735584500000001,-0.24432945,-0.31176665,-0.34908655,-0.3358005,-0.27099055,-0.24255976,-0.381187344,-0.710599194,-1.102299694,-1.369875834,1715,"DG_s09",5.797,6.422,7.688,7.688,10,10,8,8,1.266,"Left",8,8,0,0,0,0,0,0,0,0,0,"10-10",2,2,10,8,10,8
"41",3,"POL RHP5-Ref-POL RHP6-Ref",0.67136644185,1.12859114185,1.39923150035,1.47637760035,1.38627975035,1.17258245035,0.89550190335,0.62392750335,0.39051255335,0.17279220335,-0.05975144965,-0.22350279965,-0.30909619965,-0.36242434965,-0.37814974965,-0.28350756965,-0.0717764156499999,0.28672138435,0.71389168435,0.92178520435,0.82434998985,0.48030973985,0.13240198985,-0.0424484101499999,-0.03488564965,0.09265700035,0.18263310035,0.21295121535,0.2749293912,0.4198397412,0.6350990412,0.8357894262,0.94370350035,0.91031354385,0.70414615385,0.42193420385,1715,"DG_s09",5.797,6.422,7.688,7.688,10,10,8,8,1.266,"Left",8,8,0,0,0,0,0,0,0,0,0,"10-10",2,2,10,8,10,8
"42",3,"POL ROF4-Ref-POL ROF5-Ref",0.5807516038,0.6393026451,0.6283783001,0.5491292983,0.4084743113,0.26794282,0.2409105954,0.3815909104,0.6704257104,0.9930987104,1.174707615,1.147140805,1.02410284,0.99267934,1.13872919,1.424212185,1.6793505,1.7226871,1.52405343,1.1709599915,0.7895094915,0.4789495415,0.2734236115,0.14736475,0.04660315,-0.0737007999999999,-0.22459335,-0.33828455,-0.31312135,-0.1076081675,0.2623829325,0.6712551325,0.9394443825,0.9613369425,0.7759285425,0.6100751765,1715,"DG_s09",5.797,6.422,7.688,7.688,10,10,8,8,1.266,"Left",8,8,0,0,0,0,0,0,0,0,0,"10-10",2,2,10,8,10,8
"43",3,"POL RPC1-Ref-POL RPC2-Ref",-0.26815753585,-0.09139428585,0.01171344915,0.10214751415,0.23727506415,0.43992876415,0.70528362915,1.01528831415,1.33889731415,1.61805391415,1.77260136415,1.74735536415,1.56279751415,1.30505826415,1.06042236415,0.86558216415,0.70821126415,0.55712113915,0.39138623575,0.20158033575,-0.01926266425,-0.25083868925,-0.42276648585,-0.49630683585,-0.48485803585,-0.44869453585,-0.46737818585,-0.52468383585,-0.56708438585,-0.58705468585,-0.60485648585,-0.59015268585,-0.48156890085,-0.24884120085,0.09694764915,0.43248379915,1715,"DG_s09",5.797,6.422,7.688,7.688,10,10,8,8,1.266,"Left",8,8,0,0,0,0,0,0,0,0,0,"10-10",2,2,10,8,10,8
"44",3,"POL LAM1-Ref-POL LAM2-Ref",1.6175517385,2.0184533,2.21492385,2.12921765,1.7521831705,1.1431017705,0.4903132705,0.1224755205,0.053922594,0.22383278255,0.48475378755,0.65263163205,0.87036028805,1.2142879995,1.6460734945,1.9915066,2.05763,1.80150191,1.3075735495,0.7202235495,0.2475966495,0.0393883895,0.1064973415,0.3968498415,0.7580678915,1.0395314915,1.18049335,1.153719315,0.972771687,0.710112687,0.495629187,0.451277618,0.632104196,1.008629896,1.463098446,1.84855855,1715,"DG_s09",5.797,6.422,7.688,7.688,10,10,8,8,1.266,"Left",8,8,0,0,0,0,0,0,0,0,0,"10-10",2,2,10,8,10,8
"45",3,"POL LAM3-Ref-POL LAM4-Ref",1.9555256505,2.3839625005,2.6053183505,2.5643763505,2.2679766505,1.8026534005,1.3285287355,1.0032101455,0.8875408455,0.9464128455,1.0818026105,1.2020409005,1.2832695505,1.3376566505,1.3739630505,1.3828657005,1.3440763505,1.2401908505,1.0615875515,0.8120298515,0.5276547015,0.3026496015,0.2201350505,0.288085156,0.450475836,0.58034737,0.56614162,0.4300867645,0.3428672145,0.426109809,0.718472459,1.164813059,1.592183779,1.8961394005,2.0500693505,2.0513973505,1715,"DG_s09",5.797,6.422,7.688,7.688,10,10,8,8,1.266,"Left",8,8,0,0,0,0,0,0,0,0,0,"10-10",2,2,10,8,10,8
"46",3,"POL ROF1-Ref-POL ROF2-Ref",-1.393136488,-1.617968038,-1.623637905,-1.460696065,-1.333355165,-1.339300365,-1.41712076,-1.443436732,-1.328584932,-1.061299632,-0.702551232,-0.38904915,-0.22898775,-0.24963935,-0.4078044,-0.6023407,-0.7203925,-0.69141935,-0.51111355,-0.24908575,-0.00850529999999994,0.13396705,0.1491484,0.0565058000000001,-0.10486315,-0.32349285,-0.6172381555,-0.9418752555,-1.142538356,-1.172993956,-1.0670075505,-0.945919686,-1.0090837555,-1.2578068055,-1.5494570555,-1.80623102,1715,"DG_s09",5.797,6.422,7.688,7.688,10,10,8,8,1.266,"Left",8,8,0,0,0,0,0,0,0,0,0,"10-10",2,2,10,8,10,8
"47",3,"POL RPC3-Ref-POL RPC4-Ref",-1.1611495604,-1.1090904604,-0.9321909604,-0.6565939454,-0.37341357795,-0.02930992795,0.39796157205,0.85714805705,1.2378555896,1.4345914396,1.3894209396,1.1092342396,0.6681877931,0.1937305931,-0.1672577569,-0.3103784959,-0.2162402494,0.0483537006,0.3596051506,0.6072644396,0.7460573396,0.7764165896,0.6910534396,0.4483213101,-0.0082247399,-0.4485681899,-0.6068284019,-0.4898021224,-0.1274974224,0.1837314676,0.1841500566,-0.0518595934,-0.4057435434,-0.6803213334,-0.7148772244,-0.4835821794,1715,"DG_s09",5.797,6.422,7.688,7.688,10,10,8,8,1.266,"Left",8,8,0,0,0,0,0,0,0,0,0,"10-10",2,2,10,8,10,8
"48",3,"POL RAM4-Ref-POL RAM5-Ref",0.3164487974,-0.0428851526,-0.3623397026,-0.5172930876,-0.5101353181,-0.3736653181,-0.3004356181,-0.2574808936,-0.0849887436,0.2939441064,0.8410122064,1.3746999819,1.6994263319,1.7631544819,1.6780144819,1.6021844819,1.6171744819,1.6972794819,1.7387204819,1.6736549819,1.5231094819,1.3168179319,1.0237789219,0.5663245354,0.1122737854,-0.0463822966,0.0618120634,0.3761562999,0.6046176349,0.5072673404,0.3813005704,0.4088354704,0.6070903854,0.8233774619,0.7724671689,0.4204152189,1715,"DG_s09",5.797,6.422,7.688,7.688,10,10,8,8,1.266,"Left",8,8,0,0,0,0,0,0,0,0,0,"10-10",2,2,10,8,10,8
"49",4,"POL ROF2-Ref-POL ROF3-Ref",0.13838919815,0.30133124815,0.40821048315,0.4169403645,0.3600020305,0.3294287805,0.3739684305,0.4609910105,0.4784745195,0.3372369195,0.1386914695,0.0173083105,-0.00846981199999999,-0.013774962,-0.127948762,-0.263919753,-0.299592573,-0.179517218,0.095469382,0.366457432,0.5667647495,0.7133301445,0.7978596445,0.7906667945,0.6716949245,0.448361627,0.152395727,-0.174182073,-0.450492703,-0.5567027055,-0.4677199656,-0.2244896456,0.0575550044,0.2073531019,0.159710612,-0.043804658,1716,"DG_s09",8.688,9.313,10.234,10.234,28,4,10,10,0.921,"Left",28,4,24,24,0,0,-24,0,-24,24,24,"Advent",18,-6,28,10,4,10
"50",4,"POL RAM4-Ref-POL RAM5-Ref",-1.035737796,-0.9691608785,-0.8288067785,-0.8281158262,-1.0188011762,-1.2758730762,-1.4709055762,-1.56517365,-1.56042115,-1.50176145,-1.44568175,-1.41665225,-1.4475562,-1.5123694,-1.52539395,-1.4834002,-1.43428105,-1.46835495,-1.490767155,-1.412458243,-1.202207943,-0.870005493,-0.617681888,-0.509756,-0.52304435,-0.6536093415,-0.9070804915,-1.2271253415,-1.4827341415,-1.6318553,-1.6786881,-1.680756,-1.73602105,-1.77601495,-1.69721817,-1.4989378565,1716,"DG_s09",8.688,9.313,10.234,10.234,28,4,10,10,0.921,"Left",28,4,24,24,0,0,-24,0,-24,24,24,"Advent",18,-6,28,10,4,10
"51",4,"POL ROF5-Ref-POL ROF6-Ref",0.3197075,0.2799827,0.1327330236,-0.0802277264,-0.2947418264,-0.4719888264,-0.61622,-0.7532166,-0.8815449,-0.9575471,-0.95210415,-0.8719053,-0.76936025,-0.7243958,-0.777229,-0.91126145,-1.0579246,-1.15692695,-1.18204935,-1.12312865,-0.9972583,-0.817914,-0.60306033525,-0.416567978,-0.353638448,-0.478912898,-0.63736256275,-0.644134875,-0.463212805,-0.112345855,0.218960595,0.4038045,0.51840935,0.6306929,0.7327113,0.75171075,1716,"DG_s09",8.688,9.313,10.234,10.234,28,4,10,10,0.921,"Left",28,4,24,24,0,0,-24,0,-24,24,24,"Advent",18,-6,28,10,4,10
"52",4,"POL LAM5-Ref-POL LAM6-Ref",-0.3923116805,-0.2061753805,0.0871611695,0.3243692095,0.370100583,0.187939272,-0.183809028,-0.611764928,-0.888534968,-0.996012857,-0.948680357,-0.817126507,-0.744957507,-0.707118707,-0.671018057,-0.622123257,-0.548326007,-0.4283082405,-0.2464255905,-0.0175311405,0.2058111095,0.341265043,0.3080200995,0.0766625695,-0.3023523805,-0.6659210305,-0.864869737,-0.869904557,-0.715865657,-0.528214757,-0.393361827,-0.2821483126,-0.1675913626,-0.0603204126,-0.01022124465,-0.06001138405,1716,"DG_s09",8.688,9.313,10.234,10.234,28,4,10,10,0.921,"Left",28,4,24,24,0,0,-24,0,-24,24,24,"Advent",18,-6,28,10,4,10
"53",4,"POL ROF6-Ref-POL ROF7-Ref",-0.0941929856999999,-0.3975461857,-0.7591486857,-1.0723660357,-1.28449675,-1.4054591,-1.4738188,-1.51463345,-1.5143378,-1.449104,-1.3194822,-1.16613055,-1.0305467,-0.93600595,-0.8927519,-0.89117405,-0.9027076,-0.89911305,-0.872857995,-0.84395837,-0.85720897,-0.95934972,-1.127281775,-1.2206126,-1.169896231,-0.981952181,-0.737977581,-0.6127908245,-0.6724008935,-0.8674569935,-1.0861937935,-1.2219934,-1.2392214,-1.17034615,-1.1050814,-1.1222034,1716,"DG_s09",8.688,9.313,10.234,10.234,28,4,10,10,0.921,"Left",28,4,24,24,0,0,-24,0,-24,24,24,"Advent",18,-6,28,10,4,10
"54",4,"POL RHP6-Ref-POL RHP7-Ref",-0.1343241745,-0.1313815745,-0.2590258745,-0.3623673245,-0.3691183745,-0.2691094245,-0.1277858745,-0.0909736745,-0.1960957245,-0.3338726745,-0.3768606245,-0.2983224245,-0.1099695745,0.0671630755,0.1168082755,0.0812943755,0.075514084,0.182179684,0.421900134,0.733437034,0.9922534255,1.1121044255,1.0770435755,0.9492597755,0.8446091255,0.8469380255,0.9575597255,1.0897797255,1.1131711255,0.9565095675,0.6615594175,0.3525124175,0.1365998675,0.0398728255,0.0152288255,-0.0248751245,1716,"DG_s09",8.688,9.313,10.234,10.234,28,4,10,10,0.921,"Left",28,4,24,24,0,0,-24,0,-24,24,24,"Advent",18,-6,28,10,4,10
"55",4,"POL RPC1-Ref-POL RPC2-Ref",-0.656088079,-0.832004529,-0.8855295715,-0.8392589565,-0.7438066435,-0.6441499835,-0.5741934285,-0.565695028,-0.640048741,-0.792902051,-0.977422306,-1.1008375215,-1.0859304565,-0.9191193616,-0.6542555616,-0.4098335616,-0.3082649276,-0.4243272525,-0.7497088025,-1.0028642025,-0.993422971,-0.697799191,-0.168444891,0.293826259,0.5056585785,0.4599973785,0.1861986785,-0.2465015215,-0.6322531215,-0.771044046,-0.626071296,-0.255399446,0.128875654,0.3346215785,0.3699372285,0.3349046285,1716,"DG_s09",8.688,9.313,10.234,10.234,28,4,10,10,0.921,"Left",28,4,24,24,0,0,-24,0,-24,24,24,"Advent",18,-6,28,10,4,10
"56",4,"POL LAM1-Ref-POL LAM2-Ref",0.9204477415,1.2655467915,1.4773313,1.430229404,1.137747889,0.8517410985,0.7732383985,0.9193827445,1.1609079595,1.215091269,0.999280869,0.7487483595,0.6635443095,0.7959943405,1.0555410905,1.21658695,1.1684297,0.96061704968,0.71527409968,0.57355469973,0.62218249973,0.85127400005,1.16314005005,1.4128541,1.4815294,1.3182380415,0.9365729415,0.4643795915,0.2031562765,0.263771025,0.654955675,1.267398275,1.80387494,2.14433165,2.2597988,2.1607206,1716,"DG_s09",8.688,9.313,10.234,10.234,28,4,10,10,0.921,"Left",28,4,24,24,0,0,-24,0,-24,24,24,"Advent",18,-6,28,10,4,10
"57",4,"POL RAM5-Ref-POL RAM6-Ref",-0.383150267,-0.996707017,-1.543915567,-1.843583272,-1.90687802,-1.79294266,-1.74611306,-1.863307805,-2.02146094,-2.1111443,-2.1009917,-1.98733736,-1.80234499445,-1.61936219445,-1.51623295845,-1.57339999845,-1.737817514,-1.819831406,-1.771918092,-1.605331342,-1.4516548935,-1.4803953015,-1.6194074515,-1.7500035515,-1.8084666,-1.7958972,-1.76024255,-1.73806685,-1.7342788,-1.74671645,-1.76933525,-1.77212029,-1.6994404045,-1.5136676545,-1.2355779545,-0.9608143145,1716,"DG_s09",8.688,9.313,10.234,10.234,28,4,10,10,0.921,"Left",28,4,24,24,0,0,-24,0,-24,24,24,"Advent",18,-6,28,10,4,10
"58",4,"POL LAM6-Ref-POL LAM7-Ref",0.178026946,0.081588516,-0.028974514,-0.110222514,-0.145849314,-0.159506714,-0.184618714,-0.186228914,-0.093515891,0.120961309,0.430976609,0.705115909,0.834154036,0.841049886,0.806581336,0.794497586,0.815718936,0.834382086,0.803532486,0.698055058,0.519765283,0.287798083,0.022102083,-0.262978039,-0.426058214,-0.396213714,-0.1765510115,0.2112511885,0.6015386885,0.8845417385,1.016928236,0.977293986,0.77570230765,0.47771595765,0.20407435765,0.03486765765,1716,"DG_s09",8.688,9.313,10.234,10.234,28,4,10,10,0.921,"Left",28,4,24,24,0,0,-24,0,-24,24,24,"Advent",18,-6,28,10,4,10
"59",4,"POL ROF3-Ref-POL ROF4-Ref",-0.7455390355,-1.0070116855,-1.15540175,-1.1503924,-0.9266684555,-0.5039103555,0.0750394445,0.6324703945,0.85720395,0.564380095,-0.073511755,-0.49366289,-0.64254829,-0.557996412,-0.412540112,-0.4190485385,-0.3209630885,-0.00208216150000001,0.4957323885,0.86524195,0.90510825,0.6646524,0.296213325,-0.0478599825,-0.29987490445,-0.48304175445,-0.64786617945,-0.76050272195,-0.7511096585,-0.6078173085,-0.3771548085,-0.1737431585,-0.07213645,-0.06973245,-0.16809995,-0.3949268,1716,"DG_s09",8.688,9.313,10.234,10.234,28,4,10,10,0.921,"Left",28,4,24,24,0,0,-24,0,-24,24,24,"Advent",18,-6,28,10,4,10
"60",4,"POL ROF4-Ref-POL ROF5-Ref",1.26005478585,1.60317448585,1.72252003585,1.50759928585,0.96089882385,0.29513757385,-0.15755367615,-0.36432877615,-0.40878696415,-0.46497231415,-0.46661768715,-0.30561641715,0.07213303285,0.62061213285,0.94565850585,0.92222579585,0.60935232185,0.17518332185,-0.20402822815,-0.44797723815,-0.55225021415,-0.58831966415,-0.64565296415,-0.71414811415,-0.69658756415,-0.55193336665,-0.29175063665,0.00972806335,0.20464686335,0.23012842735,0.13705384735,0.02286263735,-0.05011200765,-0.07823790915,-0.10027190915,-0.14462584915,1716,"DG_s09",8.688,9.313,10.234,10.234,28,4,10,10,0.921,"Left",28,4,24,24,0,0,-24,0,-24,24,24,"Advent",18,-6,28,10,4,10
"61",4,"POL LAM3-Ref-POL LAM4-Ref",-0.421785852,-0.2750615789,-0.0829929289,0.0700566111,0.1063389231,0.01164305,-0.1306597,-0.23605224,-0.294344357,-0.349763857,-0.421240107,-0.426085927,-0.3044872175,-0.0246430675,0.3564329825,0.7075510025,0.985571243,1.174832793,1.256864993,1.232102143,1.143403893,1.051604743,0.988957143,0.937214493,0.834601193,0.618431332,0.267833982,-0.136350318,-0.342596033,-0.262958272,0.114143878,0.706389178,1.256595443,1.660445193,1.877188993,1.889501993,1716,"DG_s09",8.688,9.313,10.234,10.234,28,4,10,10,0.921,"Left",28,4,24,24,0,0,-24,0,-24,24,24,"Advent",18,-6,28,10,4,10
"62",4,"POL RHP4-Ref-POL RHP5-Ref",-0.3564167375,-0.2264586345,0.1118424655,0.6085750155,1.0119042155,1.1540268625,0.953272387,0.506618687,0.195202447,0.112997357,0.2496570325,0.4928211375,0.556555315095,0.504480161445,0.441576341445,0.388940012395,0.2796054248,0.06106271845,-0.05105925155,0.0272063789,0.3081220289,0.7130728789,0.9278348189,0.8513345977,0.5168112477,0.0832669977,-0.2206749023,-0.3800941875,-0.3829525375,-0.2560014375,-0.1289929375,0.0147860625,0.1515681125,0.2292642625,0.2608181475,0.2839906675,1716,"DG_s09",8.688,9.313,10.234,10.234,28,4,10,10,0.921,"Left",28,4,24,24,0,0,-24,0,-24,24,24,"Advent",18,-6,28,10,4,10
"63",4,"POL RPC5-Ref-POL RPC6-Ref",-1.46488214585,-1.73018904585,-1.728422206,-1.480169056,-1.098096156,-0.828709306,-0.68963235,-0.65369965,-0.6723378,-0.70171005,-0.7296227,-0.78113845,-0.8980195964,-1.0904213114,-1.2685227864,-1.3047093019,-1.1556190555,-0.8657814905,-0.5853168155,-0.48386175,-0.6262540565,-0.9784415065,-1.3569920065,-1.5596813385,-1.5576218435,-1.4028807085,-1.275226856,-1.338880224,-1.4876039125,-1.5470881085,-1.456502211,-1.238698911,-1.038296511,-1.00172829955,-1.09759561955,-1.19536324805,1716,"DG_s09",8.688,9.313,10.234,10.234,28,4,10,10,0.921,"Left",28,4,24,24,0,0,-24,0,-24,24,24,"Advent",18,-6,28,10,4,10
"64",4,"POL RPC4-Ref-POL RPC5-Ref",-1.2951786905,-1.9259437405,-2.2435213905,-2.259849783,-2.020259568,-1.775282668,-1.660993168,-1.619738685,-1.60161475,-1.5780342,-1.5516294,-1.55460815,-1.62873346065,-1.77038516065,-1.85903905465,-1.76604915465,-1.461922844,-1.026483544,-0.6717034,-0.5943046,-0.8534198805,-1.3932557805,-1.9653212305,-2.2994103305,-2.4100328,-2.36463645,-2.3651186,-2.42257305,-2.3655852785,-2.1465694285,-1.7654377285,-1.4361967785,-1.28424435,-1.277579,-1.34185025,-1.4015824,1716,"DG_s09",8.688,9.313,10.234,10.234,28,4,10,10,0.921,"Left",28,4,24,24,0,0,-24,0,-24,24,24,"Advent",18,-6,28,10,4,10
"65",4,"POL RPC3-Ref-POL RPC4-Ref",-0.2301735015,-0.3560562469,-0.3245828434,-0.1724472434,-0.0396869869,-0.0887971465,-0.3773028815,-0.6033988315,-0.568514748,-0.261868593,0.249560207,0.578498507,0.495148961,0.029150211,-0.460717589,-0.6950458091,-0.6485153586,-0.3505322086,-0.0918630436,-0.048538741,-0.1499981855,-0.3203122355,-0.5088530505,-0.695586083,-0.873204333,-1.012098783,-1.065070683,-1.008572333,-0.847646283,-0.626868218,-0.4134393895,-0.2567765895,-0.186962318,-0.201784383,-0.2478312265,-0.2513024445,1716,"DG_s09",8.688,9.313,10.234,10.234,28,4,10,10,0.921,"Left",28,4,24,24,0,0,-24,0,-24,24,24,"Advent",18,-6,28,10,4,10
"66",4,"POL RAM6-Ref-POL RAM7-Ref",-0.69512107345,-0.6326638684,-0.5981337934,-0.7321722849,-0.9847185349,-1.24275620895,-1.40845188395,-1.45039498395,-1.38207593395,-1.25693408395,-1.16968593395,-1.19630863395,-1.31536768395,-1.35774328395,-1.25985716095,-0.99782233095,-0.63598093095,-0.36306098095,-0.22931795395,-0.22703853395,-0.30469105395,-0.38092430395,-0.40021050395,-0.37243215395,-0.37719812595,-0.51560037595,-0.76122322595,-0.93772662595,-0.98577746395,-0.94118541895,-0.94201036895,-1.11693306895,-1.23105338895,-1.21519027895,-1.04854763395,-0.80624533895,1716,"DG_s09",8.688,9.313,10.234,10.234,28,4,10,10,0.921,"Left",28,4,24,24,0,0,-24,0,-24,24,24,"Advent",18,-6,28,10,4,10
"67",4,"POL RAM3-Ref-POL RAM4-Ref",-1.68229399643,-1.91279819643,-1.96384345,-1.8741555,-1.80891975,-1.80003215,-1.68446266585,-1.41641661585,-1.03774321585,-0.74010171585,-0.67285445,-0.8038752429,-1.0249095329,-1.2531689329,-1.4708226329,-1.67456374,-1.7881996,-1.767899565,-1.630154984265,-1.458665548765,-1.432624548765,-1.636359383765,-1.8226131145,-1.8217105356,-1.6100900856,-1.2366215356,-1.0051108556,-1.087559695,-1.445866645,-1.795235495,-2.010838075,-2.07958085,-2.00787635,-1.98213075,-2.02567775,-2.06468,1716,"DG_s09",8.688,9.313,10.234,10.234,28,4,10,10,0.921,"Left",28,4,24,24,0,0,-24,0,-24,24,24,"Advent",18,-6,28,10,4,10
"68",4,"POL RAM2-Ref-POL RAM3-Ref",0.0817094195000001,-0.3347737305,-0.7872947305,-1.1579304305,-1.358487325,-1.385271625,-1.287089025,-1.162059225,-1.117005275,-1.196374325,-1.345658125,-1.441529975,-1.473745525,-1.478454325,-1.411168575,-1.1970689655,-0.7806702655,-0.1370064655,0.5712613845,1.088237575,1.312852525,1.243417525,0.950851175,0.542317775,0.115522425,-0.27496737,-0.59636742,-0.79003379,-0.822432716,-0.723221021,-0.570202421,-0.478776136,-0.50975606825,-0.64022306825,-0.82741466825,-1.03040373325,1716,"DG_s09",8.688,9.313,10.234,10.234,28,4,10,10,0.921,"Left",28,4,24,24,0,0,-24,0,-24,24,24,"Advent",18,-6,28,10,4,10
"69",4,"POL RPC2-Ref-POL RPC3-Ref",-2.486535615,-3.209980515,-3.676361165,-3.90109495,-3.92346435,-3.8286843,-3.67102125,-3.4593770057,-3.2482987557,-3.10208614885,-3.06521163385,-3.15518792815,-3.33567922815,-3.487684835,-3.5002146725,-3.3301314475,-3.0041828475,-2.6433139475,-2.374111025,-2.2696384,-2.356870875,-2.610863448,-2.960910448,-3.304762348,-3.522010223,-3.5336628114,-3.3336798714,-2.9839294214,-2.6117241714,-2.34795311,-2.2745075,-2.4062967125,-2.6771442725,-2.9596738725,-3.1579058225,-3.26135366,1716,"DG_s09",8.688,9.313,10.234,10.234,28,4,10,10,0.921,"Left",28,4,24,24,0,0,-24,0,-24,24,24,"Advent",18,-6,28,10,4,10
"70",4,"POL ROF1-Ref-POL ROF2-Ref",-0.3832099195,0.0796290305,0.5891982305,0.951728461,1.072243711,0.928141861,0.5629168995,0.0738978495,-0.3958847505,-0.7274785505,-0.911023239,-0.986945439,-1.008515839,-1.026445889,-1.070543239,-1.118357139,-0.99679215655,-0.68263670655,-0.16813570655,0.46151894345,0.899655961,0.987757711,0.678809588,0.195292648,-0.029495187,0.133499813,0.662424936,1.280627376,1.527446211,1.283466141,0.620863496,-0.0294485905,-0.3543535355,-0.3439158655,-0.0720210205,0.102701291,1716,"DG_s09",8.688,9.313,10.234,10.234,28,4,10,10,0.921,"Left",28,4,24,24,0,0,-24,0,-24,24,24,"Advent",18,-6,28,10,4,10
"71",4,"POL RHP5-Ref-POL RHP6-Ref",0.12569059645,-0.10171665355,-0.18309614255,-0.11702332755,0.05943992245,0.14854697245,0.13570002245,0.16894778815,0.31588948815,0.55206943815,0.74107058815,0.78069509245,0.66948867695,0.44613537695,0.17643842695,-0.02791625805,-0.08447979255,0.00636395395,0.17993366395,0.3166901991,0.3538076491,0.3423447326,0.3555282773,0.43653149215,0.58459349215,0.74577511215,0.85954975745,0.88018485745,0.76533036995,0.50033116995,0.12382131995,-0.24115128005,-0.47537404255,-0.58345499255,-0.61137519255,-0.63708019255,1716,"DG_s09",8.688,9.313,10.234,10.234,28,4,10,10,0.921,"Left",28,4,24,24,0,0,-24,0,-24,24,24,"Advent",18,-6,28,10,4,10
"72",4,"POL LAM2-Ref-POL LAM3-Ref",-0.3228713665,-0.1482950165,0.0417528835,0.1395398595,0.0608617705,-0.1686257795,-0.3686094795,-0.4585467055,-0.4559927455,-0.4486636955,-0.5212620955,-0.5312548155,-0.3862689355,-0.0392168855,0.4165490145,0.7617468845,0.9067961545,0.8139351545,0.5042539555,0.1124468555,-0.1514096795,-0.1982503595,-0.0360585105,0.2268532895,0.4231760245,0.5102300545,0.5219326545,0.5072513545,0.5048159545,0.5389397045,0.6266889045,0.7857515045,1.0293300545,1.3444746045,1.6780573545,1.9453013545,1716,"DG_s09",8.688,9.313,10.234,10.234,28,4,10,10,0.921,"Left",28,4,24,24,0,0,-24,0,-24,24,24,"Advent",18,-6,28,10,4,10
"73",5,"POL ROF1-Ref-POL ROF2-Ref",-1.2215557595,-1.31028105,-1.207066904,-1.018252134,-0.844635484,-0.680819984,-0.51335843,-0.34601035,-0.20237375,-0.1225057,-0.13894265,-0.23061535,-0.30199815,-0.24982565,-0.0360673499999999,0.29068745,0.6087087,0.8011551,0.8143696,0.6457531,0.31866245,-0.127351612,-0.625762312,-1.049431712,-1.288539412,-1.3299396,-1.206252536,-1.018307481,-0.869770831,-0.787090641,-0.76537895,-0.78280820365,-0.8270249922,-0.9111076322,-1.0526553872,-1.18160238855,1717,"DG_s09",11.234,11.844,12.781,12.781,22,6,10,10,0.937,"Right",22,6,16,16,0,0,-16,0,-16,16,16,"Advent",12,-4,10,22,10,6
"74",5,"POL RAM6-Ref-POL RAM7-Ref",0.375729133645,0.608193493645,0.773165416245,0.822167186245,0.7875494026,0.74764899625,0.74876931865,0.78334311585,0.78703934085,0.6939465872,0.5175456422,0.342977575,0.276862,0.3915615096,0.6873891096,1.0876937096,1.4689376096,1.71759345,1.7721703,1.6344129,1.361759643,1.039173293,0.736289393,0.481212393,0.26387765,0.0703357,-0.06153575,-0.1146295,-0.10346105,-0.059111,-0.04393145,-0.0649180499999999,-0.0888546,-0.0673308,0.04829845,0.2730217975,1717,"DG_s09",11.234,11.844,12.781,12.781,22,6,10,10,0.937,"Right",22,6,16,16,0,0,-16,0,-16,16,16,"Advent",12,-4,10,22,10,6
"75",5,"POL RPC4-Ref-POL RPC5-Ref",-0.5127928945,-1.1035993945,-1.3601665945,-1.2250945395,-0.7338934,-0.0714724,0.26840925,0.19740295,-0.223203209,-0.846005109,-1.437728159,-1.811112009,-1.959371,-1.929568,-1.82096675,-1.69605265,-1.514566563,-1.283047613,-1.078154113,-1.0113720095,-1.1487204465,-1.4462197465,-1.7338445965,-1.93722425,-2.0646586,-2.01566005,-1.780671503,-1.351953053,-0.704559203,-0.0140085030000001,0.5293961,0.83944225,0.88284875,0.6764886,0.29087455,-0.154453,1717,"DG_s09",11.234,11.844,12.781,12.781,22,6,10,10,0.937,"Right",22,6,16,16,0,0,-16,0,-16,16,16,"Advent",12,-4,10,22,10,6
"76",5,"POL RAM3-Ref-POL RAM4-Ref",-0.01668574315,-0.11384249315,-0.06808018265,0.25302326735,0.87557636735,1.68417146735,2.24422880685,2.37865420685,2.13082335685,1.74136195685,1.48506105685,1.46923755685,1.60081290685,1.63642685685,1.36131570385,0.84286935385,0.46961674385,0.39419294385,0.62863564685,1.02518709685,1.22826560685,1.16855945685,0.90889936065,0.54279916065,0.16656316065,-0.14292413935,-0.32881929315,-0.36036724315,-0.24225138815,0.000107473849999984,0.31323842385,0.61792077385,0.83329336885,0.89235280685,0.76637476235,0.48926791235,1717,"DG_s09",11.234,11.844,12.781,12.781,22,6,10,10,0.937,"Right",22,6,16,16,0,0,-16,0,-16,16,16,"Advent",12,-4,10,22,10,6
"77",5,"POL RPC1-Ref-POL RPC2-Ref",-0.30618237765,-0.2010791835,0.1481851215,0.6568758215,1.114895623,1.357557873,1.331295323,1.068570623,0.6633748915,0.2339389915,-0.1199109085,-0.3429561085,-0.423346627,-0.37639468325,-0.22945573325,-0.01734648325,0.21398396675,0.410678923,0.529647273,0.559369023,0.524186123,0.465078923,0.408364523,0.347978623,0.254738283,0.109444773,-0.063605377,-0.203995427,-0.263113372,-0.23732431863,-0.17280215443,-0.13958558943,-0.18153610443,-0.2921763478,-0.424425662,-0.511272427,1717,"DG_s09",11.234,11.844,12.781,12.781,22,6,10,10,0.937,"Right",22,6,16,16,0,0,-16,0,-16,16,16,"Advent",12,-4,10,22,10,6
"78",5,"POL LAM2-Ref-POL LAM3-Ref",-0.11999285,-0.05246245,-0.0624534,-0.12017095,-0.11607335,-0.00365998750000002,0.1932796125,0.367101341,0.384462941,0.2180307285,-0.0498142215,-0.2879766,-0.44788995,-0.5196865,-0.4861002,-0.35238034,-0.082412558,0.323549492,0.757043342,1.071184932,1.14177285,0.9017193125,0.4446352625,0.177589759,0.183867009,0.4653662465,0.9040172965,1.11353795,1.0673826,0.8436220071,0.5597305571,0.3130396571,0.1353626571,-0.000944049999999974,-0.1430659,-0.2486383,1717,"DG_s09",11.234,11.844,12.781,12.781,22,6,10,10,0.937,"Right",22,6,16,16,0,0,-16,0,-16,16,16,"Advent",12,-4,10,22,10,6
"79",5,"POL ROF5-Ref-POL ROF6-Ref",0.6540230945,0.9955976945,1.23766395,1.2896615,1.075591428,0.609674528,0.228098338,0.113419256,0.262599778,0.580394978,0.7020412325,0.4913012645,0.0889008145,-0.2418295355,-0.428206,-0.485411,-0.4857732,-0.57803025,-0.65855465,-0.58924,-0.326578326,0.092279574,0.504352074,0.740210224,0.712502046,0.457498446,0.175571846,0.034328011,0.0734675175,0.2393393675,0.363969603,0.337507338,0.1718373355,-0.0485158145,-0.1782583,-0.146216975,1717,"DG_s09",11.234,11.844,12.781,12.781,22,6,10,10,0.937,"Right",22,6,16,16,0,0,-16,0,-16,16,16,"Advent",12,-4,10,22,10,6
"80",5,"POL ROF6-Ref-POL ROF7-Ref",-0.1002659,-0.1255094,-0.30911257919,-0.70116367919,-1.19593332919,-1.44692470119,-1.365463222,-0.975414172,-0.454074622,-0.2018555,-0.3204535805,-0.6886421805,-0.99118924526,-1.04029869526,-0.82116431476,-0.47030006476,-0.2736647,-0.3513233,-0.642553757,-1.021287307,-1.366260657,-1.608144157,-1.74138975,-1.81251405,-1.8895552,-2.0105452,-2.0790252,-2.02322385,-1.826927126,-1.507069491,-1.199542091,-0.988371241,-0.871202865,-0.81319745,-0.77574615,-0.7406169,1717,"DG_s09",11.234,11.844,12.781,12.781,22,6,10,10,0.937,"Right",22,6,16,16,0,0,-16,0,-16,16,16,"Advent",12,-4,10,22,10,6
"81",5,"POL ROF3-Ref-POL ROF4-Ref",0.1089060721,-0.0598129629,-0.07648842645,0.09631692455,0.39320482455,0.57548760955,0.5077479536,0.2648095536,0.0153682036,-0.1085719989,-0.08112094145,0.03408981355,0.11067930105,0.06731050355,-0.0461745844,-0.1090444542,-0.0662465167,0.0465525983,0.126618669905,0.114893784705,0.107249014705,0.199404149705,0.4014637781,0.6117762281,0.6584219181,0.4909958696,0.2203448196,-0.0063081304,-0.1279861254,-0.1788001269,-0.2520683769,-0.3561667269,-0.3868054769,-0.30448180845,-0.15276784205,-0.09223479205,1717,"DG_s09",11.234,11.844,12.781,12.781,22,6,10,10,0.937,"Right",22,6,16,16,0,0,-16,0,-16,16,16,"Advent",12,-4,10,22,10,6
"82",5,"POL ROF4-Ref-POL ROF5-Ref",0.1908098035,-0.2561381965,-0.6667331465,-0.9412699965,-1.0260714535,-0.9392928485,-0.76825302855,-0.59828401355,-0.53435754855,-0.66531465355,-0.9548340235,-1.1496579885,-1.1710630535,-1.0049836035,-0.7081477351,-0.4952250001,-0.3898496251,-0.3826558797,-0.4814812481,-0.7008323331,-0.9851011581,-1.1593014035,-1.1756957535,-1.0348892535,-0.8004111935,-0.6187633147,-0.4762934747,-0.3160945247,-0.1114884847,0.1146250365,0.3017326965,0.3854810465,0.3284730465,0.131992011,-0.151239889,-0.396702689,1717,"DG_s09",11.234,11.844,12.781,12.781,22,6,10,10,0.937,"Right",22,6,16,16,0,0,-16,0,-16,16,16,"Advent",12,-4,10,22,10,6
"83",5,"POL RAM5-Ref-POL RAM6-Ref",0.136954734,0.591483134,1.251828434,1.859144584,2.1708551385,2.1164830885,1.7485281725,1.1891422225,0.6054002725,0.3242345485,0.4547517645,1.0255017145,1.9832771645,3.0167769885,3.9279446885,4.5447321885,4.7314046885,4.4394616885,3.7312015385,2.7639016315,1.7367688815,0.8244134815,0.1994090315,-0.0965893114999999,-0.1363748115,-0.00303836149999992,0.1496073385,0.2228715385,0.1921128385,0.0529114885,-0.0976662115,-0.1522080615,-0.0751230115,0.1342746385,0.3736140685,0.5356700985,1717,"DG_s09",11.234,11.844,12.781,12.781,22,6,10,10,0.937,"Right",22,6,16,16,0,0,-16,0,-16,16,16,"Advent",12,-4,10,22,10,6
"84",5,"POL ROF2-Ref-POL ROF3-Ref",0.5882534205,0.1907866705,0.0049954955,0.1013068405,0.451883078,0.814307728,0.861951448,0.5881956185,0.1454738685,-0.2062415815,-0.3548116265,-0.300755237,-0.129809777,-0.00919470200000001,0.042457688,0.08309156071,0.15414805071,0.25720422571,0.35867763571,0.412128003,0.3794684645,0.2490404445,0.0742773945,-0.028712065,0.0048710835,0.1658135535,0.3739337535,0.497883513,0.476309642,0.3323986655,0.1224442655,-0.1008153845,-0.3136417235,-0.532100647,-0.696449247,-0.670342897,1717,"DG_s09",11.234,11.844,12.781,12.781,22,6,10,10,0.937,"Right",22,6,16,16,0,0,-16,0,-16,16,16,"Advent",12,-4,10,22,10,6
"85",5,"POL RPC3-Ref-POL RPC4-Ref",-0.87206879045,-0.87375229045,-0.87213749045,-0.89423619045,-0.89607934045,-0.84869754045,-0.77513319045,-0.73708179045,-0.77053559045,-0.82658464045,-0.82837279045,-0.75315554045,-0.65223299045,-0.62362209045,-0.65695334045,-0.59869364395,-0.35454274395,0.07721635605,0.55505730605,0.84895355955,0.85270390955,0.59033742005,0.18672319505,-0.19041410495,-0.44540515495,-0.59256836545,-0.72481579045,-0.88046819045,-0.90619893015,-0.70518549015,-0.24938709015,0.35433660985,0.83225974955,1.02992465955,0.89790595955,0.46748209155,1717,"DG_s09",11.234,11.844,12.781,12.781,22,6,10,10,0.937,"Right",22,6,16,16,0,0,-16,0,-16,16,16,"Advent",12,-4,10,22,10,6
"86",5,"POL RPC2-Ref-POL RPC3-Ref",-0.33113443065,-0.93695588065,-1.30130526715,-1.34227226715,-1.0982720865,-0.7587849865,-0.62472035,-0.7240594605,-0.9751600555,-1.2771336055,-1.5562879055,-1.786840295,-1.97719525,-2.0909772,-2.083746,-1.950801,-1.70929011985,-1.45723201485,-1.30489968635,-1.30137358635,-1.4500481665,-1.7053401715,-1.95100985,-2.0810921,-2.0635347,-1.879923726,-1.571462266,-1.199672516,-0.797600116,-0.42346134,-0.1337306,0.04784495,0.12802135,0.12173285,0.0325664000000001,-0.15126575,1717,"DG_s09",11.234,11.844,12.781,12.781,22,6,10,10,0.937,"Right",22,6,16,16,0,0,-16,0,-16,16,16,"Advent",12,-4,10,22,10,6
"87",5,"POL LAM5-Ref-POL LAM6-Ref",0.40341079075,0.65364199075,0.79216684075,0.874745656,0.945643556,0.988872656,0.96205998285,0.85462566285,0.71910527985,0.60451963985,0.503072713,0.338311433,0.0936548660000001,-0.110800594,-0.235632694,-0.289395094,-0.283699244,-0.258496744,-0.212466394,-0.139104094,-0.085228294,-0.0851201439999999,-0.0785154939999999,-0.0148519439999999,0.112187706,0.250245256,0.325111806,0.298502306,0.172844556,0.020964206,-0.043593994,0.029758771,0.2395421515,0.5082539015,0.7150233515,0.8074121165,1717,"DG_s09",11.234,11.844,12.781,12.781,22,6,10,10,0.937,"Right",22,6,16,16,0,0,-16,0,-16,16,16,"Advent",12,-4,10,22,10,6
"88",5,"POL RPC5-Ref-POL RPC6-Ref",-0.076550053,-0.249104853,-0.2214402003,0.0513060497,0.5171579997,1.0027671497,1.281809634,1.250472984,0.9316469865,0.4560588865,0.0259537365,-0.2253147635,-0.296023866,-0.282449266,-0.332244316,-0.441295316,-0.4569470265,-0.3176265665,-0.0304719165,0.2755686335,0.414629294,0.350244628,0.135044928,-0.145490772,-0.401784672,-0.534394166,-0.4745893335,-0.2102651335,0.2235287165,0.7260489165,1.173793834,1.471612234,1.562538434,1.436139884,1.133217084,0.740401289,1717,"DG_s09",11.234,11.844,12.781,12.781,22,6,10,10,0.937,"Right",22,6,16,16,0,0,-16,0,-16,16,16,"Advent",12,-4,10,22,10,6
"89",5,"POL RAM2-Ref-POL RAM3-Ref",-0.00356497499999997,0.07307486,0.0108154775,-0.1678855225,-0.2977533535,-0.3118018535,-0.254346183,-0.254786008,-0.371364627,-0.443873192,-0.37586263,-0.141671505,0.135923295,0.28390331,0.31905916,0.31541591,0.32742786,0.37178091,0.43085691,0.46712501,0.43800961,0.31663776,0.121345956,-0.07039525605,-0.17366747105,-0.15713242105,-0.03285476705,0.181843245,0.50124431,0.95789646,1.53596271,2.12622746,2.55509646,2.66788296,2.38729896,1.73071162,1717,"DG_s09",11.234,11.844,12.781,12.781,22,6,10,10,0.937,"Right",22,6,16,16,0,0,-16,0,-16,16,16,"Advent",12,-4,10,22,10,6
"90",5,"POL RHP4-Ref-POL RHP5-Ref",-0.300016883,0.2684219465,0.9966172465,1.50471335,1.6381317,1.4259945,0.96476875,0.3608163135,-0.2746169865,-0.8002535865,-1.1446770865,-1.3379671,-1.42990405,-1.44830345,-1.41598675,-1.3245765,-1.1840944,-1.04371965,-0.871602015,-0.614681115,-0.273305415,0.074748035,0.3123892,0.36284415,0.210437585,-0.1142683975,-0.5414200975,-0.9000253975,-1.0551708325,-1.0242055,-0.90542035,-0.88393435,-0.93068075,-0.854393823,-0.596784023,-0.173437673,1717,"DG_s09",11.234,11.844,12.781,12.781,22,6,10,10,0.937,"Right",22,6,16,16,0,0,-16,0,-16,16,16,"Advent",12,-4,10,22,10,6
"91",5,"POL RAM4-Ref-POL RAM5-Ref",-0.028525168,0.323388462,0.927612912,1.578279762,1.977754295,2.005850295,1.66134742,1.0928925145,0.6150589214,0.4033597714,0.4687744964,0.7335405519,1.046121145,1.428842295,1.974491445,2.666422795,3.340050795,3.758742795,3.766106295,3.354804795,2.634449945,1.76621304,0.93191829,0.33080219,0.01195929,-0.092112905,-0.072210855,-0.049244105,-0.056229055,-0.072871005,-0.108859655,-0.195678205,-0.302577805,-0.365431055,-0.374869155,-0.366600855,1717,"DG_s09",11.234,11.844,12.781,12.781,22,6,10,10,0.937,"Right",22,6,16,16,0,0,-16,0,-16,16,16,"Advent",12,-4,10,22,10,6
"92",5,"POL RHP5-Ref-POL RHP6-Ref",-0.0158649635,0.3367612865,0.8362495365,1.3198330365,1.5464470555,1.4208507125,0.9909890125,0.4874969625,0.1486258125,-0.0108434945,-0.0608733945,-0.1272393945,-0.2208664445,-0.2813820445,-0.2478503945,-0.0823078345,0.126882248,0.352831248,0.561924598,0.658492876,0.5733207735,0.3291833735,0.00626667349999999,-0.3053831145,-0.5213863945,-0.6111980945,-0.5884932445,-0.4892217445,-0.3792501945,-0.3056563945,-0.2764306445,-0.2373126445,-0.1179994435,0.0994122165,0.3730195665,0.6168235665,1717,"DG_s09",11.234,11.844,12.781,12.781,22,6,10,10,0.937,"Right",22,6,16,16,0,0,-16,0,-16,16,16,"Advent",12,-4,10,22,10,6
"93",5,"POL LAM3-Ref-POL LAM4-Ref",-0.56416648065,-0.55371907065,-0.37171148065,-0.04067658065,0.32414396935,0.64700833435,0.89446954435,1.02689924435,1.01284974435,0.86245879435,0.64269444435,0.44394679435,0.33120744435,0.31716699435,0.36445484435,0.42413434435,0.47838294435,0.54488389435,0.64063384435,0.74190784435,0.77066504435,0.62205483685,0.24742303685,-0.10422402315,-0.21912405865,-0.07806955115,0.27346639885,0.55158360885,0.58583524435,0.45404554435,0.27359564935,0.12323173435,0.01416565785,-0.09598944215,-0.25099939715,-0.43537633215,1717,"DG_s09",11.234,11.844,12.781,12.781,22,6,10,10,0.937,"Right",22,6,16,16,0,0,-16,0,-16,16,16,"Advent",12,-4,10,22,10,6
"94",5,"POL LAM6-Ref-POL LAM7-Ref",-0.3726954,-0.133432128,0.317925772,0.887300272,1.420618472,1.76480575,1.829756,1.6174332,1.207159253,0.720727603,0.290434803,0.014804453,-0.07246945,0.0144017855,0.2311005855,0.5300278855,0.8743601355,1.21254255,1.46773505,1.5557515,1.41834335,1.0486017391,0.5086085891,0.0955500891,-0.0719368209,-0.0184306385,0.1885575488,0.2743038488,0.1596913088,-0.0655434627000001,-0.2353797,-0.2644847,-0.1277289845,0.1397627855,0.4130506855,0.6252390855,1717,"DG_s09",11.234,11.844,12.781,12.781,22,6,10,10,0.937,"Right",22,6,16,16,0,0,-16,0,-16,16,16,"Advent",12,-4,10,22,10,6
"95",5,"POL LAM1-Ref-POL LAM2-Ref",-0.4979136615,-0.74940452,-0.94926327,-0.99942752,-0.88324162,-0.63391431955,-0.35791149955,-0.19980535,-0.21259835,-0.33816125045,-0.44701527045,-0.46692587,-0.39825902,-0.30583972,-0.26470737,-0.254382765,-0.20182057145,-0.06262237145,0.13594467855,0.29933897355,0.30937358605,0.08307923605,-0.29014446395,-0.49888275545,-0.4711941565,-0.2275517565,0.0690103185,0.10279120415,-0.08026840085,-0.24998451585,-0.27648152035,-0.1501447145,0.0426355855,0.1569928505,0.17866763,0.16049288,1717,"DG_s09",11.234,11.844,12.781,12.781,22,6,10,10,0.937,"Right",22,6,16,16,0,0,-16,0,-16,16,16,"Advent",12,-4,10,22,10,6
"96",5,"POL RHP6-Ref-POL RHP7-Ref",0.493566415,0.658270865,0.69292806275,0.6730440926,0.7729132426,1.0513159926,1.44856352985,1.74882205,1.7310917,1.3826572915,0.8253045415,0.2323248415,-0.2461424585,-0.4915687,-0.399157629,0.003903671,0.598597821,1.203111471,1.61183065,1.74229465,1.6264937,1.36507265,1.05786489,0.7651493625,0.5201212125,0.3443546125,0.2328478225,0.15024595,0.0379502,-0.1377574,-0.26401815,-0.249398,-0.0637379675,0.2758881325,0.6249087325,0.8763853325,1717,"DG_s09",11.234,11.844,12.781,12.781,22,6,10,10,0.937,"Right",22,6,16,16,0,0,-16,0,-16,16,16,"Advent",12,-4,10,22,10,6
"97",6,"POL RAM3-Ref-POL RAM4-Ref",0.36998334395,0.30264311995,0.57302972495,1.2627468648,2.3050414648,3.2667710488,3.7475869988,3.6309734988,3.0499443488,2.3071657988,1.6701521488,1.2638265488,1.0759321488,0.9865413488,0.8823236138,0.7239129101,0.5384489601,0.3944451601,0.33991603975,0.37317661995,0.42632566495,0.41850266495,0.3548864703,0.3131340488,0.3420257383,0.4149774628,0.4466787193,0.3700069143,0.2688726298,0.2418281593,0.3022002178,0.37938038515,0.30815613515,0.11185423115,0.00936714615000001,0.0684406798,1718,"DG_s09",13.781,14.391,14.969,14.969,30,15,10,10,0.578,"Left",30,15,15,15,0,0,-15,0,-15,15,15,"Advent",20,5,30,10,15,10
"98",6,"POL ROF4-Ref-POL ROF5-Ref",-0.4137758715,-0.1928350715,0.0433847785,0.1648702435,0.158510701,0.137767461,0.225870761,0.465632896,0.794675176,1.051726966,1.105993016,0.952778466,0.689016616,0.427193666,0.211289374,0.00685904399999999,-0.257681806,-0.587967856,-0.826049414,-0.923518734,-0.873579534,-0.704216384,-0.539587434,-0.3742905955,-0.1921390355,-0.0216946855,0.0830111745,0.0852322725,-0.0029142875,-0.1086921375,-0.14199097275,-0.05932580925,0.11719259075,0.29976839075,0.376834016,0.2702821915,1718,"DG_s09",13.781,14.391,14.969,14.969,30,15,10,10,0.578,"Left",30,15,15,15,0,0,-15,0,-15,15,15,"Advent",20,5,30,10,15,10
"99",6,"POL LAM1-Ref-POL LAM2-Ref",-0.44533362365,-0.60267749915,-0.67805179915,-0.53927726965,-0.14111391965,0.54100658035,1.38374223035,2.08124025085,2.42857340085,2.33957540085,1.85513930085,1.14939919335,0.47173468835,-0.02287701165,-0.33929536165,-0.56331285415,-0.68505819915,-0.66075261015,-0.48238461015,-0.18318296015,0.04513813985,0.06784410975,-0.07583009025,-0.28140834025,-0.46319539025,-0.59645559915,-0.70868884915,-0.84050804915,-0.96995834915,-1.04330304915,-1.03621404915,-0.93980319915,-0.76598191915,-0.5157806141,-0.1823263141,0.1926595359,1718,"DG_s09",13.781,14.391,14.969,14.969,30,15,10,10,0.578,"Left",30,15,15,15,0,0,-15,0,-15,15,15,"Advent",20,5,30,10,15,10
"100",6,"POL LAM5-Ref-POL LAM6-Ref",-0.92491365,-0.8866424,-1.0196898005,-1.2812366505,-1.477101388,-1.472424933,-1.2431043825,-0.9023778325,-0.626683895,-0.50731685,-0.57389405,-0.8337066385,-1.2750531885,-1.7322053385,-1.9884442885,-2.065871,-2.00556885,-1.9539529,-1.9955886,-2.00933605,-1.9635877,-1.9016276,-1.94129595,-2.0610585,-2.14300145,-2.1353303,-2.0452614,-1.98793085,-2.08128935,-2.15372215,-2.0157658175,-1.5936537175,-0.8424329675,0.0312962325000001,0.7656462,1.18032405,1718,"DG_s09",13.781,14.391,14.969,14.969,30,15,10,10,0.578,"Left",30,15,15,15,0,0,-15,0,-15,15,15,"Advent",20,5,30,10,15,10
"101",6,"POL RHP5-Ref-POL RHP6-Ref",0.2526410795,0.4446489295,0.7982133795,1.2501322295,1.670411,1.944171,1.9992765,1.8164053,1.4378926566,0.9610593416,0.5107307916,0.1953118416,0.069111935,0.11969425675,0.27179972175,0.41497834675,0.44980655775,0.342268501,0.193772686,0.1332229414,0.1839437764,0.2795397754,0.2579887754,0.079670845,-0.030756851,0.0107046331,0.2256644831,0.5236229831,0.6883374831,0.7198542,0.6755297,0.585097285,0.439935135,0.228471535,0.00165093500000002,-0.15470025,1718,"DG_s09",13.781,14.391,14.969,14.969,30,15,10,10,0.578,"Left",30,15,15,15,0,0,-15,0,-15,15,15,"Advent",20,5,30,10,15,10
"102",6,"POL RAM5-Ref-POL RAM6-Ref",-0.3921760611,0.0481219389,0.5498988389,0.9196637899,1.0494042899,0.8876657899,0.6438316899,0.6803920899,1.1420489899,2.0036941899,2.9500437899,3.5357178899,3.5899863899,3.1437023899,2.3535465899,1.43093944605,0.56932799605,-0.08612555395,-0.47299630395,-0.6511250601,-0.7243595101,-0.7891173601,-0.8376699601,-0.8179022601,-0.6937448701,-0.4640964436,-0.2215838436,-0.0189655936,0.1438242664,0.2729026399,0.3625741399,0.3874750899,0.3189953949,0.1650490939,-0.0092855711,-0.11886545445,1718,"DG_s09",13.781,14.391,14.969,14.969,30,15,10,10,0.578,"Left",30,15,15,15,0,0,-15,0,-15,15,15,"Advent",20,5,30,10,15,10
"103",6,"POL ROF1-Ref-POL ROF2-Ref",-0.01980025,-0.0791608,-0.16135295,-0.121459661,0.088341492,0.470843292,0.908392742,1.213706803,1.32130015,1.237599,1.021053679,0.748079449,0.477007199,0.229586799,0.01991012,-0.1069454,-0.14381805,-0.1258892,-0.11330335,-0.1409855,-0.12323705,-0.0224176799999999,0.148606588615,0.291331428615,0.241145078615,0.050068258615,-0.0631650599999999,-0.07356125,-0.00420349999999997,0.01360925,-0.036444,0.01330089795,0.19439559795,0.50003724795,0.7049844937,0.65486651075,1718,"DG_s09",13.781,14.391,14.969,14.969,30,15,10,10,0.578,"Left",30,15,15,15,0,0,-15,0,-15,15,15,"Advent",20,5,30,10,15,10
"104",6,"POL RAM6-Ref-POL RAM7-Ref",-0.959914206,-0.950096856,-0.8225656975,-0.5744927475,-0.1990880975,0.2392414025,0.563777644,0.661203944,0.578642344,0.498507544,0.613888544,0.991706744,1.532005494,1.990378294,2.116193794,1.803204394,1.117176459,0.254548359,-0.437530391,-0.802075741,-0.870560556,-0.747155206,-0.677075756,-0.694860606,-0.6657433345,-0.5421352345,-0.3594254345,-0.2344697295,-0.266360751,-0.3476316375,-0.3528600875,-0.2642242425,-0.164568554,-0.2268905075,-0.4842471575,-0.7340951075,1718,"DG_s09",13.781,14.391,14.969,14.969,30,15,10,10,0.578,"Left",30,15,15,15,0,0,-15,0,-15,15,15,"Advent",20,5,30,10,15,10
"105",6,"POL ROF5-Ref-POL ROF6-Ref",0.6171046,0.6730382,0.4879905,0.2189202,0.0452751,0.0488834500000001,0.18216315,0.2955317,0.2460194,-0.01728557,-0.43532012,-0.83104777,-1.07298937,-1.1691412,-1.22262415,-1.32107345,-1.2764437765,-1.0316998265,-0.5699532765,-0.0312270765,0.20306625,0.0450445405,-0.3179315095,-0.527894404,-0.456963304,-0.1212046445,0.2553309055,0.34568065,0.104053171,-0.348870529,-0.791277979,-1.098579179,-1.305511,-1.42920255,-1.345885377,-1.099722282,1718,"DG_s09",13.781,14.391,14.969,14.969,30,15,10,10,0.578,"Left",30,15,15,15,0,0,-15,0,-15,15,15,"Advent",20,5,30,10,15,10
"106",6,"POL RPC2-Ref-POL RPC3-Ref",1.01377186925,1.2080184115,1.2505204615,1.1410392615,0.916720338,0.6477143485,0.4113582485,0.2656425635,0.23501186,0.3062533995,0.4411617995,0.5940666345,0.7228494115,0.7947089115,0.7861529615,0.6853117215,0.5138950165,0.3559266915,0.29558863685,0.34618622685,0.44823058185,0.48409543035,0.387339335,0.246546385,0.2067549075,0.343030384,0.645039484,0.997802884,1.2612749615,1.3625283615,1.2775325615,1.0195175795,0.6392838795,0.2213543795,-0.1304316705,-0.3133220385,1718,"DG_s09",13.781,14.391,14.969,14.969,30,15,10,10,0.578,"Left",30,15,15,15,0,0,-15,0,-15,15,15,"Advent",20,5,30,10,15,10
"107",6,"POL LAM3-Ref-POL LAM4-Ref",-0.2344715945,0.0647345055,0.3857215555,0.662146166,0.806535616,0.780763416,0.656430966,0.554830916,0.547090966,0.621893616,0.698397266,0.700082166,0.607093816,0.4184459545,0.1170647045,-0.2484631955,-0.4148536975,-0.333208436,-0.005081636,0.473429914,0.793097516,0.889894166,0.780394166,0.5110230795,0.1441097295,-0.2343303205,-0.5015264205,-0.599823884,-0.540755894,-0.388700969,-0.271219914,-0.259801214,-0.306405254,-0.26767940005,-0.04698405505,0.37604429495,1718,"DG_s09",13.781,14.391,14.969,14.969,30,15,10,10,0.578,"Left",30,15,15,15,0,0,-15,0,-15,15,15,"Advent",20,5,30,10,15,10
"108",6,"POL RHP4-Ref-POL RHP5-Ref",0.9041781295,0.6695380295,0.3352285295,0.1308088295,0.091008324,0.159577424,0.156046974,-0.019230326,-0.138008426,-0.163794776,-0.104086476,-0.078968326,-0.149348576,-0.133785276,0.010146886,0.281018311,0.47653134423,0.42287854423,0.17103158223,-0.10993429277,-0.325514676,-0.455930976,-0.388204376,-0.156586394,0.205483656,0.674158356,1.061306956,1.247737824,1.219405624,1.02546742155,0.73288532155,0.38731472155,0.03121482155,-0.160379176,-0.1380817935,0.08692199695,1718,"DG_s09",13.781,14.391,14.969,14.969,30,15,10,10,0.578,"Left",30,15,15,15,0,0,-15,0,-15,15,15,"Advent",20,5,30,10,15,10
"109",6,"POL ROF3-Ref-POL ROF4-Ref",-0.165650166,-0.239014803,-0.163521781,0.0392183625,0.1449275625,0.0544002945,0.0480435655,0.236640372,0.635747122,1.075987972,1.328825811,1.398056861,1.353224061,1.237815861,1.049936761,0.7819800145,0.4869562145,0.2556141645,0.1289950145,0.077937661,0.010264011,-0.132806539,-0.250072089,-0.2332743745,-0.0441942245,0.2835231255,0.6039064755,0.793016961,0.78775733,0.558950495,0.217429995,0.051023569,0.1585977,0.523836735,0.972510685,1.173612761,1718,"DG_s09",13.781,14.391,14.969,14.969,30,15,10,10,0.578,"Left",30,15,15,15,0,0,-15,0,-15,15,15,"Advent",20,5,30,10,15,10
"110",6,"POL RPC1-Ref-POL RPC2-Ref",0.445937,0.2213715,-0.17704,-0.7372156,-1.383671625,-1.946225351,-2.263339201,-2.306059101,-2.161881376,-2.0139754,-2.0151032,-2.164242281,-2.36507727285,-2.5249249491,-2.6149109192,-2.6608131782,-2.68441567135,-2.6539787026,-2.5257521325,-2.3056681925,-2.0776074075,-1.97899775,-2.1012343945,-2.4125607445,-2.7307635445,-2.869308656,-2.7597394615,-2.4424246615,-2.0942607615,-1.90011505,-1.93548339,-2.1643432663,-2.4135452508,-2.5207147508,-2.4552325108,-2.3022078845,1718,"DG_s09",13.781,14.391,14.969,14.969,30,15,10,10,0.578,"Left",30,15,15,15,0,0,-15,0,-15,15,15,"Advent",20,5,30,10,15,10
"111",6,"POL RAM4-Ref-POL RAM5-Ref",-0.490258428541,-0.424795610041,-0.180144360041,0.193899089959,0.444543789959,0.551610891459,0.659888091459,0.882746791459,1.237978541459,1.622677291459,1.864204641459,1.864237141459,1.627133191459,1.220885591459,0.744392246659,0.306676146659,-0.001625053341,-0.150036953341,-0.178982288541,-0.172743088541,-0.210165538541,-0.311847488541,-0.446093958541,-0.554786958541,-0.567264508541,-0.480091008541,-0.352644258541,-0.260918808541,-0.235731108541,-0.183751340841,-0.028215690841,0.235707209159,0.507984709159,0.598579016459,0.406379136959,0.018996586959,1718,"DG_s09",13.781,14.391,14.969,14.969,30,15,10,10,0.578,"Left",30,15,15,15,0,0,-15,0,-15,15,15,"Advent",20,5,30,10,15,10
"112",6,"POL LAM2-Ref-POL LAM3-Ref",0.0359290035,0.0094114035,-0.1038704965,-0.2156398615,-0.2566546515,-0.188956978,-0.00796669800000002,0.238120152,0.489062752,0.6751488785,0.7225818485,0.60461558535,0.36629953535,0.09438833535,-0.13210606465,-0.2653800515,-0.2856554515,-0.201651974,-0.047167048,0.119689652,0.223471693,0.2099152755,0.0855324995,-0.0831863505,-0.2367304915,-0.3548219015,-0.3889432015,-0.283036478,-0.037295778,0.318373372,0.665919672,0.8598990985,0.8897060985,0.8625424985,0.8902421985,1.0014354485,1718,"DG_s09",13.781,14.391,14.969,14.969,30,15,10,10,0.578,"Left",30,15,15,15,0,0,-15,0,-15,15,15,"Advent",20,5,30,10,15,10
"113",6,"POL RPC5-Ref-POL RPC6-Ref",0.4752368985,0.5243537485,0.5130129985,0.3843651085,0.1643294861,-0.00779276140000001,-0.0267601114,0.1159107286,0.329557301,0.4519285485,0.4011628485,0.2081847155,-0.0280903445,-0.199550075,-0.26890616,-0.280072369,-0.336174609,-0.5436130785,-0.8148074935,-0.9425460515,-0.9049211715,-0.6987542415,-0.441729821785,-0.288991741785,-0.184939921785,-0.082746751785,0.0230195285,0.0979393985,0.0996184485,0.01610622018,-0.10662559982,-0.17278890972,-0.10061145972,0.1302278686,0.4762286886,0.8694781485,1718,"DG_s09",13.781,14.391,14.969,14.969,30,15,10,10,0.578,"Left",30,15,15,15,0,0,-15,0,-15,15,15,"Advent",20,5,30,10,15,10
"114",6,"POL ROF6-Ref-POL ROF7-Ref",-0.103456692,0.318293958,0.6174300455,0.7139526455,0.6031951455,0.3150990955,-0.0656720545,-0.3801983045,-0.5126856495,-0.4505931675,-0.2593070175,-0.0719964675,0.0379649275,0.0909470955,0.1120765955,0.0890386355,-0.0217794968,-0.2455498468,-0.5008330968,-0.6670661868,-0.7212525545,-0.6973597045,-0.6537791545,-0.6149379545,-0.5691003045,-0.5311323045,-0.5515518045,-0.6387287545,-0.7341641545,-0.8062295045,-0.8602031045,-0.9524461045,-1.0481499045,-1.0074943545,-0.7427432185,-0.2503631185,1718,"DG_s09",13.781,14.391,14.969,14.969,30,15,10,10,0.578,"Left",30,15,15,15,0,0,-15,0,-15,15,15,"Advent",20,5,30,10,15,10
"115",6,"POL ROF2-Ref-POL ROF3-Ref",-1.7514874635,-1.818252985,-1.6626092015,-1.3757313015,-1.1732985205,-1.1962298355,-1.418045169,-1.581826814,-1.5289529595,-1.2180780095,-0.7085684095,-0.2615256645,-0.0209602,-0.01788795,-0.249874773,-0.661348218,-1.050744408,-1.203741173,-1.07346475,-0.732121305,-0.425073115,-0.4107409985,-0.7517314135,-1.2060543635,-1.407657592,-1.2824800435,-0.8437162285,-0.3468857785,-0.13561695,-0.242215545,-0.627197333,-1.173687133,-1.526329678,-1.5594490495,-1.2965767615,-0.8478287115,1718,"DG_s09",13.781,14.391,14.969,14.969,30,15,10,10,0.578,"Left",30,15,15,15,0,0,-15,0,-15,15,15,"Advent",20,5,30,10,15,10
"116",6,"POL RPC3-Ref-POL RPC4-Ref",0.08749875,-0.0211864500000001,-0.1421343,-0.26427015,-0.38332275,-0.5023847,-0.630740865,-0.77809917055,-0.95056612055,-1.15642442055,-1.40724955555,-1.68509935,-1.8822622,-1.9494866,-1.91179715,-1.85017245,-1.9085739,-1.89537045,-1.694376966,-1.268569416,-0.655706916,-0.193476566,-0.0676834000000001,-0.3336287205,-0.9013492205,-1.3062141955,-1.376416043,-1.1005288725,-0.5723117725,-0.2226425975,-0.16815045,-0.359276206,-0.688665156,-1.002797656,-1.176499346,-1.1727049589,1718,"DG_s09",13.781,14.391,14.969,14.969,30,15,10,10,0.578,"Left",30,15,15,15,0,0,-15,0,-15,15,15,"Advent",20,5,30,10,15,10
"117",6,"POL RHP6-Ref-POL RHP7-Ref",0.38978807,0.29896282,0.3325532295,0.6845003295,1.4139518295,2.4359324795,3.2794101,3.6513289,3.4699429,2.81801905,1.917160913,1.064651813,0.496036813,0.3109553425,0.5011928795,0.9328378795,1.4263473795,1.8314657,2.0386088,2.02889225,1.8499786,1.5448427675,1.11487182,0.63612407,0.4285775255,0.574791158,1.0944281055,1.8586870055,2.4592867,2.7508994,2.6960234,2.3427966,1.8619253,1.5019525,1.39041515,1.48644195,1718,"DG_s09",13.781,14.391,14.969,14.969,30,15,10,10,0.578,"Left",30,15,15,15,0,0,-15,0,-15,15,15,"Advent",20,5,30,10,15,10
"118",6,"POL LAM6-Ref-POL LAM7-Ref",-0.8776861055,-0.9888061055,-0.9935486555,-0.9081852555,-0.7572207855,-0.6056883855,-0.5489367355,-0.5363212255,-0.4782861015,-0.3468756515,-0.1780519015,-0.0918332095,-0.1940341635,-0.4270172635,-0.5582735335,-0.5191100855,-0.3253247255,-0.0836551255,-0.0106317505,-0.101140291,-0.261210241,-0.438037841,-0.611841596,-0.7183077055,-0.7318043055,-0.6706756955,-0.5571682305,-0.4875618805,-0.5149326305,-0.6091189405,-0.7257601555,-0.7726295055,-0.682226872,-0.443359822,-0.082332372,0.290855578,1718,"DG_s09",13.781,14.391,14.969,14.969,30,15,10,10,0.578,"Left",30,15,15,15,0,0,-15,0,-15,15,15,"Advent",20,5,30,10,15,10
"119",6,"POL RPC4-Ref-POL RPC5-Ref",1.28802012925,1.76598122925,2.08851965,2.13117655,1.884081415,1.53489427,1.32333122,1.34438797,1.562832155,1.80207085,1.88533005,1.78533455,1.5469626575,1.2377289625,0.9305365125,0.6756368625,0.483354605,0.3349594,0.218941,0.16111995,0.1870324,0.29806255,0.46049895,0.62307039595,0.77433601795,0.93084356795,1.09893336795,1.257834622,1.3653194,1.3846783,1.321664,1.24531755,1.24671015,1.3632539,1.5534655,1.7222018,1718,"DG_s09",13.781,14.391,14.969,14.969,30,15,10,10,0.578,"Left",30,15,15,15,0,0,-15,0,-15,15,15,"Advent",20,5,30,10,15,10
"120",6,"POL RAM2-Ref-POL RAM3-Ref",0.073303249,0.338622149,0.685096399,1.057889149,1.39616275,1.61530655,1.6359971,1.45468715,1.17946215,0.92879105,0.7431091395,0.5989237045,0.4609624045,0.3500047545,0.310302605,0.353998445,0.423791985,0.435981635,0.368873895,0.24147744,0.07372915,-0.10953095,-0.2117623,-0.1936634,-0.0482629400000001,0.216261422,0.498766172,0.733145772,0.875843512,0.885685883,0.747674948,0.521704598,0.3707783485,0.4035067905,0.6241173755,0.9394553255,1718,"DG_s09",13.781,14.391,14.969,14.969,30,15,10,10,0.578,"Left",30,15,15,15,0,0,-15,0,-15,15,15,"Advent",20,5,30,10,15,10
"121",7,"POL ROF4-Ref-POL ROF5-Ref",-0.3557349905,-0.3636223355,-0.1960524605,0.0345879695,0.1426446195,0.1665150295,0.17493341024,0.20119847024,0.23384171949,0.24092425649,0.20178235075,0.10702201075,-0.0648741385,-0.3179105505,-0.4027419455,-0.187389357,0.363320893,1.201936243,1.963161888,2.3693509495,2.2762910495,1.70619513875,1.01041002425,0.54922463925,0.36524033925,0.3729496645,0.387739854,0.4007174152,0.5225374152,0.7588675007,0.9335834757,0.771332178,0.289481978,-0.148270472,-0.396884472,-0.4383510005,1719,"DG_s09",15.969,16.594,17.328,17.328,28,4,10,10,0.734,"Left",28,4,24,24,0,0,-24,0,-24,24,24,"Advent",18,-6,28,10,4,10
"122",7,"POL RPC2-Ref-POL RPC3-Ref",-0.447085709,-0.5121414973,-0.6125682063,-0.8306821133,-1.0154043383,-1.061413835,-0.95887217545,-0.74282038705,-0.63635271705,-0.73489558205,-0.9217442916,-1.01426528,-0.9475748615,-0.7070993115,-0.3605727615,-0.0137372115,0.3367446,0.69765865,1.0333189,1.2726846,1.3459136,1.2162726,0.8909012,0.41572410565,-0.13840109435,-0.69028959435,-1.10585819435,-1.3219199,-1.35756215,-1.24476585,-1.09457655,-0.98458175,-0.9433344,-0.9972983,-1.09969105,-1.1505963,1719,"DG_s09",15.969,16.594,17.328,17.328,28,4,10,10,0.734,"Left",28,4,24,24,0,0,-24,0,-24,24,24,"Advent",18,-6,28,10,4,10
"123",7,"POL ROF1-Ref-POL ROF2-Ref",0.968750374,0.907756874,0.559120171,0.211080804,0.164629504,0.469240404,1.085036957,1.643790824,1.844233824,1.734310324,1.471289574,1.182613374,0.889344274,0.5358272595,0.1532950595,-0.048982857,-0.002729907,0.2859097075,0.6570969575,0.820708574,0.731307074,0.47596260368,0.19929201368,0.00892879368,-0.07903207132,-0.120032101,-0.178693761,-0.217872476,-0.1619327795,0.0049235705,0.2172794205,0.321125089,0.1997209275,-0.1232891225,-0.3929286725,-0.501029856,1719,"DG_s09",15.969,16.594,17.328,17.328,28,4,10,10,0.734,"Left",28,4,24,24,0,0,-24,0,-24,24,24,"Advent",18,-6,28,10,4,10
"124",7,"POL LAM2-Ref-POL LAM3-Ref",-0.0587008712,-0.04431283415,-0.0959555631,-0.2031700031,-0.3437306031,-0.47959863215,-0.56584561715,-0.58348536715,-0.54754671715,-0.49075891715,-0.45569046715,-0.47887036715,-0.58240171715,-0.73268976715,-0.79376711715,-0.74918221715,-0.61711281715,-0.46877216715,-0.45903501715,-0.57716091715,-0.71346791715,-0.75998151715,-0.65087715565,-0.38145768065,-0.04339153065,0.24821626935,0.40397650785,0.38612189785,0.23313450735,0.03178490735,-0.13285874265,-0.20316343765,-0.15950633715,-0.01382408715,0.20629906285,0.45487669285,1719,"DG_s09",15.969,16.594,17.328,17.328,28,4,10,10,0.734,"Left",28,4,24,24,0,0,-24,0,-24,24,24,"Advent",18,-6,28,10,4,10
"125",7,"POL LAM5-Ref-POL LAM6-Ref",-0.0323390315,0.2101275785,0.735466699,1.316200849,1.4840268215,1.2778553215,0.9113190215,0.5676248215,0.3180938178,0.1657851178,0.09135700375,0.08014043875,0.11452687745,0.12905889627,0.03493301032,-0.16143512468,-0.35401925968,-0.4545627785,-0.4246416785,-0.2726422648,-0.0405935848,0.2491226152,0.5661757152,0.8257071515,0.9127824215,0.768667025,0.5098779475,0.3450839575,0.3683978575,0.576573004,0.8329945815,0.9651103715,0.9420871215,0.7889101265,0.5265383315,0.1815126315,1719,"DG_s09",15.969,16.594,17.328,17.328,28,4,10,10,0.734,"Left",28,4,24,24,0,0,-24,0,-24,24,24,"Advent",18,-6,28,10,4,10
"126",7,"POL ROF6-Ref-POL ROF7-Ref",-0.34961715,-0.18048415,-0.0562825,-0.07873655,-0.313117993,-0.727900943,-1.138232393,-1.390643043,-1.47255485,-1.46825635,-1.5463604,-1.6437867,-1.598706231,-1.361276631,-0.951014131,-0.570166081,-0.3736597,-0.34294445,-0.399737,-0.4680878,-0.51712235,-0.5677318,-0.6629446155,-0.8093965305,-0.941362181,-0.976305501,-0.8864465855,-0.7144247205,-0.55965212,-0.50533125,-0.56157545,-0.693651541,-0.867899246,-1.071772696,-1.298352146,-1.502416855,1719,"DG_s09",15.969,16.594,17.328,17.328,28,4,10,10,0.734,"Left",28,4,24,24,0,0,-24,0,-24,24,24,"Advent",18,-6,28,10,4,10
"127",7,"POL LAM1-Ref-POL LAM2-Ref",0.4004536,0.45616105,0.48767755,0.49807855,0.48454155,0.44560205,0.3754241,0.25077275,0.033674425,-0.301222107,-0.720195057,-1.063407057,-1.234869032,-1.2486283,-1.1729377,-1.1751491,-1.3162239,-1.4364898,-1.4569612,-1.3670666,-1.1941364,-1.0646585,-0.981233835,-0.8880488097,-0.7620781597,-0.6297107597,-0.5507589497,-0.55867370395,-0.6181774153,-0.6682263203,-0.6798960453,-0.67069884135,-0.686289602,-0.751492997,-0.842705197,-0.914896872,1719,"DG_s09",15.969,16.594,17.328,17.328,28,4,10,10,0.734,"Left",28,4,24,24,0,0,-24,0,-24,24,24,"Advent",18,-6,28,10,4,10
"128",7,"POL RHP6-Ref-POL RHP7-Ref",-0.294013373,0.022361127,0.474292977,0.841777827,1.007908103,0.958557203,0.7440387465,0.4664165625,0.2217046125,0.0637883625,-0.00502283099999999,-0.040263597,-0.115002297,-0.246368647,-0.311856797,-0.2333225575,0.00248804250000001,0.3696526425,0.7282505425,1.009743603,1.226246253,1.374146153,1.411130753,1.281666553,0.9657730375,0.5294220375,0.1509337875,-0.031860546,-0.0029362805,0.1619318195,0.2921909845,0.269934744,0.096895494,-0.145754106,-0.322826871,-0.356118872,1719,"DG_s09",15.969,16.594,17.328,17.328,28,4,10,10,0.734,"Left",28,4,24,24,0,0,-24,0,-24,24,24,"Advent",18,-6,28,10,4,10
"129",7,"POL ROF5-Ref-POL ROF6-Ref",-0.82012165095,-0.56600955095,-0.37642966705,-0.37637875705,-0.49835878505,-0.64912053505,-0.76209601895,-0.81354176895,-0.82859831895,-0.86452716895,-0.95745226895,-1.00261161895,-0.87294401395,-0.52560196395,0.01973893605,0.58819888605,1.00226063105,1.20984198105,1.22465048105,1.07735663105,0.77602993105,0.30461543605,-0.28546211395,-0.65297269895,-0.73667572395,-0.58198127895,-0.31731882495,-0.31688948995,-0.54807381495,-0.75234056495,-0.796816459,-0.651435339,-0.392813089,-0.204256889,-0.14351841395,-0.2077219939,1719,"DG_s09",15.969,16.594,17.328,17.328,28,4,10,10,0.734,"Left",28,4,24,24,0,0,-24,0,-24,24,24,"Advent",18,-6,28,10,4,10
"130",7,"POL RAM4-Ref-POL RAM5-Ref",0.233588626,0.621598376,0.953200319,1.214664769,1.339327869,1.247400419,0.9212006,0.43706555,-0.0487467,-0.395848,-0.593205381,-0.653509131,-0.598990631,-0.507236981,-0.405188381,-0.351160631,-0.405216981,-0.471453331,-0.504569731,-0.501700381,-0.437742131,-0.323780201,-0.148878555,0.097219895,0.342575695,0.45142875,0.357177485,0.086894485,-0.10704836,-0.0892399385,0.1483209305,0.5467879805,0.8486746255,0.947705319,0.889166019,0.746797119,1719,"DG_s09",15.969,16.594,17.328,17.328,28,4,10,10,0.734,"Left",28,4,24,24,0,0,-24,0,-24,24,24,"Advent",18,-6,28,10,4,10
"131",7,"POL RPC1-Ref-POL RPC2-Ref",0.5573046515,0.2554892565,-0.1093189435,-0.3679427435,-0.4612832635,-0.4286297185,-0.3960014685,-0.4987685185,-0.7314897685,-0.9158162185,-0.9800586685,-0.9254917185,-0.7970825685,-0.7505260185,-0.8027045685,-0.8501405185,-0.8017653185,-0.6345427857,-0.3873738357,-0.1717378257,-0.0703982696,-0.0662410774,-0.0679717884,0.0235432016,0.2594347955,0.6207870705,1.0221191315,1.3560354315,1.5337559315,1.5032049315,1.2618638315,0.8569202945,0.3678697545,-0.1131876455,-0.4961702955,-0.7431343585,1719,"DG_s09",15.969,16.594,17.328,17.328,28,4,10,10,0.734,"Left",28,4,24,24,0,0,-24,0,-24,24,24,"Advent",18,-6,28,10,4,10
"132",7,"POL RAM3-Ref-POL RAM4-Ref",1.0439235865,1.2917685765,1.3138799765,1.0823675165,0.6152519315,0.0954238315,-0.2091328985,-0.28684909285,-0.19445426035,-0.12984776035,-0.30507988035,-0.465094726,-0.5113112735,-0.4260657235,-0.2465463735,-0.2123886735,-0.3463748735,-0.5061929735,-0.5674778735,-0.5168853235,-0.3909182735,-0.3281749735,-0.4070352235,-0.4757785735,-0.4278363775,-0.2237929775,0.1119093725,0.4126720225,0.5752944765,0.5676360765,0.3881540635,0.0798345135,-0.2643801365,-0.5503728865,-0.7306897735,-0.7566192235,1719,"DG_s09",15.969,16.594,17.328,17.328,28,4,10,10,0.734,"Left",28,4,24,24,0,0,-24,0,-24,24,24,"Advent",18,-6,28,10,4,10
"133",7,"POL RAM5-Ref-POL RAM6-Ref",-0.932126037,-0.896699337,-0.843675537,-0.805943712,-0.7086481529,-0.5348317529,-0.3771858725,-0.3746364475,-0.5383891566,-0.7994483566,-1.064733487,-1.259748437,-1.306057037,-1.193079237,-0.979138722,-0.756974572,-0.660247922,-0.749783122,-0.892139887,-0.953007737,-0.909663687,-0.773021287,-0.645150937,-0.5367113485,-0.3615607485,-0.0940264485,0.1906653515,0.340658863,0.25690267553,0.01227350553,-0.19020279497,-0.25879959497,-0.2247751575,-0.2209058245,-0.353877674,-0.475463492,1719,"DG_s09",15.969,16.594,17.328,17.328,28,4,10,10,0.734,"Left",28,4,24,24,0,0,-24,0,-24,24,24,"Advent",18,-6,28,10,4,10
"134",7,"POL RPC3-Ref-POL RPC4-Ref",0.64447635,0.5500746,0.3440323,0.0901262500000001,-0.14909955,-0.34299137,-0.489389186,-0.594577674254,-0.659174439254,-0.690147276754,-0.719140693754,-0.7900582555,-0.9169058905,-1.070136983,-1.21637725,-1.3224717,-1.31241895,-1.12379808,-0.75920528,-0.29420623,0.09084037,0.22100645,0.06899336,-0.2249167165,-0.4721470815,-0.5863017315,-0.603385896,-0.6548849295,-0.8502233645,-1.1464504645,-1.39328906,-1.4828786,-1.3882,-1.16588028645,-0.93404858145,-0.76586352645,1719,"DG_s09",15.969,16.594,17.328,17.328,28,4,10,10,0.734,"Left",28,4,24,24,0,0,-24,0,-24,24,24,"Advent",18,-6,28,10,4,10
"135",7,"POL LAM3-Ref-POL LAM4-Ref",-1.3377203755,-1.8642726255,-2.2543640255,-2.4369124655,-2.4502519,-2.3589053,-2.3201332,-2.31513845,-2.26838329,-2.17020545,-2.087511865,-2.131099765,-2.295896625,-2.401150815,-2.3656842989,-2.1791205989,-1.9149568489,-1.7629379589,-1.7696308275,-1.8867111275,-2.0403154275,-2.1830133675,-2.31184445,-2.4348345,-2.51029385,-2.5083839,-2.43817595,-2.34010755,-2.28981985,-2.2887995,-2.28120375,-2.23174075,-2.14214784,-2.048165415,-1.97222645024,-1.89868876024,1719,"DG_s09",15.969,16.594,17.328,17.328,28,4,10,10,0.734,"Left",28,4,24,24,0,0,-24,0,-24,24,24,"Advent",18,-6,28,10,4,10
"136",7,"POL RHP5-Ref-POL RHP6-Ref",0.6016701307,0.2641987807,-0.1403253693,-0.4176818693,-0.5261234063,-0.4907154563,-0.3944619563,-0.3176110463,-0.2210129284,-0.0834338784,0.0509027716,0.09325817895,-0.01428783895,-0.23060818895,-0.40087303895,-0.4332990463,-0.32699815475,-0.155328441,-0.074753911,-0.150926671,-0.31003636255,-0.4100430763,-0.3743827273,-0.1999371773,0.0329668227,0.1893886227,0.2013441835,0.0569508335,-0.2178047165,-0.4559139665,-0.5105571653,-0.3806616853,-0.1247424853,0.0552392762,0.0164060852,-0.1359348948,1719,"DG_s09",15.969,16.594,17.328,17.328,28,4,10,10,0.734,"Left",28,4,24,24,0,0,-24,0,-24,24,24,"Advent",18,-6,28,10,4,10
"137",7,"POL ROF2-Ref-POL ROF3-Ref",-0.44119632855,-0.64964278855,-0.74572477,-0.6551376865,-0.3828194865,-0.0112186365,0.3449610135,0.58423968,0.66724878,0.63631888,0.56928158,0.51285648,0.44812673,0.303118425,0.026499375,-0.286099375,-0.4301109705,-0.3106731655,0.0636647845,0.5354319345,0.86751398,0.97631673,0.91549823,0.80489748,0.73383053,0.71473598,0.68583388,0.56777568,0.347267676,0.1000786635,-0.0526780781,-0.0378195781,0.1237191259,0.3249509884,0.42060593,0.32708302576,1719,"DG_s09",15.969,16.594,17.328,17.328,28,4,10,10,0.734,"Left",28,4,24,24,0,0,-24,0,-24,24,24,"Advent",18,-6,28,10,4,10
"138",7,"POL RPC5-Ref-POL RPC6-Ref",-1.71736926504,-2.65787161504,-3.47393976504,-3.95449361504,-4.1638865,-4.1817911,-4.13836235,-4.1519227,-4.1431905,-4.07623875,-3.9671454,-3.85884845,-3.727611318,-3.510252518,-3.164221568,-2.699289168,-2.185453,-1.7383101,-1.4855895,-1.52498245,-1.885887415,-2.5072201585,-3.2268374085,-3.7831766585,-4.0788919435,-4.10029365,-3.87993785,-3.57229185,-3.23494255,-2.91782,-2.70453445,-2.64518565,-2.7355799,-2.9318172275,-3.1693721725,-3.3808218725,1719,"DG_s09",15.969,16.594,17.328,17.328,28,4,10,10,0.734,"Left",28,4,24,24,0,0,-24,0,-24,24,24,"Advent",18,-6,28,10,4,10
"139",7,"POL LAM6-Ref-POL LAM7-Ref",-1.2979644925,-1.4998901425,-1.522280285,-1.39072967,-1.21064907,-1.18785677,-1.279900985,-1.4046865,-1.48278745,-1.45286215,-1.309025761,-1.106778611,-0.940229381,-0.916594749224,-1.098141338224,-1.350781188224,-1.456462503224,-1.3822169355,-1.1410747355,-0.9017318755,-0.873310485,-1.0459336345,-1.3063060845,-1.4825652945,-1.52897705,-1.47114655,-1.41010815,-1.46648415,-1.5408911,-1.521393185,-1.3798135985,-1.1406574485,-0.9190843985,-0.7683298635,-0.64491595,-0.50490185,1719,"DG_s09",15.969,16.594,17.328,17.328,28,4,10,10,0.734,"Left",28,4,24,24,0,0,-24,0,-24,24,24,"Advent",18,-6,28,10,4,10
"140",7,"POL ROF3-Ref-POL ROF4-Ref",0.051871,-0.17431565,-0.33075095,-0.38333325,-0.3472605,-0.27378905,-0.23072405,-0.2061816,-0.15295105,-0.03900325,0.12913353965,0.30713257065,0.4278150020725,0.4319598520725,0.3083229124225,0.1379573814225,0.0466711,0.0898081834,0.2516104784,0.4409600084,0.5731695984,0.696941515,0.91026012,1.25346069,1.67573,2.0431354,2.21970245,2.1441902,1.83348815,1.3825458425,0.9890685375,0.8358715375,0.9710439875,1.327390795,1.7212076,1.98348085,1719,"DG_s09",15.969,16.594,17.328,17.328,28,4,10,10,0.734,"Left",28,4,24,24,0,0,-24,0,-24,24,24,"Advent",18,-6,28,10,4,10
"141",7,"POL RAM2-Ref-POL RAM3-Ref",0.106157354,-0.207167356,-0.578170506,-0.843781506,-0.94920276,-0.9174608,-0.8348704,-0.80662935,-0.8176034,-0.81994995,-0.799181,-0.783407,-0.82284675,-0.94840315,-1.1183518,-1.1949199,-1.138705125,-0.96072895675,-0.73958743595,-0.64051172095,-0.70784909595,-0.8784078642,-1.020118685,-1.07117955,-1.02717045,-0.93640915,-0.880168,-0.86169665,-0.85609755,-0.85949465,-0.88922135,-0.95332035,-1.0087074,-0.98584691,-0.848919826,-0.611201626,1719,"DG_s09",15.969,16.594,17.328,17.328,28,4,10,10,0.734,"Left",28,4,24,24,0,0,-24,0,-24,24,24,"Advent",18,-6,28,10,4,10
"142",7,"POL RHP4-Ref-POL RHP5-Ref",0.7600690891,0.9435699776,0.7904231031,0.4855780531,0.3228754228,0.3652435728,0.5661379473,0.7366829973,0.7778106276,0.8689442776,1.1070774276,1.4403130776,1.6450772776,1.5062968276,1.0139639896,0.3609982396,-0.0575453604,-0.1874529076,-0.0777571806,0.1183519394,0.0852020394,-0.1340455134,-0.3699793524,-0.5074169724,-0.5128657224,-0.3982162724,-0.2368225724,-0.0619523267,0.1241606533,0.2931389033,0.4011919033,0.4276708826,0.4077956576,0.4111394076,0.4866873076,0.6365672826,1719,"DG_s09",15.969,16.594,17.328,17.328,28,4,10,10,0.734,"Left",28,4,24,24,0,0,-24,0,-24,24,24,"Advent",18,-6,28,10,4,10
"143",7,"POL RAM6-Ref-POL RAM7-Ref",-0.17299036855,-0.40747286855,-0.58600697855,-0.65992180855,-0.62085835855,-0.50097210855,-0.35441709355,-0.20417276355,-0.06527426355,0.03887403645,0.08448140645,0.05575734695,-0.04198700305,-0.15344705305,-0.18864140055,-0.08170962105,0.20183957895,0.62509292895,1.06985924145,1.40362964145,1.50760654145,1.31740369145,0.86436327745,0.26737557745,-0.28988487255,-0.64895817255,-0.77439975855,-0.69922080855,-0.53442660855,-0.39850305855,-0.31671825855,-0.26335156355,-0.18567083905,-0.05319238905,0.11678506095,0.25542371595,1719,"DG_s09",15.969,16.594,17.328,17.328,28,4,10,10,0.734,"Left",28,4,24,24,0,0,-24,0,-24,24,24,"Advent",18,-6,28,10,4,10
"144",7,"POL RPC4-Ref-POL RPC5-Ref",-1.038619883,-1.645596683,-2.008475183,-2.069474896,-1.873957321,-1.518828171,-1.278717771,-1.236929389,-1.3731649415,-1.6217381915,-1.8766365915,-2.0419664525,-2.05156505,-1.8610278439,-1.4835467939,-0.9714792939,-0.4094707939,0.0659723999999999,0.31071085,0.22685025,-0.2036300156,-0.9052498156,-1.5956909656,-2.0044125156,-2.1330654,-2.004962115,-1.778716314,-1.604615464,-1.429098664,-1.254596199,-1.1350587,-1.1166371,-1.20026699,-1.354227445,-1.534940395,-1.696409695,1719,"DG_s09",15.969,16.594,17.328,17.328,28,4,10,10,0.734,"Left",28,4,24,24,0,0,-24,0,-24,24,24,"Advent",18,-6,28,10,4,10
"145",8,"POL RAM5-Ref-POL RAM6-Ref",0.181537638,0.100638784,0.2683499105,0.6457452105,1.0548320605,1.1019163585,0.8496061135,1.0175755635,1.8674967635,3.5442827695,5.7538132645,7.6677038145,9.0180538145,9.7410718145,9.9175008145,9.7152163145,9.3115958145,8.8059238145,8.1871158145,7.3680478145,6.2578508145,4.8563288145,3.3685322645,2.2557036645,1.7942641645,1.9338126645,2.3961387145,2.6854098145,2.5305403645,2.0231112645,1.4295223645,0.9777678145,0.7462132645,0.6962119645,0.7134146645,0.7147062145,1720,"DG_s09",18.328,18.938,19.734,19.75,10,10,4,4,0.796,"Left",4,4,0,0,0,0,0,0,0,0,0,"10-10",6,6,10,4,10,4
"146",8,"POL LAM5-Ref-POL LAM6-Ref",1.1126036955,1.13968897,1.025034885,0.885099225,0.813941525,0.836936205,0.91807654,1.0049039,1.07892145,1.1420718,1.1829744,1.16638815,1.0597511307,0.8657655307,0.6208020807,0.3744539807,0.16345675,-0.00523419999999997,-0.0825468499999999,0.00330474999999997,0.24834490985,0.59769430985,0.90521970985,1.00086673675,0.8345149769,0.4815407269,0.1519917269,-0.04372775,-0.12810805,-0.165348,-0.13169595,-0.00960486000000005,0.227743185,0.574786835,0.847822785,0.990841995,1720,"DG_s09",18.328,18.938,19.734,19.75,10,10,4,4,0.796,"Left",4,4,0,0,0,0,0,0,0,0,0,"10-10",6,6,10,4,10,4
"147",8,"POL LAM6-Ref-POL LAM7-Ref",0.6514781977,0.8557519477,0.980352081,0.9114308885,0.5791664385,0.3384398385,0.3542344885,0.631208306,1.098216156,1.297794751,1.0536926385,0.6970538085,0.6576912585,1.0917115135,2.049290276,3.184662006,4.019673406,4.318449906,3.939043906,2.9529758535,1.9562206565,1.4560811065,1.4975301065,1.923428159,2.154235106,1.81175621,1.07767631,0.46180291,0.09110536,-0.044670344,-0.031658194,-0.149261044,-0.250695444,-0.199149104,0.05998877455,0.48454012455,1720,"DG_s09",18.328,18.938,19.734,19.75,10,10,4,4,0.796,"Left",4,4,0,0,0,0,0,0,0,0,0,"10-10",6,6,10,4,10,4
"148",8,"POL ROF1-Ref-POL ROF2-Ref",-0.2076085,-0.07490104,0.079356415,0.099914015,-0.064841185,-0.262330945,-0.35639475,-0.3249244,-0.16404665,0.00327264999999999,0.0933013,0.1424102,0.198305086,0.298130436,0.454547436,0.656119786,0.86723735,1.0384924,1.12030595,1.0717236,0.8768841325,0.5667034325,0.2285817325,-0.0331122675,-0.18146865,-0.2538195,-0.3064673,-0.3448679,-0.3540378,-0.3315827,-0.296939,-0.30770885,-0.3498199,-0.361382,-0.3247256,-0.26409695,1720,"DG_s09",18.328,18.938,19.734,19.75,10,10,4,4,0.796,"Left",4,4,0,0,0,0,0,0,0,0,0,"10-10",6,6,10,4,10,4
"149",8,"POL LAM1-Ref-POL LAM2-Ref",0.2424632,0.26693955,0.2371663,0.24681033,0.3570661595,0.5801267595,0.8530858095,1.0710761295,1.1883757,1.2062883,1.14569895,1.03382157,0.898872342,0.766106967,0.653966517,0.572617297,0.522578375,0.4974263,0.4886548,0.48535895,0.4739217,0.44406685,0.3946541,0.3330775,0.27210205,0.221842,0.1786938,0.1241305,0.0355035,-0.0551351999999999,-0.05969835,0.048354925,0.2680784255,0.5298072755,0.7015663065,0.709491522,1720,"DG_s09",18.328,18.938,19.734,19.75,10,10,4,4,0.796,"Left",4,4,0,0,0,0,0,0,0,0,0,"10-10",6,6,10,4,10,4
"150",8,"POL RAM4-Ref-POL RAM5-Ref",-0.118932,-0.0385639245,0.1607038255,0.4187772255,0.6105971755,0.62649413405,0.45255073405,0.32783848555,0.56046113555,1.2858129515,2.5029311515,3.904039,5.07033695,5.79450895,6.13503045,6.38978045,6.83898245,7.51836245,8.16362845,8.33479695,7.71315145,6.27810695,4.274311132,2.387971517,1.285701967,0.914042967,1.091181935,1.3032192,1.08976722435,0.67762682435,0.33945070535,0.25063257535,0.432893201,0.774837601,1.07515162,1.13989235,1720,"DG_s09",18.328,18.938,19.734,19.75,10,10,4,4,0.796,"Left",4,4,0,0,0,0,0,0,0,0,0,"10-10",6,6,10,4,10,4
"151",8,"POL RAM3-Ref-POL RAM4-Ref",0.08632015,0.25820665,0.69353885,1.28823585,1.76140335,1.85425185,1.54522735,1.22481985,1.27569785,1.78846085,2.58385085,3.11087685,2.91977285,2.015659675,1.10027786,0.79370536,1.18714536,2.127979535,2.89963535,2.97192285,2.44017685,1.62568815,0.85812695,0.30536515,-0.0275344,-0.24335795,-0.4456928664,-0.6634374664,-0.8778875664,-0.9948364164,-0.9427897735,-0.7368526735,-0.4563052235,-0.2854639435,-0.3642698135,-0.6269468135,1720,"DG_s09",18.328,18.938,19.734,19.75,10,10,4,4,0.796,"Left",4,4,0,0,0,0,0,0,0,0,0,"10-10",6,6,10,4,10,4
"152",8,"POL ROF3-Ref-POL ROF4-Ref",-0.2283761065,0.0926054435,0.3828803935,0.5734919785,0.658395844,0.657738694,0.5766786836205,0.4007976071205,0.1690906071205,0.0330556331205,0.0915184935,0.35166267,0.71150772,0.953158394,0.948002994,0.6954000735,0.2865574735,-0.1056954765,-0.3526724265,-0.439214106,-0.425807906,-0.448821456,-0.581694256,-0.649065256,-0.585620506,-0.386654073,-0.092440628,0.09942978155,0.14496356155,0.07520867855,-0.05939196645,-0.192031226,-0.257102556,-0.227290106,-0.114431871,0.02567538925,1720,"DG_s09",18.328,18.938,19.734,19.75,10,10,4,4,0.796,"Left",4,4,0,0,0,0,0,0,0,0,0,"10-10",6,6,10,4,10,4
"153",8,"POL ROF4-Ref-POL ROF5-Ref",-0.63716811,-0.76191578825,-0.56947462825,-0.09280627825,0.35348422175,0.381437361,0.083847661,-0.2258740259,-0.3444555759,-0.2530334369,-0.0859950369,-0.1051859625,-0.3969180625,-0.7666993625,-0.9383391175,-0.819137105,-0.433046855,0.0201151450000001,0.258543,0.1518256248,-0.2912501252,-0.5830269652,-0.4574705152,0.16111046,1.22227441,2.20009,2.79998455,2.93051605,2.58577955,1.8494708,0.88366642995,-0.09189517005,-0.86091717005,-1.35639992005,-1.4863645,-1.266561532,1720,"DG_s09",18.328,18.938,19.734,19.75,10,10,4,4,0.796,"Left",4,4,0,0,0,0,0,0,0,0,0,"10-10",6,6,10,4,10,4
"154",8,"POL RPC5-Ref-POL RPC6-Ref",-0.67449618815,-0.45050573815,-0.12343228815,0.05451146585,-0.0565199768,-0.3657516768,-0.5758219268,-0.5349685688,-0.1770745688,0.4401997812,1.0586723312,1.5369470192,1.7749924192,1.7026034692,1.3131562737,0.6688359237,-0.0370873263,-0.4605300763,-0.5505428113,-0.3411794613,0.0273539387,0.2755876887,0.4128237692,0.5103448192,0.6193802692,0.7456522192,0.8479824192,0.8621476192,0.7505856192,0.5629989192,0.4277462692,0.4333250692,0.5641161192,0.6946544692,0.6440512857,0.3206974257,1720,"DG_s09",18.328,18.938,19.734,19.75,10,10,4,4,0.796,"Left",4,4,0,0,0,0,0,0,0,0,0,"10-10",6,6,10,4,10,4
"155",8,"POL LAM3-Ref-POL LAM4-Ref",-0.24886980315,-0.14204590315,-0.14510925315,-0.22642097315,-0.27564022315,-0.2206806044,-0.0602120544,0.1370575956,0.2730337806,0.30474036185,0.24507892085,0.13049705585,-0.000115494149999999,-0.11581094415,-0.19821000315,-0.24645868815,-0.28024363815,-0.32934823815,-0.40856828815,-0.49340028815,-0.53960838815,-0.52753918815,-0.47211923815,-0.42020913815,-0.40917053815,-0.42710063815,-0.45080488815,-0.47396543815,-0.47474313815,-0.39230570415,-0.18427265415,0.15542804585,0.56425064585,0.90184846185,1.05494866185,0.98155381185,1720,"DG_s09",18.328,18.938,19.734,19.75,10,10,4,4,0.796,"Left",4,4,0,0,0,0,0,0,0,0,0,"10-10",6,6,10,4,10,4
"156",8,"POL LAM2-Ref-POL LAM3-Ref",-0.20072715,-0.3090313,-0.31641755,-0.2163614,-0.04027245,0.108912325,0.2206229775,0.30349951555,0.36178880555,0.40166967055,0.43079160805,0.44481673,0.4205174615,0.3384931715,0.2381759815,0.20230897315,0.27031359665,0.41750044665,0.54110549165,0.517470489,0.309382644,0.00104259400000001,-0.230371201,-0.3609152,-0.4054154,-0.4122934,-0.461601,-0.5323878,-0.525462,-0.369125045,-0.0714813035,0.3788603965,0.8976666965,1.3666052415,1.68924905,1.7883872,1720,"DG_s09",18.328,18.938,19.734,19.75,10,10,4,4,0.796,"Left",4,4,0,0,0,0,0,0,0,0,0,"10-10",6,6,10,4,10,4
"157",8,"POL ROF5-Ref-POL ROF6-Ref",-0.4709395437,-0.5547011937,-0.4181976837,-0.0530255337,0.4879668663,0.9754370663,1.2674912063,1.3440203063,1.2294830563,0.9634225563,0.5882970553,0.1533146553,-0.2789309447,-0.6227992447,-0.8031608937,-0.8129609437,-0.7005887937,-0.5642055937,-0.5134125437,-0.6067694937,-0.7482348437,-0.7642534437,-0.60898641512,-0.26051281512,0.17460753488,0.53726903488,0.8177291063,1.0316708563,1.1941280563,1.3079132563,1.3649472563,1.3557022563,1.2770358063,1.1315598563,0.9264640563,0.6776449863,1720,"DG_s09",18.328,18.938,19.734,19.75,10,10,4,4,0.796,"Left",4,4,0,0,0,0,0,0,0,0,0,"10-10",6,6,10,4,10,4
"158",8,"POL ROF6-Ref-POL ROF7-Ref",-0.5238877787,-0.2579377287,0.1247659713,0.4153472213,0.5177721928,0.4700850428,0.3747298428,0.3202597928,0.3216433428,0.3173723428,0.2190561723,-0.0110895277,-0.3263342777,-0.6286231277,-0.8327465072,-0.9166271072,-0.9256018572,-0.9407451072,-0.9716034572,-0.9207218572,-0.7633895422,-0.51863191745,-0.29399848595,-0.26264763595,-0.42886730095,-0.6247823257,-0.7420576572,-0.7634209072,-0.7085667572,-0.6282470072,-0.4831768602,-0.2146924602,0.1668689898,0.5500737898,0.8151318428,0.9111898928,1720,"DG_s09",18.328,18.938,19.734,19.75,10,10,4,4,0.796,"Left",4,4,0,0,0,0,0,0,0,0,0,"10-10",6,6,10,4,10,4
"159",8,"POL RPC3-Ref-POL RPC4-Ref",-0.77939593215,-0.95617968215,-0.9059265271,-0.6310393271,-0.2772249771,-0.0581315771,0.1032783,0.25797715,0.3857435,0.4179143,0.308482705,0.06885110515,-0.25517764485,-0.60211694485,-0.90029314985,-1.09739055,-1.170608,-1.1154757,-0.96103415,-0.7521720975,-0.5332623175,-0.3591756025,-0.27705460905,-0.29714056155,-0.37782164155,-0.44230772155,-0.4318815335,-0.3424673335,-0.2272177335,-0.16652195225,-0.20424903375,-0.32293303375,-0.47735073375,-0.627948,-0.7485669,-0.82090035,1720,"DG_s09",18.328,18.938,19.734,19.75,10,10,4,4,0.796,"Left",4,4,0,0,0,0,0,0,0,0,0,"10-10",6,6,10,4,10,4
