"","trial","electrodes","pre_13","pre_12","pre_11","pre_10","pre_9","pre_8","pre_7","pre_6","pre_5","pre_4","pre_3","pre_2","pre_1","post_1","post_2","post_3","post_4","post_5","post_6","post_7","post_8","post_9","post_10","post_11","post_12","post_13","post_14","post_15","post_16","post_17","post_18","post_19","post_20","post_21","post_22","post_23","post_24","post_25","post_26","post_27","post_28","post_29","X","SID","newround_time","choice_time","buttonpress_time","reveal_time","self_payoff","other_payoff","self_foregone","other_foregone","RT","side_chosen","self_var_payoff","other_var_payoff","ineq_var_abs","ineq_choice_abs","ineq_foregone_abs","ineq_disadvent","ineq_advent","ineq_disadvent_choice","ineq_advent_choice","ineq_choice","chose_equality","self_diff","other_diff","L_self","R_self","L_other","R_other"
"1",1,"LAM4-LAM5",0.209193253166667,0.0613635251666667,0.0661458609,0.1001935729,0.0653059675666667,0.0428101418333333,-0.0615892708333333,-0.1288947175,-0.0763202493,0.208711350033333,0.5130687767,0.607269971833333,0.806889375766667,0.474454723766667,0.3561526531,-0.0687879001666667,0.0480496771666667,0.0164183531666667,-0.0267192815,-0.1144797355,-0.187323760833333,-0.146785024166667,-0.0618832935,0.0380355283666667,-0.0536911596333333,-0.153175449566667,-0.1161701381,-0.0660443061,-0.0637929595,-0.1377406335,-0.121793558166667,-0.1452930855,-0.1514107155,-0.1493305995,-0.0458181328333333,0.0448636511666667,0.0793285811666667,0.0972181040333333,0.0291723553666667,-0.0816897853,-0.1649888435,-0.210046494833333,2625,"DG_s13",-0.797,0,1.015,1.015,10,10,10,18,1.015,"Left",10,18,8,0,8,8,0,0,0,-8,"10-10",0,-8,10,10,10,18
"2",1,"LIN9-LIN10",-0.107058024833333,-0.241966924833333,-0.2423753375,-0.212053884166667,-0.0533955908333333,-0.00962163083333334,-0.0246836675,-0.0562396588333333,-0.169794116966667,-0.213753318966667,-0.314778442966667,-0.182915134166667,-0.164132580166667,-0.0352963981666667,-0.0667865255,-0.0842725475,-0.0948864421666667,-0.127657940833333,-0.0343568528333333,-0.186470629893333,-0.18849737856,-0.182315029893333,-0.0832980915,-0.0450066768333333,-0.196516722166667,-0.3245586635,-0.4091654235,-0.418556974166667,-0.3895815135,-0.351448706166667,-0.253919248833333,-0.230609234833333,-0.266076258833333,-0.2600927835,-0.349921470166667,-0.347715934633333,-0.3627240813,-0.239740147966667,-0.267701566166667,-0.3028415415,-0.405419390833333,-0.355272952833333,2625,"DG_s13",-0.797,0,1.015,1.015,10,10,10,18,1.015,"Left",10,18,8,0,8,8,0,0,0,-8,"10-10",0,-8,10,10,10,18
"3",1,"RTI2-RTI3",0.05308923985,0.07867616985,0.0135831491833333,-0.000633683483333342,-0.00830012941666666,-0.0502922260833333,-0.14884365615,-0.102595044883333,0.09974394845,0.16335026785,0.0737152911833333,-0.02724681815,0.0873803285166667,0.112615739183333,0.110658042516667,0.0563385491833333,0.20336026985,0.305925629183333,0.358750329183333,0.219626115183333,0.07653213585,-0.0681145294833333,-0.153852884816667,-0.239000925483333,-0.30650740015,-0.259476485483333,-0.117100398816667,-0.0960229894833333,-0.0884022854833333,-0.12110321215,0.01674689185,0.0468730859166667,0.128213342583333,0.04821564925,0.00975848451666667,-0.06692713215,-0.0348540868166667,0.00841997451666666,-0.00357009881666666,-0.0949943108166667,-0.0864613408166667,-0.0674326694833333,2625,"DG_s13",-0.797,0,1.015,1.015,10,10,10,18,1.015,"Left",10,18,8,0,8,8,0,0,0,-8,"10-10",0,-8,10,10,10,18
"4",1,"LIN4-LIN5",0.231845573333333,0.1236453232,0.0332116158666667,0.0724610145333333,0.0146258713333333,0.0386555902,0.0381399562,0.0351304055333333,-0.0665983393333333,-0.0642443126666667,-0.107751162,-0.0282881046666667,0.018845646,0.0403268393333333,0.07746869,0.015575756,0.0383508386666667,0.127948810666667,0.184648374,0.191986337266667,-0.00462906273333333,-0.132976336066667,-0.0037827404,0.0978412622666667,0.180643574266667,0.102520905333333,0.0522181746666667,0.053108062,-0.074229824,-0.017568118,0.103039082666667,0.160744354,0.219801251333333,0.0598832154666667,0.257825976133333,0.174498826133333,0.110066462,0.101247050666667,0.339659905333333,0.457164035333333,0.264364702666667,0.237826389333333,2625,"DG_s13",-0.797,0,1.015,1.015,10,10,10,18,1.015,"Left",10,18,8,0,8,8,0,0,0,-8,"10-10",0,-8,10,10,10,18
"5",1,"RIN1-RIN2",0.187954205666667,0.115565366646667,0.10887327598,0.144806002646667,0.203263767666667,0.103609499066667,0.0513867330666667,-0.0224682869333333,0.0238363223333333,0.052484703,0.236513331666667,0.262597684333333,0.315652756333333,0.172399134333333,0.0643822483333333,0.178390700333333,0.216377293133333,0.232455460466667,0.0660231951333333,0.0673652743333333,0.0529804003333333,0.0163193876666667,-0.084655091,0.0159898756666667,0.184671877666667,0.349423518333333,0.373570991666667,0.364823941,0.446175504,0.391137487333333,0.379620669333333,0.204914835666667,0.188353951,0.111216984333333,0.179718809,0.110544177,0.0591926236666667,-0.026002271,0.012571413,0.0340299763333333,0.0553105583333333,0.176257301,2625,"DG_s13",-0.797,0,1.015,1.015,10,10,10,18,1.015,"Left",10,18,8,0,8,8,0,0,0,-8,"10-10",0,-8,10,10,10,18
"6",1,"LTI9-LTI10",0.0938621583333333,0.258849658333333,0.210160249,0.282914774333333,0.163667784333333,0.197219633666667,0.137424673,0.146322589666667,0.199704843,0.253959230333333,0.255408164333333,0.104113195,0.127031415666667,0.326323141666667,0.436726531,0.444273870333333,0.220637651,0.186064366333333,0.113850953,0.112178441666667,0.0673290656666667,0.128366612333333,0.388180603,0.522404577,0.532259547666667,0.3467786388,0.2293559188,0.155222101466667,0.0539081363333333,0.113527629666667,0.0715076696666667,0.118056636333333,0.0972206676666667,0.345004794333333,0.411251805,0.330428577,0.178807740333333,0.0800629536666667,0.0342044402666667,0.00796371653333334,0.0258164465333333,0.0764710432666667,2625,"DG_s13",-0.797,0,1.015,1.015,10,10,10,18,1.015,"Left",10,18,8,0,8,8,0,0,0,-8,"10-10",0,-8,10,10,10,18
"7",1,"LTI1-LTI2",0.0383120798333333,-0.1286141735,-0.154425872166667,-0.2789515375,-0.2296635455,-0.2876270335,-0.2790897635,-0.187768302833333,-0.186911576833333,-0.228141478166667,-0.262429154166667,-0.305042358166667,-0.230492546166667,-0.1823464871,-0.102949655766667,-0.116144951766667,-0.138985134166667,-0.210156394166667,-0.264748072833333,-0.354654334833333,-0.383634148833333,-0.399966776166667,-0.368862876833333,-0.191903614166667,-0.2120661875,-0.1887292175,-0.278809736833333,-0.192622134833333,-0.1066323355,-0.0656908655,0.0931235925,0.0384483951666666,-0.0327368361666667,-0.125354502833333,-0.194435201966667,-0.1496449833,-0.1738394253,-0.1466365915,-0.0746082201666667,-0.00937167756666668,0.0106880984333333,0.0413141537666667,2625,"DG_s13",-0.797,0,1.015,1.015,10,10,10,18,1.015,"Left",10,18,8,0,8,8,0,0,0,-8,"10-10",0,-8,10,10,10,18
"8",1,"LIN3-LIN4",0.277420867166667,0.157336843833333,0.0804372438333333,0.0275751778333333,-0.0853423388333333,-0.0704204148333333,-0.0120754428333333,-0.00180080283333334,0.0391910199,0.1135794673,0.1577326365,0.1360540197,-0.0288075263666667,-0.0491334875666667,-0.0443307661666667,0.0194589491666667,0.0676751991,0.124495715766667,0.179673182433333,0.167409983833333,0.139114642166667,0.0775101321666667,0.213185454833333,0.215828093166667,0.259571421833333,0.1056098165,0.0607724189,0.0633726082333333,0.0899509869,0.0869741571666667,0.125700747166667,0.149885039166667,0.228163981833333,0.1607979805,0.2920947265,0.308556940433333,0.242854048433333,0.198096882433333,0.295318041833333,0.466487801833333,0.2997697985,0.3188743985,2625,"DG_s13",-0.797,0,1.015,1.015,10,10,10,18,1.015,"Left",10,18,8,0,8,8,0,0,0,-8,"10-10",0,-8,10,10,10,18
"9",1,"LIN2-LIN3",-0.045752494,-0.0664469913333333,0.0834075326666667,0.0926604946666667,0.283286466666667,0.0900333346666667,0.0688063946666667,-0.00588038333333333,0.0131378026666667,0.091229408,0.033802266,0.0864111793333333,-0.00240828733333333,-0.00507697113333333,0.0450552022,0.158334328866667,0.188967732,0.149702302666667,0.0295877753533333,0.0443994686866667,-0.0307009286466667,-0.00978717066666666,0.124526676,0.282614956,0.461066112,0.387302679333333,0.444521866,0.524750266,0.584198632,0.442671625333333,0.2404622,0.359132466666667,0.529974930133333,0.6055433488,0.5784345488,0.41670042,0.286778421333333,0.117642101333333,0.129889513333333,0.338967652,0.319238065333333,0.165268458666667,2625,"DG_s13",-0.797,0,1.015,1.015,10,10,10,18,1.015,"Left",10,18,8,0,8,8,0,0,0,-8,"10-10",0,-8,10,10,10,18
"10",1,"RTI1-RTI2",-0.259224142016667,-0.129312522416667,-0.13890319575,-0.25992204915,-0.250824137416667,-0.22051373475,-0.05044163475,-0.234511966083333,-0.17906241075,-0.303656886283333,-0.134770837616667,-0.230402922283333,-0.02401094675,-0.118633391416667,0.0267068161833333,-0.00366195048333331,0.182993712183333,0.27946829125,0.243975424583333,0.09395957325,0.0182752265833333,-0.0458446914166667,0.0123442025833334,-0.0897161420833333,-0.0908846720833333,-0.14435480475,-0.0965488194166667,-0.13654846275,-0.234623879416667,-0.18071550075,-0.14972635875,-0.0580541454166667,-0.0186069314166667,0.0563054179166667,0.09465823125,-0.03761697475,-0.000456188083333336,-0.0245830874166667,-0.0525174494166667,-0.22048732075,-0.146129408083333,-0.134192518083333,2625,"DG_s13",-0.797,0,1.015,1.015,10,10,10,18,1.015,"Left",10,18,8,0,8,8,0,0,0,-8,"10-10",0,-8,10,10,10,18
"11",1,"RIN6-RIN7",-0.10159956785,-0.186170104516667,-0.18422833785,-0.12711132645,-0.04144885045,0.0184537982166667,0.0368647873033333,0.0616157953033333,0.07935678397,0.06654723015,0.0173657048166667,0.117147660816667,0.335932380816667,0.459522237483333,0.44014550415,0.30869030195,0.246240148616667,0.0581169726166667,0.12972344815,0.0483734794833333,0.09451681815,0.108009151483333,0.344132006816667,0.34564489215,0.183448110083333,0.110776663416667,0.17295300475,0.183009686816667,0.165794626816667,0.174045598016667,0.16908209535,0.0566420080166667,-0.0128580649833333,0.0398123510166667,0.105845385016667,0.13602478615,0.0458470148166667,0.07482632815,0.06825139415,0.0950345014833333,-0.01241678585,-0.11346335105,2625,"DG_s13",-0.797,0,1.015,1.015,10,10,10,18,1.015,"Left",10,18,8,0,8,8,0,0,0,-8,"10-10",0,-8,10,10,10,18
"12",1,"RIN3-RIN4",0.109364612666667,-0.0393827006666667,-0.101729766666667,-0.101174469533333,-0.0423203068666667,-0.0865772975333333,-0.0494264933333333,-0.105102936,-0.0358049166666667,-0.0834135473333333,-0.037304146,-0.018062286,0.04595439,0.08632696,0.0894046193333333,0.0835594926666667,0.0435494713333333,0.108341921333333,0.140598762666667,0.240849788666667,0.137394262,0.107773458,0.077379542,0.183158835333333,0.181035650666667,0.250859484,0.179461790666667,0.282381881333333,0.1862258458,0.182773792866667,0.034257102,-0.0104404831333333,0.0809673964666667,0.184917696,0.187166516666667,0.148604255333333,0.227773783333333,0.293544832,0.1298571,-0.0399497304,-0.0235872464,0.0885801436,2625,"DG_s13",-0.797,0,1.015,1.015,10,10,10,18,1.015,"Left",10,18,8,0,8,8,0,0,0,-8,"10-10",0,-8,10,10,10,18
"13",1,"LIN1-LIN2",0.30285278985,0.409136156516667,0.332740098516667,0.336641874516667,0.434358534516667,0.414045885183333,0.372952108516667,0.126579168516667,0.04240317585,0.07654762785,0.208206426516667,0.262845705183333,0.23348543385,0.19329656985,0.295014451183333,0.24167511185,0.32585528385,0.281614702983333,0.338400576316667,0.176936202316667,0.210663566516667,0.24582547985,0.591947202516667,0.74066632585,0.942265392516667,0.714683617183333,0.557975229183333,0.36322914585,0.277997845183333,0.253414886516667,0.223725899183333,0.258453979183333,0.29677091385,0.33142307785,0.40439899185,0.358257890516667,0.46182826385,0.44069586385,0.52669008385,0.358534226516667,0.293988922516667,0.29545701185,2625,"DG_s13",-0.797,0,1.015,1.015,10,10,10,18,1.015,"Left",10,18,8,0,8,8,0,0,0,-8,"10-10",0,-8,10,10,10,18
"14",1,"RTI9-RTI10",-0.01971846,-0.0303906533333333,0.0320062333333333,0.131846778,0.181045908,0.126050773533333,0.0482114068666667,-0.0024852778,0.0655562413333333,-0.005272958,0.0596342706666667,0.172483252,0.241993431333333,0.344424374,0.366490840666667,0.402067168666667,0.429855515333333,0.285048411333333,0.270681745733333,0.0520825397333333,0.2140739104,0.170403642866667,0.311011725533333,0.306849665533333,0.255125190666667,0.205132954,0.019438676,0.015621836,-0.0237533373333333,0.0138475606666667,0.052196856,0.004043224,0.0721687373333333,0.07305618,0.072966466,-0.027428954,-0.0903614955333333,0.0553415064666667,0.163031214466667,0.183653550666667,0.125464594666667,0.0803408526666667,2625,"DG_s13",-0.797,0,1.015,1.015,10,10,10,18,1.015,"Left",10,18,8,0,8,8,0,0,0,-8,"10-10",0,-8,10,10,10,18
"15",1,"LTI2-LTI3",0.00390464437833334,-0.0642301416216667,-0.162462679688333,-0.253722663688333,-0.207545623688333,-0.201299337621667,-0.0971294102883333,-0.0456014622883333,-0.0253619276216667,-0.127651274288333,-0.160486208955,-0.123485059621667,-0.00248898562166666,0.0836188457116667,0.014237257045,-0.078422872955,-0.0963545696216667,-0.0543522516216667,-0.0158399422883333,-0.045611256955,-0.122530124288333,-0.190503912955,-0.171081588288333,-0.079841974955,-0.0887100682883333,-0.261836066288333,-0.259214534955,-0.211380899621667,-0.0634377336216667,-0.00382127162166666,0.117994628378333,0.048565667045,-0.0216805196216667,-0.164145918955,-0.200761711621667,-0.199371931621667,-0.114747014955,-0.143307239621667,-0.192692030955,-0.204191829621667,-0.130115420288333,-0.0404923582883333,2625,"DG_s13",-0.797,0,1.015,1.015,10,10,10,18,1.015,"Left",10,18,8,0,8,8,0,0,0,-8,"10-10",0,-8,10,10,10,18
"16",1,"RIN5-RIN6",-0.0069065584,-0.175575691066667,-0.197899779066667,-0.1756723184,-0.114734984666667,-0.0559737385333333,-0.0440067525333333,-0.154866306933333,-0.152537781733333,-0.162491143733333,-0.0378756777333333,0.0124718269333333,0.0304790302666667,0.0219359176,-0.0619918764,-0.0558528184,0.0673716949333333,0.145356512333333,0.128344383666667,0.0175103123333333,0.0047200196,0.1178029916,0.1456891116,0.153274577933333,-0.0905881227333333,-0.171902694733333,-0.263591203066667,-0.177784291733333,-0.1560674644,-0.0860833364,-0.1076226544,-0.0415935218666667,-0.0722363752,-0.0630212665333333,-0.169759849733333,-0.172274019733333,-0.130982439066667,-0.0895930092666667,-0.00864623193333333,0.0803922860666667,0.124053984266667,0.0231541562666667,2625,"DG_s13",-0.797,0,1.015,1.015,10,10,10,18,1.015,"Left",10,18,8,0,8,8,0,0,0,-8,"10-10",0,-8,10,10,10,18
"17",1,"RTI3-RTI4",-0.0136620578233333,-0.0504966211566667,-0.0922688655966667,-0.129229537596667,-0.11915790493,-0.03936667753,0.119715201136667,0.14653785267,0.00161442580333335,-0.248326474196667,-0.147606445063333,0.0121476951366667,0.150109135136667,-0.00125702286333332,-0.171361230196667,-0.187442900796667,-0.102421970796667,-0.105054697063333,-0.159396739796667,-0.15866404513,-0.09986381153,-0.103806492863333,-0.16788153953,-0.154752373863333,-0.114180431196667,-0.0345561158633333,0.0693315771366667,0.177413129136667,0.200359907136667,0.107983481803333,-0.0777602808633333,-0.123683300196667,-0.08283408893,0.0666777804033333,0.0167062017366667,-0.04631450153,-0.151681644863333,-0.188028924663333,-0.135977152663333,-0.101109071996667,-0.08571603073,-0.150104820196667,2625,"DG_s13",-0.797,0,1.015,1.015,10,10,10,18,1.015,"Left",10,18,8,0,8,8,0,0,0,-8,"10-10",0,-8,10,10,10,18
"18",1,"RIN2-RIN3",-0.0104479756666667,-0.057756479,-0.069646991,-0.110592487333333,-0.00284278933333333,0.0702158986666667,0.144333706466667,0.151859309133333,0.0549228398,-0.051380494,-0.110437833333333,-0.05144218,0.154749204,0.216955904,0.131335506666667,0.0830105853333333,0.128041769333333,0.159541509406667,0.0281083460733333,-0.13593278726,-0.180127232266667,-0.213334532933333,-0.134742204933333,-0.0922313073333333,-0.021659854,0.070700874,0.170336718666667,0.278195278666667,0.289822176,0.111064889333333,0.0736821626666667,0.0819140693333333,0.123138171333333,0.0715660713333333,0.030758326,-0.0205042026666667,-0.0276409257333333,-0.1401677604,-0.113804793733333,-0.1210454606,-0.0898490080666667,-0.0301922146666667,2625,"DG_s13",-0.797,0,1.015,1.015,10,10,10,18,1.015,"Left",10,18,8,0,8,8,0,0,0,-8,"10-10",0,-8,10,10,10,18
"19",1,"RIN9-RIN10",0.204035362833333,0.3096837055,0.2593956673,0.110252193966667,0.0907995786333333,0.189028081966667,0.2071098593,0.1471160393,2.36941666666574e-05,0.1109663843,0.2449726283,0.438207017633333,0.322304218166667,0.3260824535,0.412775064166667,0.658436762833333,0.7071286095,0.831948676166667,0.735271682833333,0.676305696166667,0.434642650166667,0.3019100975,0.277099650833333,0.258702216833333,0.197890232166667,0.0671977388333333,0.0547214648333333,0.0952885368333333,0.0999765101666667,0.0379164081666667,0.104639460166667,0.231128080166667,0.172321016166667,0.0506626528333333,-0.0355543458333333,0.0106315728333333,0.1792706175,0.2102894495,0.200688210833333,0.0727807761666667,0.0855771281666667,0.164122833833333,2625,"DG_s13",-0.797,0,1.015,1.015,10,10,10,18,1.015,"Left",10,18,8,0,8,8,0,0,0,-8,"10-10",0,-8,10,10,10,18
"20",1,"RIN4-RIN5",0.1333008209,-0.00838885776666667,-0.0628141244333333,-0.1460149791,-0.100021093766667,0.0260332949,0.0827577389,-0.0700121464333333,-0.105709397766667,-0.0920188431,0.0665182489,0.163560638233333,0.352357707566667,0.230505395566667,0.0259032689,-0.0834092057666667,0.0908920942333333,0.3066673089,0.2730817889,0.222162692233333,0.0972146735666667,0.2852089269,0.3661312409,0.434645755653333,0.23989407032,0.0878331329866667,0.11174975978,0.0663322984466667,0.104991945113333,0.0746860515666667,0.0914225946333333,0.0909797633,0.0705245593,0.1108461553,0.0429059059666667,0.0930484059666667,0.0260532309,0.171266311566667,0.205761317566667,0.260409273566667,0.241139609633333,0.186768491633333,2625,"DG_s13",-0.797,0,1.015,1.015,10,10,10,18,1.015,"Left",10,18,8,0,8,8,0,0,0,-8,"10-10",0,-8,10,10,10,18
"21",2,"LIN4-LIN5",-0.0183481395666667,-0.0142072801666667,-0.0180661268333333,-0.0290189021666667,0.0040025845,0.0551124778333333,0.0391393167,-0.01354319964,0.00405115369333333,0.0480506068266667,0.0249659367,0.00991479343333333,0.0332208947666667,0.00621975723333333,-0.0141385648333333,-0.0696817181666667,0.0989405085,0.2137246405,0.165164989166667,0.1095973205,-0.0617541761666667,-0.0945219741666667,-0.1144743617,0.115342574966667,0.260655228966667,0.281084773833333,0.214385625833333,0.2235363805,0.184049123833333,0.142452131833333,0.0684681951666667,0.0866944071666667,-0.0401051584333333,0.0231665062333333,0.0054431429,0.0102994218333333,-0.0990117701666667,-0.116323960833333,0.1486566325,0.2783470165,0.3385258787,0.146774996566667,2626,"DG_s13",2.031,2.828,4.234,4.234,12,12,10,10,1.406,"Left",12,12,0,0,0,0,0,0,0,0,"Equal",2,2,12,10,12,10
"22",2,"LIN3-LIN4",-0.00414613490000001,0.0232676497666666,0.103296846433333,-0.0192334549,0.0277696158333333,-0.0613592888333333,-0.119234248166667,-0.136685128166667,-0.0687546141666667,-0.0086089015,-0.0176801105,-0.0451103218333333,-0.0266365132333333,-0.0481262289,-0.0369672702333333,-0.0810419908333333,-0.0294751781666667,0.105316361833333,0.1218456155,0.189542888833333,0.0155562441666666,-0.0812403795,-0.2743549515,-0.228826538833333,-0.0546412488333333,0.0573176905,0.1443349145,0.0908037811666667,0.0566638338333333,0.0198305345,0.0660221911666667,0.178763471166667,0.0663366731666667,-0.0442030015,-0.1421103835,-0.0350706615,-0.0635466168333333,-0.107877690033333,-0.0929334720333333,0.0778334933,0.112556555166667,0.155570655166667,2626,"DG_s13",2.031,2.828,4.234,4.234,12,12,10,10,1.406,"Left",12,12,0,0,0,0,0,0,0,0,"Equal",2,2,12,10,12,10
"23",2,"LIN9-LIN10",0.0836217326666667,-0.016165914,0.095320524,0.148898930666667,0.317068521333333,0.423853029333333,0.341960928666667,0.215613298666667,0.0244740253333333,0.186530377333333,0.161156722,0.138400298666667,-0.0527776711333333,-0.0508017364666667,0.102334880866667,0.262678800666667,0.3600945494,0.237087068066667,0.155452560066667,0.067713662,0.0743596423066667,0.0529960639733333,0.125996373306667,0.186749310333333,0.333640392666667,0.268885712666667,0.178841941133333,0.0277572371333333,-0.0192317962,-0.0424927953333333,-0.020899804,0.0765784813333333,0.0960703613333333,0.0690131233333333,-0.0172423313333333,-0.0406381106666667,-0.0144779226666667,0.0567797526666667,0.032871206,0.0343135626666667,0.068107248,0.223798114666667,2626,"DG_s13",2.031,2.828,4.234,4.234,12,12,10,10,1.406,"Left",12,12,0,0,0,0,0,0,0,0,"Equal",2,2,12,10,12,10
"24",2,"RIN6-RIN7",-0.0875330384166667,0.07688252825,0.117870352916667,0.137153460916667,-0.0230336644166667,0.0636518909166667,0.201747779583333,0.223865368116667,0.350913612783333,0.276773322783333,0.448726208916667,0.252719564916667,0.24836294825,0.03831439225,0.0172842315833333,-0.0602402230833333,-0.0588852270833333,-0.102200477083333,-0.0315532610833333,-0.00976995708333334,0.05090594225,0.06746002425,0.09518648425,0.07230034025,0.0603758055833333,0.149292905583333,0.137900481583333,0.129218777583333,0.0877467575833333,0.117952147583333,0.09593371625,0.05548871025,-0.00834906308333334,-0.08080897975,-0.149124665083333,-0.169218730416667,0.0585895329166667,-0.0171005210833333,-0.0124540546833333,-0.16952724935,-0.00300714668333334,0.00569865891666667,2626,"DG_s13",2.031,2.828,4.234,4.234,12,12,10,10,1.406,"Left",12,12,0,0,0,0,0,0,0,0,"Equal",2,2,12,10,12,10
"25",2,"RTI1-RTI2",0.274179593933333,0.231359075266667,0.100792346066667,-0.00111877859999998,-0.0359548222666667,-0.0603950629333333,-0.0886381282666666,-0.0106383618,0.0777032915333333,0.0855811428666667,0.0543239507333333,0.1273667445338,0.284442051200467,0.289569095200467,0.237670700066667,0.114863461333333,0.115938578733333,0.159924970733333,0.164552512133333,0.1853075334,0.222571442733333,0.2155749294,0.316661184733333,0.211619599333333,0.148584158,0.101675776,0.165603732066667,0.192669566733333,0.239443344733333,0.365345534066667,0.513135144733333,0.495156256066667,0.335383716066667,0.2054882754,0.1695863814,0.2184640414,0.2855924634,0.248808504733333,0.315088524733333,0.265715396733333,0.218392484066667,0.0578529384666667,2626,"DG_s13",2.031,2.828,4.234,4.234,12,12,10,10,1.406,"Left",12,12,0,0,0,0,0,0,0,0,"Equal",2,2,12,10,12,10
"26",2,"LTI1-LTI2",0.16714081,0.0419093326666667,-0.150275468333333,-0.135969502333333,-0.120605688333333,-0.062770426,-0.026112772,0.0407125513333333,0.165929391533333,0.1249596982,0.0871633048666667,0.00194554133333333,-0.058954302,-0.106896466,-0.159695830666667,-0.113317596666667,-0.10132865,-0.0945286053333333,-0.055169234,0.00960818933333335,0.063821886,0.0947785173333333,-0.0889262833333333,-0.108964020666667,-0.119358905333333,-0.0266819004666667,-0.0267446158,-0.079280462,0.0149389278,0.0902949764666667,0.216391274,0.324123674,0.297352747333333,0.177140847333333,0.020012496,-0.004632976,-0.145801742666667,-0.248646924666667,-0.257806428666667,-0.209114111333333,-0.189697364,-0.0231540146666667,2626,"DG_s13",2.031,2.828,4.234,4.234,12,12,10,10,1.406,"Left",12,12,0,0,0,0,0,0,0,0,"Equal",2,2,12,10,12,10
"27",2,"RIN1-RIN2",-0.0975184338333333,0.00202633716666667,-0.0147456601666667,-0.0494814876333333,-0.1447817303,-0.173399544966667,-0.0276943355,0.1302309645,0.307297423166667,0.2003971625,-0.0101265841666667,-0.2437076835,-0.285870598833333,-0.103051318833333,-0.0910253701666667,-0.0782933741666667,-0.2023622555,-0.178766512166667,-0.0916523568333333,0.0119777911666667,0.131728375833333,0.1787454405,0.147120369833333,0.0261897507,-0.0873183559666667,-0.0468448986333333,-0.0411823961666667,-0.0996795788333333,-0.0403618188333333,0.0205001871666667,0.154545577166667,0.0759973771666667,0.0733558571666667,-0.0991693775,-0.155920170833333,-0.134948564366667,-0.0536111690333333,-0.0291062143666667,-0.138343994166667,-0.100555836833333,-0.130788548833333,-0.1172224755,2626,"DG_s13",2.031,2.828,4.234,4.234,12,12,10,10,1.406,"Left",12,12,0,0,0,0,0,0,0,0,"Equal",2,2,12,10,12,10
"28",2,"LTI2-LTI3",0.245052740383333,0.14186925305,0.08941693305,0.18805277945,0.106340148116667,0.113685412116667,0.0419177321166667,0.188323184116667,0.25644265345,0.26358055345,0.163215420783333,0.06978699945,-0.00928305021666667,-0.0215363308833333,-0.0463727562166667,-0.0604419638833333,0.0578127067833333,0.0986828061166667,0.210467436783333,0.10608143145,0.116584238783333,0.0978256321166667,-0.00446056655,0.000520562116666665,-0.0492093052166667,-0.00410580121666667,-0.104398169883333,-0.175170029216667,-0.0953384712833333,0.11487458205,0.20452897605,0.192425234116667,0.17157858745,0.0919139667833333,0.111950016783333,0.0889405961166667,0.05679190945,-0.03887212055,-0.167621821883333,-0.0538010352166667,0.0442101481166667,0.193132316783333,2626,"DG_s13",2.031,2.828,4.234,4.234,12,12,10,10,1.406,"Left",12,12,0,0,0,0,0,0,0,0,"Equal",2,2,12,10,12,10
"29",2,"LAM4-LAM5",0.0714134566333333,-0.0507659160333333,-0.00778735136666667,0.165784881966667,0.1967622993,0.128881033966667,0.0152497459666667,0.143835801966667,0.199836121966667,0.2084503693,0.176569392633333,0.1141607733,0.112751048126667,-0.02943896854,-0.0259245752066667,0.0516353566333333,0.127258002633333,0.121265815966667,0.142713389966667,0.1231695113,0.264662891966667,0.270480631966667,0.295450126766667,0.197820667433333,0.0172729007666667,0.00665119796666667,0.0683821166333333,0.1953444233,0.1263647573,0.0771175033,-0.0512348567,0.0328980306333333,0.0099142413,0.0468763813,0.0555646873,0.1152645013,0.1354829073,0.0526192326333333,0.0302981205,0.0632646805,0.0617956067666667,0.000559188233333341,2626,"DG_s13",2.031,2.828,4.234,4.234,12,12,10,10,1.406,"Left",12,12,0,0,0,0,0,0,0,0,"Equal",2,2,12,10,12,10
"30",2,"RTI2-RTI3",0.382970102066667,0.4134801334,0.300887628733333,0.165760956733333,0.192703312733333,0.191452450066667,0.0821049354,0.0799872784,0.214212743733333,0.2118253984,0.252155714733333,0.131219910066667,0.184634094733333,0.110245382733333,0.127117240066667,0.208682700733333,0.265496488733333,0.296283698066667,0.3288428514,0.195192328733333,0.1403759592,-0.00547487112666667,0.12911920354,0.289970133073333,0.398936770066667,0.542110966733333,0.580007296333333,0.395553756333333,0.215218958333333,0.120084628733333,0.2251022014,0.320542066066667,0.236850338066667,0.218757318733333,0.131468742733333,0.100061522733333,0.149236856066667,0.246878012066667,0.224797416806667,0.18330751514,-0.00531395819333334,0.1252328984,2626,"DG_s13",2.031,2.828,4.234,4.234,12,12,10,10,1.406,"Left",12,12,0,0,0,0,0,0,0,0,"Equal",2,2,12,10,12,10
"31",2,"RTI3-RTI4",0.212973288883333,0.24737954195,0.128293655083333,0.0432207990833333,-0.0159761327833333,-0.0222129567833333,0.0112569932166667,-0.0317592279833333,-0.0113204413166667,-0.0815007033166667,-0.07695887665,0.0114372722166667,0.02058886055,0.05892900735,0.00774687728333333,0.0473096430166667,0.0823431462166667,0.0269163520833333,0.10288724335,0.13643892935,0.15606506935,0.0270607196166667,0.07326145695,0.09725205515,0.21661644235,0.223373573683333,0.260886299216667,0.217696046016667,0.10493398135,-0.0327048603833333,-0.10939046465,-0.0936668113166667,-0.0841162779833333,-0.132598037983333,-0.01440890465,0.14171957135,0.25688194273,0.303311873396667,0.323560863396667,0.274261322683333,0.0417886580166667,0.0131932186833333,2626,"DG_s13",2.031,2.828,4.234,4.234,12,12,10,10,1.406,"Left",12,12,0,0,0,0,0,0,0,0,"Equal",2,2,12,10,12,10
"32",2,"LIN2-LIN3",0.03645033935,0.111417176016667,0.0592267580166667,0.03114117655,-0.01645501345,-0.126327670116667,-0.17344359745,-0.129021514116667,-0.01593442145,-0.0945013707833333,-0.0651965041166667,-0.106087654116667,0.0665975212166667,-0.0411396321166667,-0.153589078116667,-0.13067867145,0.16661254855,0.314660915216667,0.225493113216667,-0.0457135861166667,-0.00931962611666666,-0.0332689235833333,0.0746120490833333,0.0330086350833333,0.0260268018833333,-0.0219324027833333,-0.105233800116667,-0.0932208807833333,0.00378111721666667,0.117164205216667,0.157885139816667,0.103557964483333,-0.0220668941833333,-0.0449467901166667,-0.11754450345,-0.0299197407833333,-0.0945340641166667,-0.0331617087833333,0.05660045055,0.119311831216667,0.03656064455,0.05618610455,2626,"DG_s13",2.031,2.828,4.234,4.234,12,12,10,10,1.406,"Left",12,12,0,0,0,0,0,0,0,0,"Equal",2,2,12,10,12,10
"33",2,"LTI9-LTI10",0.0449195938333333,-0.0674082428333333,-0.134196560833333,-0.1544076655,-0.175898090833333,-0.1647582855,-0.151494044833333,-0.0473676435,0.0786552882333333,0.0950557362333333,0.101454400233333,0.0458170671666667,-0.0117040480333333,-0.1246861507,-0.0240497773666667,0.0813885078333333,0.0868683925,-0.00155368883333334,-0.0521884855,-0.0068300255,-0.0969638888333333,-0.1889895435,-0.147831435433333,-0.134965203433333,-0.0960489127666667,-0.188876356833333,-0.123940016833333,-0.1261666583,-0.117361159033333,-0.153177076433333,-0.142210185633333,-0.146737250233333,-0.117182722166667,-0.171201412166667,-0.1678117335,-0.209515512633333,-0.116831098633333,-0.0826560619666667,-0.0307069941666667,-0.107848730833333,-0.139530808166667,-0.170959354833333,2626,"DG_s13",2.031,2.828,4.234,4.234,12,12,10,10,1.406,"Left",12,12,0,0,0,0,0,0,0,0,"Equal",2,2,12,10,12,10
"34",2,"RTI9-RTI10",0.0254600615833333,0.172220429583333,0.09723466625,0.13018199725,0.11416069965,0.196723222983333,0.21963837865,0.150470942916667,0.164492769583333,0.07662346225,0.185134313583333,0.05095709425,0.133108037583333,0.0796094155833333,0.0474013095833333,0.08352248025,0.14036727825,0.156728283583333,0.178357320916667,0.192038385583333,0.261330465583333,0.149832566916667,0.0328894495833333,0.02120396425,0.131239698916667,0.0998839095833333,0.02536286225,-0.12437523775,0.00850460891666666,0.0610520069166667,0.165802991583333,0.104755528916667,0.181344011583333,0.12326620625,0.152107615583333,0.0763308095833333,0.24335803025,0.183015482916667,0.106340559516667,-0.0944718018166667,-0.144167974483333,-0.184481333083333,2626,"DG_s13",2.031,2.828,4.234,4.234,12,12,10,10,1.406,"Left",12,12,0,0,0,0,0,0,0,0,"Equal",2,2,12,10,12,10
"35",2,"RIN4-RIN5",-0.025487974,-0.0116810493333333,-0.0218878175333333,-0.0317519622,0.0162933511333333,-0.0156486306666667,-0.020993944,0.0316708186666667,0.248225234,0.332327458533333,0.179325942666667,0.086206316,0.0443289021333333,0.131540578666667,0.0356932446,0.0307687060666667,0.0303642414,0.0158575254666667,0.0677017986666667,-0.0351497373333333,0.0148734637333333,-0.0756626789333333,-0.0531424593333333,-0.00799497706666667,0.0622388936,0.108640312,0.033700678,0.0225902366,0.0460751859333333,0.0732536799333333,0.134650384,0.161143014666667,0.147644758666667,0.04550615,-0.0442359633333333,-0.0979810706666667,-0.0936241653333333,-0.0855115933333333,-0.0956551826666667,-0.0955687621333333,0.0337920878666667,0.0872180818666667,2626,"DG_s13",2.031,2.828,4.234,4.234,12,12,10,10,1.406,"Left",12,12,0,0,0,0,0,0,0,0,"Equal",2,2,12,10,12,10
"36",2,"LIN1-LIN2",0.02837065649,-0.00379752364333336,-0.00242471697666669,0.0356266030233333,0.129751103823333,0.113761133823333,0.0704147718233333,0.00721429848999999,-0.0635569448433333,0.04580959049,0.130483768023333,0.129278587356667,0.02959110269,0.100266485156667,0.0544774791566666,0.0436899291566667,-0.05397903971,-0.0314602270433333,-0.08017300171,-0.135986252176667,0.02594127449,0.0903392038233333,0.11883939649,0.0593441498233333,0.00308248982333331,0.0838812298233333,0.0720502898233333,-0.0300773701766667,-0.178154272997333,-0.281109940330667,-0.250351853664,-0.303595530843333,-0.321877618176667,-0.268651600043333,-0.168969366043333,-0.15831255871,-0.150610176843333,-0.258857770843333,-0.176489270176667,0.00494884315666666,0.0461234831566666,0.0516840118233333,2626,"DG_s13",2.031,2.828,4.234,4.234,12,12,10,10,1.406,"Left",12,12,0,0,0,0,0,0,0,0,"Equal",2,2,12,10,12,10
"37",2,"RIN2-RIN3",-0.120351002583333,-0.08976686525,0.03994344675,-0.00445077991666666,-0.00914287915666666,-0.06798378249,0.09369783951,0.0851872720833333,0.134798730083333,0.103145809416667,0.136069258083333,-0.00495926391666666,-0.01144787725,-0.10618701525,-0.10598788325,-0.152991722583333,-0.101697515916667,-0.03192515125,-0.0926307667166667,-0.07418473405,-0.0375602487166667,0.09456103675,0.0944566056833333,0.08526909635,0.05606838035,0.02252892795,0.01822909595,0.04824024195,0.165984365416667,0.21639513795,0.249798851283333,0.100383916616667,-0.07477678125,-0.20446164725,-0.12269841325,-0.0773641999166667,-0.12262067525,-0.15833969605,-0.220533762716667,-0.250376054716667,-0.28767780925,-0.228853313916667,2626,"DG_s13",2.031,2.828,4.234,4.234,12,12,10,10,1.406,"Left",12,12,0,0,0,0,0,0,0,0,"Equal",2,2,12,10,12,10
"38",2,"RIN5-RIN6",0.0929478266166667,0.03573387955,0.0537238430166667,0.01177768235,0.05613955675,-0.0166517245833333,-0.00430773991666667,0.16988082075,0.248618400083333,0.267945375416667,0.0896545420833333,0.0471087800833333,0.00865207341666667,0.06029818675,0.137466862083333,0.12116021875,0.07512518529,0.00814585862333333,0.0313604219566667,0.06553660075,0.104090983416667,0.128026991416667,0.00482293275,0.00986992341666666,0.01287534875,0.0781837340833333,0.11208924275,0.0867871294166667,0.249881044083333,0.188148919416667,0.309059917416667,0.18653350875,0.161602609416667,0.0567404954166667,0.109898164083333,0.12886997675,0.164079786083333,0.11424198675,-0.0162048439166667,-0.00855785125,0.0261730580833333,0.06480667075,2626,"DG_s13",2.031,2.828,4.234,4.234,12,12,10,10,1.406,"Left",12,12,0,0,0,0,0,0,0,0,"Equal",2,2,12,10,12,10
"39",2,"RIN3-RIN4",-0.235139251,-0.0680719823333333,0.154426948333333,0.194059953666667,0.185200891666667,0.025171585,-0.146824259666667,-0.315091667,-0.192629023,-0.024029665,-0.00647579500000001,-0.123077191666667,-0.013469733,0.1005737962,0.252423185533333,-0.0276968978,-0.110591689666667,-0.184500096333333,-0.133830336333333,-0.134253643,-0.333009813,-0.336445549666667,-0.311269003666667,-0.1993203866,-0.132765662533333,-0.1247227254,-0.0359501964666667,0.160796989466667,0.169674686333333,0.137724898333333,-0.0520834336666667,-0.065092097,-0.1416126144,-0.152073545066667,-0.2032162256,-0.1324453262,-0.2035517102,-0.220617699666667,-0.301983876333333,-0.311366089,-0.236848249,-0.105279659666667,2626,"DG_s13",2.031,2.828,4.234,4.234,12,12,10,10,1.406,"Left",12,12,0,0,0,0,0,0,0,0,"Equal",2,2,12,10,12,10
"40",2,"RIN9-RIN10",-0.109877211183333,-0.204539029983333,-0.133098063716667,-0.0520509857166667,0.101559601083333,0.0728666784166667,0.0643623790833333,0.11022572375,0.191129452416667,0.242055954416667,0.10430554575,0.130510817083333,0.188294989483333,0.181341751483333,0.12944838239,0.02298950599,0.199705352656667,0.272125303083333,0.296263252416667,0.259779651083333,0.646153559083333,0.70077376775,0.570763342416667,0.19955895575,0.13099019175,0.239060638416667,0.26925931175,0.356354869083333,0.326353589083333,0.09411987375,0.0731701004166667,0.101932160416667,0.38075705575,0.480224302416667,0.43518437175,0.220913722416667,0.08086645795,-0.02269008005,-0.132924897383333,-0.15032278625,-0.127427351583333,0.09339526175,2626,"DG_s13",2.031,2.828,4.234,4.234,12,12,10,10,1.406,"Left",12,12,0,0,0,0,0,0,0,0,"Equal",2,2,12,10,12,10
"41",3,"LIN9-LIN10",0.0417469999833333,0.01610392665,0.04169776125,0.14446948585,-0.00392099915000001,-0.11584812375,-0.20308300175,-0.07217635675,0.13748494525,0.0207253685833333,-0.03213197835,-0.118984025683333,-0.0328986270166667,-0.115028356083333,-0.177404107416667,-0.20709261895,-0.06705326295,-0.0826930682833333,-0.135170562083333,-0.189024807216667,-0.29227355055,-0.252304169216667,-0.282370969416667,-0.275747569416667,-0.270150035083333,-0.233156667083333,-0.0708246270833333,-0.0720851140833333,-0.0535308100833333,-0.0555150014166667,-0.02055465655,-0.10341699255,-0.143186049216667,-0.0498222560833333,-0.0593392554166667,-0.04971032475,-0.0668553414166667,-0.03995908915,0.00322009484999999,-0.0760765872166667,-0.111295590816667,-0.0686135308166667,2627,"DG_s13",5.234,6.031,7.219,7.219,10,10,8,8,1.188,"Left",8,8,0,0,0,0,0,0,0,0,"10-10",2,2,10,8,10,8
"42",3,"LIN4-LIN5",0.0525698563333333,0.126608983,0.104189493,-0.0118457003333333,-0.0688504076666667,-0.122672744333333,-0.118394947,-0.0741452523333333,-0.015535975,-0.0762899103333333,-0.1822498096,-0.213562444933333,-0.187830554933333,-0.0918496323333333,-0.0548016456666667,-0.0897772223333333,-0.169094191666667,-0.153900043,-0.141574227666667,0.0141530056666667,-0.0109935696666667,-0.0326802516666667,-0.192028641666667,-0.187529926333333,-0.157717707,-0.147447474333333,-0.192655227,-0.143166739666667,-0.123272520333333,-0.145599311666667,-0.116465878333333,-0.0727741403333333,-0.002788787,-0.115502960333333,-0.229347811,-0.257347265666667,0.0525139343333333,0.236794325,0.267615706333333,0.0210754963333333,-0.144378395,-0.104927245666667,2627,"DG_s13",5.234,6.031,7.219,7.219,10,10,8,8,1.188,"Left",8,8,0,0,0,0,0,0,0,0,"10-10",2,2,10,8,10,8
"43",3,"LTI2-LTI3",-0.275392477,-0.0847613636666667,-0.011016455,-0.0393086735333333,-0.181996543,-0.306476583,-0.282657460466667,-0.188620567,-0.2034084918,-0.313354484466667,-0.382384862466667,-0.399596164333333,-0.243478513666667,-0.242323950333333,-0.141979110333333,0.0118089516666667,0.0742034323333333,-0.00900397233333333,-0.0483440123333333,-0.117627989,-0.0856421136666667,-0.168924613666667,0.040307573,0.0246087596666667,-0.00409457633333332,-0.196070877666667,-0.201193888666667,-0.250280534,-0.266944280666667,-0.261883595,-0.146268833666667,-0.0456618456666666,-0.00525405233333331,-0.118501103666667,-0.232523237,-0.248833009,-0.276562876333333,-0.305098355666667,-0.399251469,-0.368575679666667,-0.254542171666667,-0.079412055,2627,"DG_s13",5.234,6.031,7.219,7.219,10,10,8,8,1.188,"Left",8,8,0,0,0,0,0,0,0,0,"10-10",2,2,10,8,10,8
"44",3,"RIN9-RIN10",-0.0363266231666667,-0.0288999577666667,-0.1060855871,-0.0762058671,-0.0153687198333333,0.0566318728333333,0.0404314341666667,0.262714020166667,0.347569374166667,0.3016576435,0.174516916833333,0.0210633261666667,0.0230457355,-0.0851725005,-0.0140392365,-0.0155035565,0.1016703195,0.0954979995,0.5050091995,0.653725156166667,0.9060796695,0.827055802833333,0.8445016195,0.633526748166667,0.6384934815,0.427712786833333,0.600715124833333,0.4703654915,0.618131586166667,0.395451479566667,0.2128929749,0.000980988233333341,-0.0375185945,-0.111337529833333,-0.0716546411666667,-0.00381690583333333,0.0407828068333334,0.0773907268333333,-0.00145366183333331,0.0205649455,-0.0771451631666667,-0.0867676738333333,2627,"DG_s13",5.234,6.031,7.219,7.219,10,10,8,8,1.188,"Left",8,8,0,0,0,0,0,0,0,0,"10-10",2,2,10,8,10,8
"45",3,"LIN2-LIN3",0.238717258,0.353022448,0.306366061333333,0.201269334666667,0.0738142313333333,0.0599565033333333,-0.108210509333333,-0.155469681333333,-0.239140564,-0.201809950666667,-0.223246942666667,-0.185476458666667,-0.219732679333333,-0.113891518666667,-0.037595076,0.0211233933333333,0.0216963693333333,-0.0718756266666667,0.016347984,-0.018353118,0.046845222,-0.047906998,-0.0209134058666667,-0.126841299866667,-0.0634545625333333,-0.152124872,-0.198963744666667,-0.256823342,-0.171779297333333,-0.019232004,-0.00736014133333335,-0.118804129333333,-0.149928408,-0.134401048666667,-0.0181821846666667,-0.018156518,0.109589093333333,0.119552088,0.040521082,-0.0753674306666667,-0.1185624392,-0.118301923866667,2627,"DG_s13",5.234,6.031,7.219,7.219,10,10,8,8,1.188,"Left",8,8,0,0,0,0,0,0,0,0,"10-10",2,2,10,8,10,8
"46",3,"RIN1-RIN2",0.0356308112833333,0.0281864672833333,-0.0331197413833333,0.0373312252833333,-0.00686021471666667,0.195868367283333,0.192729473416667,0.17303946675,-0.04002144525,-0.174343509383333,-0.15989535005,-0.161324129383333,-0.190168124716667,-0.08493300205,-0.0482546226433333,0.08825843869,-0.0234882726433333,-0.00892969071666666,-0.0436407243833333,-0.0118162337166667,-0.02600671705,-0.0285465927166667,-0.06572392005,-0.04608141805,-0.0679205813833333,-0.194359924716667,-0.314691613383333,-0.319140814716667,-0.271031083516667,-0.19572507165,-0.201296642316667,-0.09407264685,-0.0610174453833333,-0.112634719316667,-0.183640418956667,-0.23158595029,-0.108181413023333,-0.06500442005,0.0136237846166667,-0.00982342205,0.01793166195,-0.0208788867166667,2627,"DG_s13",5.234,6.031,7.219,7.219,10,10,8,8,1.188,"Left",8,8,0,0,0,0,0,0,0,0,"10-10",2,2,10,8,10,8
"47",3,"LAM4-LAM5",-0.0223103575,0.0178584038333333,0.0642385351666667,0.0817736298333333,0.0196814511666667,-0.0837791148333333,-0.0497454008333333,-0.0107521761666667,0.0937452005,0.1265527025,0.1017325085,0.0718936578333333,0.714319711833333,1.13241757783333,1.28966778516667,0.552626591833333,0.1573519105,-0.0550915495,-0.0784653351,-0.0538314071,-0.0641835397666667,-0.0991780275,-0.154235014833333,-0.0593518021666667,0.0167411331666667,-0.00374690616666667,0.0361379225,0.1100646025,0.293644929166667,0.2522879845,0.187043729166667,0.00187890716666667,-0.0956452635,-0.1447008435,-0.0775729839,-0.0110645864333333,0.141414875566667,0.215179342633333,0.317757145166667,0.307683011166667,0.228858219166667,0.142128697166667,2627,"DG_s13",5.234,6.031,7.219,7.219,10,10,8,8,1.188,"Left",8,8,0,0,0,0,0,0,0,0,"10-10",2,2,10,8,10,8
"48",3,"LTI9-LTI10",-0.161673118,-0.192952426666667,-0.278157119333333,-0.185588447333333,-0.152154350666667,0.0608495093333333,0.0271451706666667,0.152663953333333,0.143673706666667,0.258106169333333,0.0772554113333333,0.074921058,0.014326412,0.083442154,0.0345800944,0.0572703897333333,0.0275961684666667,-0.0137683566,-0.0675502909333333,0.0560292463333333,0.133435926333333,0.179173588,-0.00134659199999999,-0.121406332666667,-0.116181918,-0.099024854,-0.095048908,-0.130550372866667,-0.161220644866667,-0.1657200322,-0.0577777344,0.0876452536,0.0488065642666667,0.0150750113333333,-0.0228062833333333,-0.050151894,-0.238154374666667,-0.296141550666667,-0.085481564,-0.00207655733333333,0.00746109466666667,-0.0270752653333333,2627,"DG_s13",5.234,6.031,7.219,7.219,10,10,8,8,1.188,"Left",8,8,0,0,0,0,0,0,0,0,"10-10",2,2,10,8,10,8
"49",3,"RIN6-RIN7",-0.0719653418333333,-0.0539781298333333,-0.0430864685,-0.0666357531666666,-0.0895282791666667,-0.1703438425,-0.253901809833333,-0.157827497166667,-0.0095137005,0.0278753088333333,-0.0534178516333333,-0.165358449633333,-0.209138112966667,-0.251597405833333,-0.296605447833333,-0.2846443605,-0.144143727166667,-0.0985175005,-0.0445291738333333,-0.1853523325,-0.101635159166667,-0.128590475166667,-0.133167801166667,-0.229830921166667,-0.193451873166667,-0.141661957166667,0.0738825368333333,0.189777824833333,0.1899539135,0.1083471435,0.107868210166667,0.0663046548333333,0.00228352216666666,-0.263525791166667,-0.3280191885,-0.297690429833333,-0.0897512298333333,0.0393188428333333,-0.0872607425,-0.120148737833333,-0.1149839985,-0.118337829166667,2627,"DG_s13",5.234,6.031,7.219,7.219,10,10,8,8,1.188,"Left",8,8,0,0,0,0,0,0,0,0,"10-10",2,2,10,8,10,8
"50",3,"RIN4-RIN5",-0.0696725623333333,0.009628375,0.011894475,0.0297016563333333,-0.0574916136666667,-0.022438979,0.0287637843333333,-0.0199943396666667,-0.0602496663333333,-0.0045778968,0.0368226018666667,0.0313708538666667,-0.0833712043333333,-0.0663370489333333,0.00985759973333334,0.0274870476,2.84708666666647e-05,-0.0470858464666667,-0.0603840583333333,-0.00655281566666667,-0.125180130333333,-0.113987635,-0.189231026333333,-0.086590075,-0.020586605,0.0677690076666667,0.005529225,-0.0893178523333333,-0.0968178216666667,-0.101767939,-0.110938192333333,-0.131360286333333,-0.125855386333333,0.00188983966666666,-0.0174740043333333,-0.061801051,-0.0780684556666667,-0.0779592267333333,0.0549314806,0.0269089858666667,-0.0330480697333333,-0.1458473504,2627,"DG_s13",5.234,6.031,7.219,7.219,10,10,8,8,1.188,"Left",8,8,0,0,0,0,0,0,0,0,"10-10",2,2,10,8,10,8
"51",3,"RTI2-RTI3",-0.00960733233333333,0.0050823938,0.0506471718,0.06776749092,0.15494560012,0.191419080786667,0.0281414036666667,-0.056258587,-0.081897861,0.00579915633333333,-0.0812080903333333,-0.168407003666667,-0.0757651276666667,-0.026532417,0.0244593903333333,-0.0175748896666667,0.0447019903333333,0.092544255,0.0511764903333334,0.00864961433333333,0.0360931223333333,0.0755417616666667,0.012411265,-0.125812947666667,-0.119615228333333,0.000953824333333325,0.015110789,-0.096489225,-0.198712270333333,-0.211591949,-0.192033283666667,-0.1744838575,-0.218717770833333,-0.192188522166667,-0.290783476333333,-0.2282596758,-0.250115871133333,-0.213417391133333,-0.160208947,-0.168439023666667,-0.207487304333333,-0.295678553666667,2627,"DG_s13",5.234,6.031,7.219,7.219,10,10,8,8,1.188,"Left",8,8,0,0,0,0,0,0,0,0,"10-10",2,2,10,8,10,8
"52",3,"RTI9-RTI10",0.0568959964166667,0.0766067130833333,0.0633205196833333,-0.01412495365,0.109964363483333,0.126499645483333,0.165068889483333,0.0874849194833333,0.0740670594833333,0.04606950215,0.143270720816667,0.27853912215,0.393171372816667,0.381979305483333,0.300544077483333,0.181339110816667,0.06374466015,0.0349721734833333,0.10353625015,0.137786559483333,0.119329539483333,0.0228785828166667,-0.0189902845166667,-0.0273090645166667,-0.0289522705166667,0.00727955615,-0.0310769891833333,0.0349222234833333,0.0165357468166667,0.05621934015,-0.01404113525,0.0287451100833333,0.14545186875,0.350731217483333,0.333356009483333,0.155853442816667,-0.0609138405166667,-0.0480708305166667,0.100493729483333,0.0941495594833333,0.0200372568166667,-0.0692636913166667,2627,"DG_s13",5.234,6.031,7.219,7.219,10,10,8,8,1.188,"Left",8,8,0,0,0,0,0,0,0,0,"10-10",2,2,10,8,10,8
"53",3,"LIN3-LIN4",0.104570171783333,0.0614481557833333,0.0596743737833333,0.00763281378333333,0.08944457045,0.152900655783333,0.13087204445,0.253936497116667,0.270971259116667,0.22306125045,0.01737565645,-0.0618372908833333,0.0354049057833333,0.223197893116667,0.31247487445,0.211860603783333,0.0948525131166667,0.08795913245,0.12149749245,0.131748357116667,0.106785179116667,0.03634484645,-0.0397966908833333,-0.0623328402166667,0.0401417851166667,0.13956978845,0.0882971297833333,0.0181097097833333,-0.0631116948833333,-0.06707535955,-0.0240358908833333,0.122064593783333,0.12979717245,0.0925001411166667,-0.117264306883333,-0.0794854302166667,0.168082443116667,0.34169666445,0.35774805425,0.270880594916667,0.22566562825,0.192577616183333,2627,"DG_s13",5.234,6.031,7.219,7.219,10,10,8,8,1.188,"Left",8,8,0,0,0,0,0,0,0,0,"10-10",2,2,10,8,10,8
"54",3,"LIN1-LIN2",0.38517737,0.31702654,0.284771546,0.161971281333333,0.263127299333333,0.225256026666667,0.161944157333333,0.0677969258666667,0.0608720192,-0.0389200534666667,-0.037632,-0.0967286973333333,0.0488880133333333,0.181925957333333,0.281430626666667,0.248284262666667,0.199178642666667,0.128588596666667,0.0899516680666667,0.0307660500666667,0.1175122974,0.171039665333333,0.271344026666667,0.236619416,0.267556376666667,0.153647926,0.0924844873333333,0.0739350673333333,0.118098441333333,0.00224647066666666,-0.075654296,-0.0547807966666667,0.0677985326666667,0.129595688666667,0.276966256,0.35248202,0.265652035333333,-0.00341358466666667,-0.026471458,0.0531327826666667,0.160083366,-0.00738108066666667,2627,"DG_s13",5.234,6.031,7.219,7.219,10,10,8,8,1.188,"Left",8,8,0,0,0,0,0,0,0,0,"10-10",2,2,10,8,10,8
"55",3,"RIN3-RIN4",-0.0250730979166667,-0.194373680583333,-0.12457002725,-0.0461083785833333,0.08177162275,-0.0181329025833334,-0.15965869325,-0.295085701916667,-0.28744117125,-0.274404442583333,-0.150106451916667,-0.159843188583333,-0.157123605916667,-0.09287857325,0.11528542475,0.21119546075,-0.0176366677833333,-0.270669067783333,-0.35516444845,-0.251955226583333,-0.124343052583333,-0.0269211259166667,-0.112239865916667,-0.215342259916667,-0.234551155916667,-0.175757312583333,-0.182237892583333,-0.199714938583333,-0.19983324925,-0.167372716583333,-0.146210511916667,-0.01755975125,0.117292690416667,0.09420868775,-0.0356077915833333,0.0212557674166667,0.01611765675,0.0597541274166667,-0.15079340325,-0.21730682925,-0.28118637925,-0.279591768583333,2627,"DG_s13",5.234,6.031,7.219,7.219,10,10,8,8,1.188,"Left",8,8,0,0,0,0,0,0,0,0,"10-10",2,2,10,8,10,8
"56",3,"RTI3-RTI4",0.131394618466667,0.122112589666667,0.137752191666667,0.0575073403333333,0.115091369,0.166530365,0.238454752333333,0.131175511,0.0558010016666667,-0.0399400536666667,0.00873051966666667,0.0803285640666667,0.0576704450333333,0.1828447917,0.206007413966667,0.426195748333333,0.303821528333333,0.273809823,0.176860222333333,0.0979841423333333,0.0525413034,-0.0050512806,0.0564670727333333,0.048746533,0.0424992056,0.0585241122666667,0.0231592669333333,-0.0436346076666667,-0.105999383666667,0.0032276392,0.0103384432,0.0646034458666667,-0.0207714367533333,0.06981007258,0.0198438739133333,-0.00260790766666667,0.027442903,0.0219659076666667,0.142651618333333,0.0538282683333333,0.00911650233333333,-0.0279546643333333,2627,"DG_s13",5.234,6.031,7.219,7.219,10,10,8,8,1.188,"Left",8,8,0,0,0,0,0,0,0,0,"10-10",2,2,10,8,10,8
"57",3,"RIN2-RIN3",-0.101961765166667,-0.0331275465,-0.0435535945,-0.0777054292333333,0.0108589781,0.125216672766667,0.1908400495,0.0820851921666667,-0.0668537905,-0.143220561833333,-0.158802765166667,-0.0896672245,-0.0752737245,-0.0106956265,-0.0151735080333333,0.0654726707,0.0391325777666667,0.0556322879666667,-0.0078742721,0.0705631388333333,0.0271987188333333,0.1265608735,-0.0318119197,-0.00459865970000001,-0.0657440890333333,-0.123641531166667,-0.136653813833333,-0.255928337833333,-0.228682711166667,-0.1907311853,-0.109455628633333,0.158311651366667,0.0919723479,0.0964444158133333,-0.154742286853333,-0.115198090358667,-0.115824554938667,-0.0877677129386667,-0.0110927025,-0.0132693631666667,0.0746104575,-0.0223730578333333,2627,"DG_s13",5.234,6.031,7.219,7.219,10,10,8,8,1.188,"Left",8,8,0,0,0,0,0,0,0,0,"10-10",2,2,10,8,10,8
"58",3,"RIN5-RIN6",-0.220091181133333,-0.0467575898,-0.1156849998,-0.0708805758,-0.2266962918,-0.0568321651333333,-0.149987938466667,-0.1777772118,-0.233780213133333,-0.0830762898666667,-0.0563740418666667,-0.1198673412,-0.174225969,-0.1738145202,-0.0342126795333333,-0.0641150276666667,-0.1380900998,-0.222484571133333,-0.178053252266667,-0.119711636933333,-0.169820794133333,-0.210796100333333,-0.186515994333333,-0.155784951133333,-0.185444231133333,-0.1658231738,-0.153210571133333,-0.1931029178,-0.189213115133333,-0.198735145133333,-0.204722745133333,-0.150966872466667,-0.1450073638,-0.144403877133333,-0.296517770466667,-0.4189341398,-0.3736459958,-0.3904327258,-0.313279413133333,-0.299760891133333,-0.225791381133333,-0.1854806938,2627,"DG_s13",5.234,6.031,7.219,7.219,10,10,8,8,1.188,"Left",8,8,0,0,0,0,0,0,0,0,"10-10",2,2,10,8,10,8
"59",3,"LTI1-LTI2",-0.0169413314166667,0.0913347959166667,0.159460068916667,0.183747028916667,0.07241932025,0.0646504779833333,0.0317666873166667,0.09781157265,0.0371003763833333,0.12490690105,0.141482446383333,0.08358724325,0.00459176325,0.0324082247166667,0.05203328205,0.121563990716667,0.168873917916667,0.176639370583333,0.21118032585,0.0115201627833333,0.0269681639833333,0.000891876716666663,0.267068373116667,0.249009590583333,0.163431397916667,0.0440326945833333,0.0343660249166667,0.04545751425,-0.12006071575,-0.172776799416667,-0.07737398275,0.0353956039166667,0.0965443439166667,-0.0458021254166667,-0.0957476460833333,0.0423765739166667,0.152424079916667,0.146877124916667,0.0118107315833333,-0.0741811484166667,0.01596248725,0.0118990549833333,2627,"DG_s13",5.234,6.031,7.219,7.219,10,10,8,8,1.188,"Left",8,8,0,0,0,0,0,0,0,0,"10-10",2,2,10,8,10,8
"60",3,"RTI1-RTI2",-0.0522991059366667,-0.0903365599366667,-0.11121375927,-0.258547735336667,-0.288284182003333,-0.131958145336667,-0.119247762603333,-0.07728960927,0.0240774640633333,0.0293249373966667,-0.00437873526999999,-0.267648483936667,-0.171252183936667,-0.190256164603333,-0.06315058127,-0.20833492127,-0.08603412527,-0.16701572127,-0.0956450339366667,-0.05479454327,0.0873912780633333,0.0942795532633333,0.0272267665966667,-0.16083571407,-0.186664222603333,-0.245768422603333,-0.22908212927,-0.284024679936667,-0.32409961927,-0.262065238603333,-0.144840708603333,0.0219075433966667,-0.0171452386033333,0.0554381813966667,0.0481553620633333,0.0218208168566667,-0.117096985343333,-0.251784792676667,-0.210134513203333,-0.278780431003333,-0.287863980336667,-0.245583100603333,2627,"DG_s13",5.234,6.031,7.219,7.219,10,10,8,8,1.188,"Left",8,8,0,0,0,0,0,0,0,0,"10-10",2,2,10,8,10,8
"61",4,"LTI2-LTI3",0.087550118,0.016125444,-0.116864104666667,-0.0766980826666667,-0.136453734,-0.046290776,-0.0583757713333333,0.077712146,0.110752974666667,0.1323955,0.0434980293333333,0.043845796,0.129910490666667,0.232022037333333,0.291345944666667,0.174267402333333,0.146892915666667,0.053380615,0.0746629226666667,-0.0456083573333333,-0.151339947333333,-0.144021167333333,-0.0862873586666667,0.0458512033333333,0.142104520666667,0.254733998666667,0.327985926666667,0.192783888666667,0.079284558,-0.166181208666667,-0.247557273333333,-0.276876509333333,-0.198969042666667,-0.0277866046666667,0.00818199533333333,0.0688492684,0.0951657437333333,0.0749126237333333,0.0410975053333333,0.0998262606666667,0.167634420666667,0.158996117333333,2628,"DG_s13",8.219,9.015,10.422,10.422,28,4,10,10,1.407,"Left",28,4,24,24,0,0,-24,0,-24,24,"Advent",18,-6,28,10,4,10
"62",4,"LIN9-LIN10",-0.0902518319333333,-0.019071885,0.0135437677333333,-0.0428160442666667,-0.100947946933333,-0.065717191,0.0610707063333333,0.302334221,0.342111229666667,0.328495625666667,0.110213703666667,0.0607394056666667,0.0783487723333333,0.0902484235333333,0.146625311533333,0.0721879275333333,0.0822399260666667,-0.0394658292666667,-0.128625785266667,-0.219918505,-0.214287873,-0.079472209,0.032065043,0.000290991666666671,-0.0824772610666667,-0.110889031733333,-0.0385417397333333,0.005885413,-0.028781995,-0.0668899336666667,-0.130448352266667,-0.1563421676,-0.187499538266667,-0.106089793,0.0400047276666667,0.216457593,0.162951989,0.0765568525333333,-0.0134945881333333,-0.0545246614666667,-0.109870080333333,-0.217435386333333,2628,"DG_s13",8.219,9.015,10.422,10.422,28,4,10,10,1.407,"Left",28,4,24,24,0,0,-24,0,-24,24,"Advent",18,-6,28,10,4,10
"63",4,"LIN4-LIN5",-0.106387555666667,0.0384390703333333,0.0940016420666667,0.0773183487333333,-0.0654049426,-0.075559379,-0.0860448183333333,-0.0358890463333333,-0.0144595207266667,-0.0505896007266667,-0.128375782726667,-0.0863483583333333,-0.0620970896666667,-0.00446933166666666,-0.0639243816666667,-0.0183195743333333,-0.0518103783333333,-0.054543895,-0.194779122333333,-0.0948433863333333,-0.131665379666667,-0.0384007463333333,-0.133007184,-0.192983416666667,-0.197547198,-0.208615907466667,-0.176102042133333,-0.198442443466667,-0.121116741066667,-0.1127906204,-0.1374399488,-0.1889938414,-0.116481292733333,-0.00795294166666666,-0.012922593,-0.132687935666667,-0.217906549666667,-0.231933163,-0.182861003,-0.194436435666667,-0.185484233666667,-0.206827397,2628,"DG_s13",8.219,9.015,10.422,10.422,28,4,10,10,1.407,"Left",28,4,24,24,0,0,-24,0,-24,24,"Advent",18,-6,28,10,4,10
"64",4,"RTI2-RTI3",0.356088129833333,0.393830675833333,0.626830187833333,0.498019759166667,0.528980839166667,0.395532035833333,0.446516439166667,0.245684085166667,0.184299939833333,0.1270361045,0.168846819166667,0.240136867833333,0.2839966527,0.375993552033333,0.429557405366667,0.378911847566667,0.326968294233333,0.246035724233333,0.191736313566667,0.117296558233333,0.1089619349,0.1408672405,0.1262415825,0.0610476105,0.0557908731666667,0.0624110865,0.0136191651666667,-0.0454826921666667,-0.0514837755666667,0.0125865324333333,0.134214912433333,0.163019139166667,0.2690704305,0.3233556585,0.406133767833333,0.3373213045,0.175528329833333,0.0475389567,0.0273543687,0.125361793366667,0.333574313833333,0.3243728505,2628,"DG_s13",8.219,9.015,10.422,10.422,28,4,10,10,1.407,"Left",28,4,24,24,0,0,-24,0,-24,24,"Advent",18,-6,28,10,4,10
"65",4,"RTI3-RTI4",0.27911177115,0.229149969816667,0.187457936483333,0.297172548483333,0.373758527816667,0.264881425816667,0.216970555816667,0.135734787816667,0.18485573515,0.08559705115,0.102015834483333,0.14509230175,0.17753583975,0.12794448975,0.140720823816667,0.0979689078166667,0.09028429515,0.0410161544833333,0.04995406755,0.07718947555,0.139795562883333,0.150396205816667,0.129807977016667,-0.0293192863166667,-0.0495582227833333,0.0444756586833333,0.05466579535,0.0647725378166667,0.04705019115,0.0867473730833333,0.0202697064166667,-0.0268083809166667,-0.01989303485,0.137342953016667,0.383260069683333,0.452251675016667,0.406893749816667,0.189396167816667,0.15565769715,0.19470002115,0.29716842315,0.314654833816667,2628,"DG_s13",8.219,9.015,10.422,10.422,28,4,10,10,1.407,"Left",28,4,24,24,0,0,-24,0,-24,24,"Advent",18,-6,28,10,4,10
"66",4,"RIN9-RIN10",-0.2362580975,-0.181071536833333,-0.161815476833333,-0.218551100166667,-0.264653160366667,-0.313923406433333,-0.1984681711,-0.243669958233333,-0.3511629835,-0.3112681755,-0.289172524166667,-0.285701616833333,-0.467535996833333,-0.4697304275,-0.474913550166667,-0.491968510166667,-0.398413816166667,-0.3311431995,-0.273800892833333,-0.376250824166667,-0.30994615932,-0.27926689932,-0.0742718279866666,-0.0979811495,-0.1768150315,-0.3462203195,-0.4483186855,-0.4696481275,-0.402619880833333,-0.163481692166667,-0.0830662321666666,-0.0164772648333333,-0.1475209675,-0.2205194655,-0.424385282166667,-0.572112242166667,-0.593988134166667,-0.565151844166667,-0.4231578435,-0.283264782833333,-0.211723632833333,-0.1683194935,2628,"DG_s13",8.219,9.015,10.422,10.422,28,4,10,10,1.407,"Left",28,4,24,24,0,0,-24,0,-24,24,"Advent",18,-6,28,10,4,10
"67",4,"LIN3-LIN4",-0.0431297976666667,0.121469871,0.286138215,0.328130651866667,0.2352184212,0.0856429345333333,0.0192454676666667,0.0267139783333333,0.0412840916666667,0.0377071816666667,-0.0574138363333333,-0.0529792343333333,-0.014789201,-0.00745654433333334,-0.0927537676666667,-0.0702566096666667,-0.0284714791333333,0.0195639982,-0.0217504184666667,0.0841148923333333,0.0424298163333333,0.0320242603333333,-0.0828308616666667,0.002166885,0.00648538033333333,-0.0394980719333333,-0.225042065266667,-0.232969899933333,-0.123857053,-0.00588014873333333,0.0087393726,-0.179120766733333,-0.169522890333333,-0.114958324333333,0.052324503,-0.0184564516666667,-0.0906429936666667,-0.147652939,-0.0667394116666667,-0.0700765323333333,0.0255592063333333,-0.0487711716666667,2628,"DG_s13",8.219,9.015,10.422,10.422,28,4,10,10,1.407,"Left",28,4,24,24,0,0,-24,0,-24,24,"Advent",18,-6,28,10,4,10
"68",4,"LIN2-LIN3",-0.328400087083333,-0.392793691083333,-0.137502251083333,-0.0468471044166667,-0.0679815444166667,-0.14566416575,-0.0975870790833333,-0.167725283083333,-0.185550186416667,-0.23072949975,-0.148935186416667,-0.184102870283333,-0.136935110283333,-0.0709655082833333,-0.0965058364166667,-0.228605069083333,-0.32794881775,-0.359368019083333,-0.291881457416667,-0.11522185075,-0.0579093194166667,-0.00299430175000001,-0.142071762416667,-0.0986863604166667,-0.0917647410833333,-0.0990970734833333,-0.19894492215,-0.220194635483333,-0.218073448816667,-0.212761416816667,-0.243420823483333,-0.191771800416667,-0.101982739083333,-0.04390751575,0.05169995825,0.0187982209166667,-0.0416356284166667,-0.19169254575,-0.203400076216667,-0.30094090955,-0.23662891575,-0.222554815283333,2628,"DG_s13",8.219,9.015,10.422,10.422,28,4,10,10,1.407,"Left",28,4,24,24,0,0,-24,0,-24,24,"Advent",18,-6,28,10,4,10
"69",4,"RIN4-RIN5",0.0703687415,0.0572450041666667,0.167711048366667,0.1030556757,0.0959844878333333,0.00149388296666667,0.128439673633333,0.209066010166667,0.281326374833333,0.271434806966667,0.169990496633333,-0.0176718140333333,-0.00289495216666667,0.0092430015,0.0898537715,-0.0323650491666667,0.0725873255,0.0420026355,0.0600921355,0.0365922221666667,0.2069674555,0.202576728833333,0.151143180166667,-0.0195379198333333,0.0528502355,-0.0386697025,0.0132800488333333,-0.0297813651666667,0.0266738748333333,0.0542621268333333,0.0646092715,0.119993991766667,0.157059453766667,0.0876611544333333,0.0477450749666667,0.0576281629666667,0.146814041633333,0.158707262833333,0.103484908833333,0.0854707788333333,0.0169997035,0.0841814701666667,2628,"DG_s13",8.219,9.015,10.422,10.422,28,4,10,10,1.407,"Left",28,4,24,24,0,0,-24,0,-24,24,"Advent",18,-6,28,10,4,10
"70",4,"LAM4-LAM5",0.358265659166667,0.0115731678333333,-0.1369845035,-0.0688473588333333,-0.112336110833333,-0.124062900833333,-0.0968606421666667,0.0248874031666667,0.0531479625,0.0651859198333333,0.0997082978333333,0.1556154025,0.223005396233333,0.321686396233333,0.3875941509,0.271138374366667,0.0650032363666667,-0.1290531703,-0.154248198833333,-0.0967006781666667,-0.0297044848333333,0.0384865591666667,0.0858463498333333,0.136006899833333,0.173048898566667,0.0381626652333333,0.0407723259,0.0802131817266667,0.13475555906,0.0887688643933333,0.0346394898333333,0.0296684311666667,-0.00987394483333334,-0.0780176181666667,-0.0286796435,0.683294289833333,1.8133769565,2.79507160983333,2.43009314316667,1.42792676316667,0.6363588965,0.5149414965,2628,"DG_s13",8.219,9.015,10.422,10.422,28,4,10,10,1.407,"Left",28,4,24,24,0,0,-24,0,-24,24,"Advent",18,-6,28,10,4,10
"71",4,"LTI9-LTI10",0.00143978816666665,-0.132366129166667,-0.1413889303,-0.165425686966667,-0.1352152083,-0.1843620945,-0.181552585833333,-0.1317118565,-0.105695659833333,-0.0629191685,-0.0619886651666667,-0.113550907833333,-0.0733479011666667,-0.0878885121,0.0747405745666667,0.0647786072333333,0.0767696801666667,-0.0303497311666667,-0.140058757166667,-0.234962217833333,-0.245958667833333,-0.206113573833333,-0.189921685166667,-0.186744763833333,-0.2280633045,-0.149436059166667,-0.190870125833333,-0.1156220965,-0.163584625833333,-0.118067705833333,-0.0527196104333333,0.0490320262333333,0.0729513667,-0.0517817073666667,-0.172698751586667,-0.194130937386667,-0.13733691472,-0.134448183166667,-0.114158059833333,-0.1622416185,-0.281293801166667,-0.211876939166667,2628,"DG_s13",8.219,9.015,10.422,10.422,28,4,10,10,1.407,"Left",28,4,24,24,0,0,-24,0,-24,24,"Advent",18,-6,28,10,4,10
"72",4,"LIN1-LIN2",0.0265554682166667,0.0389119408833333,0.0674662968833333,-0.00214532778333333,-0.112493943116667,-0.14248828925,-0.116582643623333,-0.08971406229,-0.12741509749,-0.161919461916667,-0.22191729125,-0.0697292565833333,-0.02233838645,0.118410710216667,-0.0763204877833333,-0.158116025783333,-0.221753255116667,-0.112938543783333,0.0212954482166667,0.0245592622166667,-0.0208862217833333,0.125427786216667,0.128256568216667,0.166275210216667,-0.04238736045,0.10310703955,0.13023101355,0.184517792883333,0.0521360068833333,-0.02811043825,-0.03430935225,-0.12188688625,-0.06076533245,-0.173716321116667,-0.15451810645,-0.234853893783333,-0.08168794645,-0.0948220217833333,0.00139904688333332,-0.0781013331166667,0.0128806142166667,-0.110206041116667,2628,"DG_s13",8.219,9.015,10.422,10.422,28,4,10,10,1.407,"Left",28,4,24,24,0,0,-24,0,-24,24,"Advent",18,-6,28,10,4,10
"73",4,"RIN1-RIN2",0.04770501745,0.02788944545,0.0482955847833333,-0.0671784528166667,0.04367098585,-0.0334011534833333,0.0683468387833333,0.0185661087833333,0.153066358716667,0.18035027205,0.126964948716667,0.05980869545,-0.00342756255,0.10899495745,0.180754322116667,0.12460164745,0.01576858745,-0.03967596595,-0.00496088728333333,-0.0976177206166667,-0.201820171883333,-0.197934151216667,-0.139398779216667,-0.0681720302833333,-0.0800979596166667,-0.0786904696166667,-0.0665329932166667,0.01186168345,0.0191901741166667,0.0281892457833333,-0.0539138544833333,-0.0938389978166667,-0.150174053483333,-0.12956411055,-0.0985282692166667,-0.0804977318833333,-0.0457252618833333,-0.113401167883333,-0.114309393216667,-0.0701722132166667,0.06115535965,0.11164045765,2628,"DG_s13",8.219,9.015,10.422,10.422,28,4,10,10,1.407,"Left",28,4,24,24,0,0,-24,0,-24,24,"Advent",18,-6,28,10,4,10
"74",4,"RTI1-RTI2",-0.0994145805833333,-0.0723013699166667,0.138414444083333,0.252468800083333,0.325152276083333,0.123157471416667,-0.0529585279166667,-0.140941908583333,-0.0745029905833333,0.0276789954166667,-0.0579062505833333,-0.0765766419166667,-0.156048143916667,-0.223075803916667,-0.09434016525,-0.0816610565833333,0.215430685416667,0.01651880875,0.0285536120833333,-0.138534963916667,-0.127793466583333,-0.260411829916667,-0.366074775916667,-0.352030226583333,-0.221519955916667,-0.117811155916667,-0.189280346583333,-0.195267770583333,-0.198114090583333,0.05226754275,0.02367558275,-0.0494547259166667,-0.129250835916667,-0.227312139916667,-0.187680620583333,-0.273647992583333,-0.212676911916667,-0.192232165916667,-0.208415883916667,-0.133561154583333,-0.06609161125,-0.0395145979166667,2628,"DG_s13",8.219,9.015,10.422,10.422,28,4,10,10,1.407,"Left",28,4,24,24,0,0,-24,0,-24,24,"Advent",18,-6,28,10,4,10
"75",4,"RIN2-RIN3",-0.161976430833333,-0.1602709775,-0.250198108166667,-0.164990196833333,-0.1215742195,-0.0887423683666667,-0.118610189033333,-0.131854524033333,-0.0398652198333333,0.119130396166667,0.168218163166667,0.00240892183333333,-0.134384704833333,-0.104600998166667,-0.0147180108333333,-0.0381416421666667,-0.0994460855,-0.00804115283333334,0.0544304585,0.0578834818333333,0.0320369405,-0.0597940443,-0.127803654966667,-0.2314653303,-0.138932652166667,-0.0131453688333333,0.0408395765,0.0548111858333333,0.00887711116666666,0.0361018625,0.0341415158333333,-0.0890585288333333,-0.125686998166667,-0.2051158115,-0.1143727015,-0.0330914835,0.0364510885,0.0639520985,-0.0368120048333333,-0.0517979395,0.0293077374333333,0.151771138766667,2628,"DG_s13",8.219,9.015,10.422,10.422,28,4,10,10,1.407,"Left",28,4,24,24,0,0,-24,0,-24,24,"Advent",18,-6,28,10,4,10
"76",4,"RIN6-RIN7",0.122010986166667,0.0134209508333333,-0.0539186658333333,-0.1164864885,0.00486574683333334,0.2250789715,0.616780624833333,0.539774900833333,0.443632320833333,0.1836905075,0.293841238166667,0.446609218166667,0.493239180833333,0.2957024855,0.146832218833333,0.0968267495,0.178355626833333,0.216257190833333,0.1407572255,0.1053541335,0.171546062833333,0.155599888833333,0.153560664633333,-0.0352481821,-0.0382209461,0.0315019547666667,0.0522496148333333,0.170281278166667,0.0245770515,0.0346890381666667,0.0515438381666667,0.208108724833333,0.2540039715,0.1532898495,0.2461112895,0.1250711295,0.0911184617133333,-0.143852584286667,-0.118193376286667,0.0102372444333333,0.227971117766667,0.2978772691,2628,"DG_s13",8.219,9.015,10.422,10.422,28,4,10,10,1.407,"Left",28,4,24,24,0,0,-24,0,-24,24,"Advent",18,-6,28,10,4,10
"77",4,"RIN3-RIN4",0.165791117633333,0.196037556966667,0.0339523236333333,-0.151967052366667,-0.0583247457,-0.0141051850333333,0.00512711696666667,-0.122039278366667,-0.116901695033333,0.0904748449666667,0.3283382403,0.403026022966667,0.228312051633333,-0.0782766150333333,-0.0731787017,0.0290629216333333,0.1531156083,0.0644943476333333,0.0524813116333333,-0.0324070290333333,-0.0141795930333333,0.00970515296666666,0.0352381702333333,0.0363062415666667,0.0291032009,0.112990370966667,0.0472734489666667,-0.0481554523666667,-0.0660838877,-0.0260508437,0.1775256843,0.222949418966667,0.324964916966667,0.229373411633333,0.264722578966667,0.270239298966667,0.251263525633333,0.291653878966667,0.192584918966667,0.113389215833333,-0.1157071575,-0.0900701641666667,2628,"DG_s13",8.219,9.015,10.422,10.422,28,4,10,10,1.407,"Left",28,4,24,24,0,0,-24,0,-24,24,"Advent",18,-6,28,10,4,10
"78",4,"RTI9-RTI10",0.15845366475,0.226732354083333,0.111386117216667,0.150685817216667,0.0961297852166667,0.135517357216667,0.0844201758833333,0.08963660235,0.0951213316833333,0.163762840483333,0.13243784335,0.31362117135,0.278183287216667,0.353330947483333,0.27353493415,0.332941207483333,0.26889184055,0.201371953216667,0.184550907216667,0.18819101255,0.331331933216667,0.327166585216667,0.29218377455,0.0774460358833333,0.0764525018833333,0.00812927388333334,0.01883816855,-0.0824137467833333,-0.0525715261166667,-0.00308940518333331,0.04104583215,0.21803223815,0.28434673455,0.33535573855,0.184237314063333,0.16546649673,0.194775172063333,0.193435007883333,0.182209279216667,0.120270014283333,0.159683990283333,0.12114867095,2628,"DG_s13",8.219,9.015,10.422,10.422,28,4,10,10,1.407,"Left",28,4,24,24,0,0,-24,0,-24,24,"Advent",18,-6,28,10,4,10
"79",4,"RIN5-RIN6",-0.1560647915,-0.250481240166667,-0.0945898681666667,-0.103942928166667,-0.0720867095,-0.0822551208333333,-0.0135806815,0.0446438813666667,0.167811303366667,0.187383963366667,0.221308741166667,0.0143083478333333,0.0828823965,0.0182151658333333,0.106105401833333,0.0831434405,0.139827977833333,0.0271526658333333,0.0593524058333333,0.0592737458333333,0.314993979166667,0.207274205833333,0.0948231698333333,-0.1711989635,-0.142717886966667,-0.183940957633333,-0.0188726276333333,-0.0345255535,0.0338803945,0.00555379783333333,0.100722927166667,0.0966513051666667,0.0630618718333333,-0.124857428166667,-0.139766374166667,-0.1322288625,-0.0227246809,-0.0448726209,-0.0674984259,-0.0059187075,0.0524553747,0.142791465366667,2628,"DG_s13",8.219,9.015,10.422,10.422,28,4,10,10,1.407,"Left",28,4,24,24,0,0,-24,0,-24,24,"Advent",18,-6,28,10,4,10
"80",4,"LTI1-LTI2",0.09503547056,0.0649672815,-0.0477462315,-0.00603210283333333,-0.0668786108333333,0.0362365271666667,0.0432492067,0.1047421387,0.189487123433333,0.1758477659,0.197861772566667,0.128093083166667,0.289875189166667,0.371821535833333,0.475380896873333,0.380281430206667,0.307461984873333,0.1530023913,0.0816097153,-0.0202182670333333,-0.0304126458333333,-0.0373134978333333,-0.0112669428333333,-0.00364928216666666,0.0708367645,0.1742389625,0.3526763465,0.2991053365,0.291198351166667,0.0780371031666667,0.0381731371666667,0.0444274778333333,0.1782609277,0.176235760366667,0.216602393033333,0.214663675833333,0.318868954633333,0.1859307613,0.133431703966667,0.0670746598333333,0.0303105902733333,0.03037142294,2628,"DG_s13",8.219,9.015,10.422,10.422,28,4,10,10,1.407,"Left",28,4,24,24,0,0,-24,0,-24,24,"Advent",18,-6,28,10,4,10
"81",5,"LIN9-LIN10",0.208042171333333,0.108612559333333,-0.0102824513333333,-0.0874480746666667,-0.122522942,-0.181046024,0.0492355226666667,0.0723524326666667,0.061584882,-0.080722062,-0.114837892666667,-0.115197014666667,-0.168742892,-0.0715923271333333,-0.0660967884666667,-0.0695974844666667,-0.0843731946666667,-0.0855698773333333,-0.0407794133333333,-0.023159232,-0.03835527,-0.0880753793333333,-0.213293302,-0.226965668,-0.259268192666667,-0.241796594,-0.260300547333333,-0.276211049333333,-0.249861095333333,-0.266998388666667,-0.297428199333333,-0.294199505333333,-0.2286929762,-0.189506013533333,-0.178923875533333,-0.125561638,-0.115815484666667,-0.0829468326666667,-0.197758752,-0.151665267333333,-0.251466224,-0.0855425913333333,2629,"DG_s13",11.422,12.219,13.297,13.297,22,6,10,10,1.078,"Right",22,6,16,16,0,0,-16,0,-16,16,"Advent",12,-4,10,22,10,6
"82",5,"LIN3-LIN4",-0.1217912945,-0.200674933833333,-0.285349073166667,-0.4145544265,-0.393250167166667,-0.2669615343,-0.1424825543,-0.0110001876333333,-0.0361318973,-0.1338675973,-0.189537546633333,-0.2618297445,-0.155851437833333,-0.248764835166667,-0.1705290917,-0.0610725850333333,-0.0122571057,-0.0872846478333333,-0.193958401833333,-0.1387002745,-0.0989237265,-0.204959379166667,-0.2449655409,-0.185922261566667,-0.0356393255666667,0.0260100895,-0.125159739166667,-0.175029093166667,-0.141897697833333,-0.0115663311666667,-0.0765705411666666,-0.0383645231666667,-0.0284318485,0.0200304328333333,-0.0731488271666667,0.0236437581666667,-0.0386396218333333,-0.0959923725,-0.233405075833333,-0.254259871166667,-0.2566710425,-0.184492757166667,2629,"DG_s13",11.422,12.219,13.297,13.297,22,6,10,10,1.078,"Right",22,6,16,16,0,0,-16,0,-16,16,"Advent",12,-4,10,22,10,6
"83",5,"LTI2-LTI3",-0.0210767900833333,0.0240103979833333,0.0651216201833333,0.02970912625,-0.0216959270833333,0.00627619891666666,0.14191647825,0.164910257583333,0.09022421825,-0.0445055284166667,0.02101399825,0.0134212869166667,0.17000272425,0.06327505825,0.106247449583333,-0.02551605975,0.0189855665833333,-0.05002919275,-0.0699453760833333,0.02566203025,0.0270907295833333,0.107249403583333,0.102789056916667,0.19008801025,0.214368752916667,0.106570919583333,0.06945513825,-0.03228658575,0.0346591209166667,0.0820818489166667,0.145100421583333,0.08836774625,-0.112452400416667,-0.0607144744166667,-0.00913832175,0.119844037583333,-0.01149714375,-0.133145381083333,-0.21808292195,-0.112112867543333,-0.03227708081,0.0502400520566667,2629,"DG_s13",11.422,12.219,13.297,13.297,22,6,10,10,1.078,"Right",22,6,16,16,0,0,-16,0,-16,16,"Advent",12,-4,10,22,10,6
"84",5,"LAM4-LAM5",0.102519879333333,0.030232342,0.0905848173333333,0.184940249333333,0.179770386,0.215744674666667,0.201023643333333,0.183961255333333,0.0778031326666667,0.0070078452,-0.0726086534666667,0.00118493193333334,0.0857768487333333,0.127151062066667,0.038942907,0.0206547477333333,0.1459112364,0.410795508733333,0.429062128666667,0.649984426666667,0.927339893333333,1.00354513333333,0.771669026666667,0.208433746666667,0.07755799542,-0.0208798772466667,0.01809749142,0.0517294093333333,0.0619315213333333,0.0487959203333333,0.0547691623333333,0.184131576333333,0.239071572666667,0.150842804,0.0337618173333333,0.0954469346666667,0.113998539333333,0.101037713333333,-0.022343298,0.421870524,1.21077099,1.65279086666667,2629,"DG_s13",11.422,12.219,13.297,13.297,22,6,10,10,1.078,"Right",22,6,16,16,0,0,-16,0,-16,16,"Advent",12,-4,10,22,10,6
"85",5,"RIN9-RIN10",0.0622351258,0.1469526798,0.4793121898,0.5393806698,0.462778861133333,0.195789780466667,0.0247179991333333,0.0693082344666667,0.0997913351333333,0.227368576466667,0.414216169133333,0.333488889133333,0.270976209133333,0.133000916866667,0.2000836702,0.188738077533333,0.191485297133333,0.1066552238,0.0674367878,0.0344188051333333,-0.0232177482,-0.0929086995333333,0.00929442246666666,0.2066381558,0.3996090958,0.3696558158,0.4045088158,0.315528683133333,0.247427643133333,0.1318103298,0.387402549133333,0.529040469133333,0.7089006758,0.378229110466667,0.374914577133333,0.2146950898,0.2868852114,0.2985424314,0.575829892066667,0.664950449133333,0.737967162466667,0.6899748958,2629,"DG_s13",11.422,12.219,13.297,13.297,22,6,10,10,1.078,"Right",22,6,16,16,0,0,-16,0,-16,16,"Advent",12,-4,10,22,10,6
"86",5,"RIN1-RIN2",-0.148996019366667,-0.0764906093666667,-0.0773038860333333,0.0265675626666667,-0.0955746133333333,-0.0946125333333333,-0.23572911,-0.21846977,-0.220250100666667,-0.160962580733333,-0.205477644066667,-0.220880975,-0.188199762266667,-0.0138912889333333,-0.0272869073333333,-0.0832698233333333,-0.157314224666667,-0.0126902493333333,0.05549646,-0.00646829806666666,-0.182056626133333,-0.259721655466667,-0.2193908494,-0.218385925333333,-0.0933913446666667,-0.072522096,0.0476394846666667,-0.01598246,-0.0119650486666667,-0.0212377606666667,-0.11695041,-0.0847616450666667,-0.192630199733333,-0.137002089733333,-0.104268400666667,-0.0448665593333333,0.049889564,0.00850617133333334,-0.0572475026666667,-0.15552926,-0.0832282746666667,-0.0416836333333333,2629,"DG_s13",11.422,12.219,13.297,13.297,22,6,10,10,1.078,"Right",22,6,16,16,0,0,-16,0,-16,16,"Advent",12,-4,10,22,10,6
"87",5,"RTI9-RTI10",-0.112349890233333,-0.2447671245,-0.2161483193,-0.0602575133,-0.0722451099666667,-0.1138313525,-0.220673817833333,-0.180788275166667,-0.178723681833333,-0.130803883833333,-0.0551860398333333,0.0315671068333333,0.0532546255,0.0632713449666667,-0.0722719017,-0.2126222187,-0.259268229833333,-0.0485017165,0.0942976891666667,0.0901819096333333,-0.0163050037,-0.0996032262333333,-0.148805543366667,-0.1873374467,-0.258282673966667,-0.264062446966667,-0.111878263633333,0.0341464835,0.0433855247666667,-0.0938847619,-0.0743714325666667,0.0563862721666667,0.0108681315,-0.0226966818333333,-0.0339021685,-0.0425367878333333,-0.0661574178333333,-0.1653133845,-0.04989464198,0.0504556613533333,0.14036973002,0.0364594068333333,2629,"DG_s13",11.422,12.219,13.297,13.297,22,6,10,10,1.078,"Right",22,6,16,16,0,0,-16,0,-16,16,"Advent",12,-4,10,22,10,6
"88",5,"RTI2-RTI3",0.02851482,0.083469784,-0.023156664,-0.00816354866666667,0.0411351613333333,0.000237529333333333,0.0705857493333333,0.182909062,0.198867865333333,0.0935375653333333,-0.0860826806666667,0.027045534,0.070340374,0.141641040666667,0.0538974693333333,0.172241896,0.116104627333333,0.0490596206666667,-0.137179836666667,-0.115471455333333,-0.120127962,-0.118351138,-0.142632218666667,-0.0212083386666667,0.155536581333333,0.0771410353333333,0.0336871053333333,-0.118966242666667,-0.122137799333333,-0.173837279333333,-0.166281838,-0.107932961333333,-0.0773411103333333,-0.050341597,-0.0744579503333333,-0.156674174,-0.169200847333333,-0.0997340313333333,0.016184658,0.120449278,0.122101144,0.09280591,2629,"DG_s13",11.422,12.219,13.297,13.297,22,6,10,10,1.078,"Right",22,6,16,16,0,0,-16,0,-16,16,"Advent",12,-4,10,22,10,6
"89",5,"LTI9-LTI10",-0.03182675455,0.00429977425,-0.0694612690833333,-0.0827582664833333,-0.151733631283333,-0.145855737283333,-0.0638569492833333,-0.0844740492833333,-0.00763908941666666,-0.0647690760833333,-0.0675425334166667,-0.0945267086166667,-0.0591512752833333,-0.07266107875,-0.0889795060833333,-0.03360695775,-0.0690905422833333,0.0516768103833333,0.13204096205,0.153937188716667,-0.0371895966166667,-0.22163493195,-0.270139556616667,-0.18892800395,-0.142743888616667,-0.0354989112833333,-0.0111727706166667,-0.0569853186166667,0.06111057205,0.0385249413833333,0.24067381805,0.129261045383333,0.0570947393833333,-0.181549082616667,-0.28563677035,-0.25670988435,-0.0924824890166667,-0.04677050195,0.0922881293833333,0.05237679405,0.100313600716667,0.0737228507166667,2629,"DG_s13",11.422,12.219,13.297,13.297,22,6,10,10,1.078,"Right",22,6,16,16,0,0,-16,0,-16,16,"Advent",12,-4,10,22,10,6
"90",5,"LIN2-LIN3",0.10954059105,-0.00165860695,-0.111966030283333,-0.03712720815,0.159351859183333,0.185657183183333,0.0892813311833333,-0.0567142228166667,0.0333635711833333,0.139139354516667,0.254020061183333,0.20949611385,0.23114609785,0.175816669183333,0.185370622516667,0.121678256516667,0.15068082585,0.170489572316667,0.209993986316667,0.132206928983333,0.134830056516667,0.08715984385,0.119703615183333,0.08707856785,0.18913864585,0.17697729985,0.223348367183333,0.267804200516667,0.25609296785,0.20902892385,0.0332195691833333,0.04443245785,0.00331882785,0.0242201825166667,0.03314539585,0.05528303185,0.0978989011833333,0.211744676516667,0.296187008516667,0.221594574516667,0.153625714516667,0.0614152131833333,2629,"DG_s13",11.422,12.219,13.297,13.297,22,6,10,10,1.078,"Right",22,6,16,16,0,0,-16,0,-16,16,"Advent",12,-4,10,22,10,6
"91",5,"RIN3-RIN4",0.0093073457666667,-0.0908576129,-0.140343839566667,-0.0568543283,-0.128385956633333,-0.143893826633333,-0.275802947766667,-0.323195979433333,-0.318064889433333,-0.2486118423,-0.2680055063,-0.384847726966667,-0.5148462223,-0.5072163663,-0.471358258966667,-0.398249890966667,-0.2837803463,-0.313447444966667,-0.2844461663,-0.3872259243,-0.392247410966667,-0.419439586966667,-0.438197365633333,-0.479498213633333,-0.4151392845,-0.330426333833333,-0.262439507166667,-0.419175373633333,-0.4305451843,-0.406672419633333,-0.3087789303,-0.3111971023,-0.2723221723,-0.220515296966667,-0.172582341633333,-0.278908973633333,-0.301307036166667,-0.342262784166667,-0.2393555935,-0.1975098233,-0.2550614653,-0.277678651966667,2629,"DG_s13",11.422,12.219,13.297,13.297,22,6,10,10,1.078,"Right",22,6,16,16,0,0,-16,0,-16,16,"Advent",12,-4,10,22,10,6
"92",5,"RTI1-RTI2",-0.2334373195,-0.168748406833333,-0.1420584375,-0.0361866961666667,-0.0321940577,-0.0579804510333333,-0.2025487757,0.00428467116666667,-0.0407066728333333,0.0247670405,-0.251596684166667,-0.3507736735,-0.285193724166667,-0.182457640833333,0.0769486258333333,0.2406551365,0.290848979833333,0.154523673166667,-0.0947289408333333,-0.0208330008333333,-0.0606948488333333,-0.0852635815,-0.125247438166667,-0.106922016833333,-0.0173360975,-0.1271793415,-0.205704608166667,-0.236635402833333,-0.295542848166667,-0.1570419415,-0.0720503528333333,-0.0788142135,-0.2569930535,-0.345557018166667,-0.281285708833333,-0.1232860265,-0.204018201833333,-0.248619501833333,-0.244824850833333,-0.1349129975,-0.0891641781666667,-0.208119188833333,2629,"DG_s13",11.422,12.219,13.297,13.297,22,6,10,10,1.078,"Right",22,6,16,16,0,0,-16,0,-16,16,"Advent",12,-4,10,22,10,6
"93",5,"LIN1-LIN2",-0.0775705615,-0.0948063881666667,-0.118175980766667,-0.115472870766667,-0.0747762514333333,0.0733082911666667,0.1806753525,0.0823740398333333,0.0760449931666667,-0.0357953215,0.0332368985,0.0396242918333333,0.157137939833333,0.2157317245,0.154324445833333,-0.0564540288333333,-0.0710535901666667,-0.0868182241666667,0.0240676118333333,-0.0425480301666667,0.00517184783333333,-0.1035661735,-0.126225814833333,-0.230407424833333,-0.0514733381666667,0.0231080178333333,0.0782220691666667,0.0309356225,0.0353121225,0.0565817185,-0.03294722,-0.0394553626666667,0.0401107746666667,0.0855092411666667,0.0368805011666667,-0.0838722855,-0.0540289051666667,-0.00511569183333334,0.0319336661666667,0.0451119491666667,0.0573204971666667,0.0430349325,2629,"DG_s13",11.422,12.219,13.297,13.297,22,6,10,10,1.078,"Right",22,6,16,16,0,0,-16,0,-16,16,"Advent",12,-4,10,22,10,6
"94",5,"RIN5-RIN6",0.171866474543333,0.01483020521,0.0484651509366667,0.111795925603333,0.21508545349,0.244410961163333,0.0572916044966667,-0.03462005539,-0.03858100479,0.138323211876667,0.166331327743333,0.215836767743333,0.103496517076667,0.127129730876667,0.0265043655433333,-0.0235118524566667,0.0438480525433333,0.0188304445433333,0.0506805753433333,-0.0617959113233333,-0.139769528656667,-0.139704168123333,-0.09998319479,0.06381315521,0.0719125858766667,0.08583894321,-0.0268104801233333,0.0986317798766667,0.17447542921,0.258551085876667,0.12827599521,0.0702449598766667,0.0394432958766667,0.0704413858766667,0.103619887876667,0.0944134725433333,0.142056259876667,0.00235777321,-0.0735592134566667,-0.22910026679,-0.164554825456667,-0.172508147456667,2629,"DG_s13",11.422,12.219,13.297,13.297,22,6,10,10,1.078,"Right",22,6,16,16,0,0,-16,0,-16,16,"Advent",12,-4,10,22,10,6
"95",5,"LIN4-LIN5",0.07561266825,0.12057656625,0.126467803383333,-0.03385749995,-0.15374578595,-0.122472627083333,-0.0353958690833333,0.113801278916667,0.16849237707,0.12698099507,0.0634926517366667,-0.00827801708333333,-0.00132583175000001,-0.05444259175,-0.04229917775,0.0904996855833333,0.150731596916667,0.14157805225,0.13292971225,0.12350681825,0.0212295751833333,-0.207634684816667,-0.19704283415,-0.00677905775,0.213190048916667,0.21939569625,0.0900171429166667,-0.0578636418166667,-0.11366172115,-0.16727814115,-0.142947283083333,-0.0283716790833333,0.05327830825,0.0514570689166667,-0.07137194755,0.165197451783333,0.13099040105,0.0560488841833333,-0.193423095816667,-0.175597389083333,-0.0747067236166667,0.0640827797166667,2629,"DG_s13",11.422,12.219,13.297,13.297,22,6,10,10,1.078,"Right",22,6,16,16,0,0,-16,0,-16,16,"Advent",12,-4,10,22,10,6
"96",5,"LTI1-LTI2",0.154084981666667,0.103740883,-0.0229194303333333,-0.250392843666667,-0.218720351666667,-0.1163455758,-0.0089630018,0.0713694928666667,-0.0139182963333333,-0.0176833943333333,-0.0478125866666667,-0.0216093546666667,0.023876143728,-0.00711443193866666,-0.024772101272,-0.0905369403333333,-0.072047429,-0.089114065,-0.164988347,-0.153650330333333,-0.0572395103333333,0.029970449,0.0246827623333333,-0.0949452176666667,-0.0695272016666667,-0.149106828333333,-0.02449740344,-0.00345446544,0.130516769893333,0.116553849,0.148170902333333,0.147075733666667,0.0432627696666667,-0.0544189436666667,-0.074467793,-0.0114547496666667,-0.0173334983333333,-0.109732930333333,-0.040305317,0.0329819583333333,0.0140923396666667,-0.0482605704666667,2629,"DG_s13",11.422,12.219,13.297,13.297,22,6,10,10,1.078,"Right",22,6,16,16,0,0,-16,0,-16,16,"Advent",12,-4,10,22,10,6
"97",5,"RIN4-RIN5",-0.147053080633333,-0.176615315366667,-0.208002301366667,-0.118082135566667,-0.0063973635,0.136148121833333,-0.00188074743333336,-0.1372801061,-0.227409332766667,-0.103234730166667,0.0149634405,0.0945334819666667,0.0582946939666666,0.0337064206333333,-0.0785819955,-0.161938360833333,-0.1886274115,-0.218371542833333,-0.210203094166667,-0.268036565166667,-0.3048471125,-0.166408461166667,0.0163378605,0.112636195833333,-0.0284876948333334,-0.211067584166667,-0.324109316166667,-0.314385212166667,-0.2993624075,-0.0977231568333333,-0.1463630235,-0.1132870775,-0.145960828833333,-0.0366500155,-0.0254272031666667,-0.0610661858333333,-0.0540893578333334,-0.0926355815,-0.146733784166667,-0.1944057655,-0.197102116166667,-0.235792078833333,2629,"DG_s13",11.422,12.219,13.297,13.297,22,6,10,10,1.078,"Right",22,6,16,16,0,0,-16,0,-16,16,"Advent",12,-4,10,22,10,6
"98",5,"RIN2-RIN3",0.0176271707333333,0.0364564169333333,0.0725093169333333,0.131249490266667,0.0190712722666667,-0.0764438784,-0.0933724790666667,-0.142287377066667,-0.163366227733333,-0.170259471066667,-0.0889136870666667,-0.0633825257333333,-0.0522326084,-0.0448394164,0.0183495196,-0.0170456834666667,-0.0115292988,-0.0769816761333333,-0.0705219457333333,-0.0740766570666667,-0.0747355444666667,-0.0599445978,0.00685567286666667,-0.0230336144,-0.0192225584666667,-0.0751647358,0.0441070835333333,-0.0582447930666667,-0.0134102424,-0.1193941064,-0.0395098744,-0.134086363733333,-0.148939397066667,-0.1300065144,-0.0331335844,-0.0125449430666667,0.0194882822666667,-0.0183293917333333,-0.0213185304,-0.0709795237333333,0.0202211582666667,0.141741861866667,2629,"DG_s13",11.422,12.219,13.297,13.297,22,6,10,10,1.078,"Right",22,6,16,16,0,0,-16,0,-16,16,"Advent",12,-4,10,22,10,6
"99",5,"RTI3-RTI4",0.168470823333333,0.183315340666667,0.0836779506666667,0.08386871,0.0922604433333333,0.241572781333333,0.245505860666667,0.192763822666667,0.132250976666667,0.061955064,0.139682808666667,0.319412806666667,0.358628866666667,0.448913686666667,0.19289552,0.220767199333333,0.04247062,0.185070053333333,0.171216607333333,0.13403509,0.011776614,-0.016462622,-0.0284337084666667,0.0188955602,-0.0119076638,0.0405538693333333,0.059175036,0.0865142213333333,0.0392476493333333,-0.0960007566666667,-0.0803485873333333,-0.109657378666667,0.0621827607333333,0.145224206066667,0.350062302066667,0.366633419666667,0.305061266333333,0.209254428333333,0.101908949333333,0.064677418,0.05314312,0.136656802,2629,"DG_s13",11.422,12.219,13.297,13.297,22,6,10,10,1.078,"Right",22,6,16,16,0,0,-16,0,-16,16,"Advent",12,-4,10,22,10,6
"100",5,"RIN6-RIN7",0.285580893583333,0.25324918225,0.29274794125,0.246705607916667,0.20267448925,0.16757493825,0.169245460916667,0.22843554825,0.15523515491,0.25624693491,0.145198667576667,0.251031277583333,0.0578358449166667,0.14194961825,0.10182055025,0.225496078916667,0.344237045583333,0.342521806916667,0.315322874916667,0.228964792916667,0.274427092916667,0.267456114916667,0.22487702825,0.21506567225,0.194583360916667,0.36394735625,0.313272725583333,0.299984190916667,0.0951525185833333,0.271399391916667,0.501655551916667,0.542408337583333,0.357509168783333,0.140978028783333,0.210208808783333,0.184143804916667,0.211860397583333,0.142765496916667,0.27088613625,0.346685569583333,0.270765983583333,0.115591467583333,2629,"DG_s13",11.422,12.219,13.297,13.297,22,6,10,10,1.078,"Right",22,6,16,16,0,0,-16,0,-16,16,"Advent",12,-4,10,22,10,6
"101",6,"LTI2-LTI3",-0.00861461663333334,0.1377508287,0.0673463860333333,-0.0373521006333333,-0.113606625966667,-0.0711563539666667,0.0838480660333333,0.0427008213666667,0.0743468240333333,-0.0978271399666667,-0.137812439966667,-0.135334582633333,-0.0172415319666667,-0.0196274673,-0.1188520977,-0.286233784366667,-0.2460062177,-0.115578093966667,-0.0883430939666667,-0.0855193819666667,-0.1602298153,-0.157825092633333,-0.0756267153,-0.0915345039666667,-0.0228870933,-0.189751815966667,-0.217765404633333,-0.255093140633333,-0.158237917966667,-0.163957987966667,-0.127988198633333,-0.0719363746333333,-0.0124889006333333,-0.0065866973,-0.0710614286333333,-0.0372420419666667,-0.0947908733,-0.159284130033333,-0.3387413247,-0.242386123366667,-0.132304535966667,0.0776235720333333,2630,"DG_s13",14.297,15.094,16.422,16.422,30,15,10,10,1.328,"Left",30,15,15,15,0,0,-15,0,-15,15,"Advent",20,5,30,10,15,10
"102",6,"LAM4-LAM5",0.690076268783333,0.63099485545,0.66783405545,0.28706123545,0.116618202783333,-0.0765645179433333,-0.141882143276667,-0.0352798012766667,-0.05527190255,-0.00149211208333333,0.15502166525,0.28996208725,0.200405512116667,0.00154038678333335,-0.19371935855,-0.19912417359,-0.249717209923333,-0.0648143179233333,0.00124333751666666,0.0647764685166667,-0.02868187415,-0.0823816752166667,-0.00784933721666667,-0.03311301455,0.10592276945,0.176525262116667,0.161318826116667,0.0555319427833333,-0.183929825216667,-0.175310869216667,-0.197591343883333,-0.0591079332166667,-0.110241539883333,-0.163033741883333,-0.211180803883333,-0.188814501283333,-0.20271214795,-0.166742906883333,-0.169836529483333,-0.140164126816667,-0.242645593883333,-0.279301665216667,2630,"DG_s13",14.297,15.094,16.422,16.422,30,15,10,10,1.328,"Left",30,15,15,15,0,0,-15,0,-15,15,"Advent",20,5,30,10,15,10
"103",6,"LIN3-LIN4",-0.287038129666667,-0.186930148333333,-0.124515337,-0.115306363666667,-0.0516961823333333,-0.00539438873333334,0.144870123266667,0.0930188539333333,0.119752342466667,0.0121103658,0.1725846458,0.315437064333333,0.408673842333333,0.349460475666667,0.163057399666667,0.156877088333333,0.0794155583333333,0.102829105666667,0.111228483666667,0.145853158333333,0.0823136716666667,0.019629637,-0.104844087666667,-0.104960737,-0.0735951223333333,-0.012138195,-0.00580857033333334,0.009287227,0.0372542236666667,0.0862352103333333,0.0752962463333333,0.155758518333333,0.119063685,0.102003265,0.119351615666667,0.124157835666667,0.187024609,0.0599908183333333,0.053888659,0.0327460483333333,0.178884065666667,0.245998077666667,2630,"DG_s13",14.297,15.094,16.422,16.422,30,15,10,10,1.328,"Left",30,15,15,15,0,0,-15,0,-15,15,"Advent",20,5,30,10,15,10
"104",6,"RIN1-RIN2",-0.162698054266667,-0.1889900248,-0.0684429541333333,-0.100985037133333,-0.1066998372,-0.1148677712,0.0415058894666667,0.0238050877333333,0.0504463730666667,-0.0685814328666667,-0.0184646128666667,0.0556646338,0.0925643261466667,0.06212812428,-0.12604251572,-0.1546930688,-0.1934229706,-0.153027443933333,-0.1358373606,-0.133884942266667,-0.183073828933333,-0.180001592266667,-0.1795806616,-0.0272638816,-0.0391108482666667,-0.0321792596,-0.0995613949333333,-0.180137430933333,-0.194498248933333,-0.1744269096,-0.1326975516,-0.210774880933333,-0.294454338266667,-0.251434746933333,-0.145932917933333,-0.1259497466,-0.102911207266667,0.0772029890666667,0.188108317733333,0.2046155584,0.0921610264,-0.0255901282666667,2630,"DG_s13",14.297,15.094,16.422,16.422,30,15,10,10,1.328,"Left",30,15,15,15,0,0,-15,0,-15,15,"Advent",20,5,30,10,15,10
"105",6,"RTI9-RTI10",0.1680852045,0.199606956233333,0.2847763889,0.159571132233333,0.1028556005,-0.0842835661666667,-0.127627040166667,-0.105649542166667,-0.0979541821666667,0.0532864085,0.0381721145,0.1400071185,0.0614251985,0.1481779945,0.0766814994733333,0.13901016614,0.0853435194733333,0.237374249166667,0.138050355833333,0.284808775833333,0.152478551833333,0.2015373505,0.0521994245,0.0277559378333333,0.0895402658333333,0.192138571833333,0.315716943833333,0.218697403833333,0.0406957171666667,-0.0415712535,0.0830441425,0.1646771013,0.227752198633333,0.1703946893,0.257451183833333,0.2248509705,0.135124613166667,0.0488642458333333,0.0198857146333333,0.0150766226333333,-0.0647442933666667,-0.0473004756333333,2630,"DG_s13",14.297,15.094,16.422,16.422,30,15,10,10,1.328,"Left",30,15,15,15,0,0,-15,0,-15,15,"Advent",20,5,30,10,15,10
"106",6,"RTI2-RTI3",-0.0346351613813333,0.0570365080133333,0.0444657310133333,0.17951459668,-0.0158389473333333,-0.0211211866666667,0.0386659783333333,0.221541919266667,0.233842457933333,0.0575014139333333,-0.0754686176666667,0.0452949703333333,-0.005085985,0.072090013,-0.025490555,0.155841345,0.135802520333333,0.1005146804,0.0736520970666667,0.112692795333333,0.219869929933333,0.2411082966,0.351108409,0.190854873666667,0.119286396333333,0.054382463,0.210419778333333,0.363343243,0.390700309666667,0.353390469666667,0.204144982333333,0.218322315666667,0.164305076333333,0.196020015,0.0805598723333333,0.071616245,0.0119428863333333,0.0322994403333333,0.0656089963333333,0.0622043703333333,-0.0316987676666667,-0.0269800263333333,2630,"DG_s13",14.297,15.094,16.422,16.422,30,15,10,10,1.328,"Left",30,15,15,15,0,0,-15,0,-15,15,"Advent",20,5,30,10,15,10
"107",6,"RIN2-RIN3",0.001580407,0.0461744436666667,0.0910359023333333,-0.0259418783333333,-0.0601397376666667,-0.0307069523333333,0.0669978543333334,0.060071885,0.009075113,0.051031961,0.0609330176666667,0.230493478333333,0.0569827303333333,0.0873842123333333,-0.141215435666667,-0.077149983,-0.0108204602666667,0.162516487066667,0.136376794666667,0.0888386939333334,-0.00783210073333333,0.0477530256666667,-0.099276359,-0.0434149843333333,-0.0352975553333333,0.0725752433333333,0.037163378,-0.0578761143333333,-0.0730055443333333,-0.034463677,0.093949025,0.0995833503333333,0.166017161666667,0.1387253042,0.166764465533333,0.0818926422,0.117220934333333,0.123731747666667,0.0710555063333334,0.118885553,0.172535184333333,0.140685747,2630,"DG_s13",14.297,15.094,16.422,16.422,30,15,10,10,1.328,"Left",30,15,15,15,0,0,-15,0,-15,15,"Advent",20,5,30,10,15,10
"108",6,"LIN4-LIN5",-0.198594926833333,-0.0947091695,-0.0648086261666667,-0.0962653808333333,-0.0556467128333333,0.0463823891666667,0.0469932064333333,0.0149624544333333,-0.113138906233333,-0.1530305455,-0.165952456833333,-0.0628987241666667,0.1037115825,0.144315665833333,0.142767575166667,0.110328653833333,0.0588196571666667,0.0578276271666667,0.0532133045,0.164493819833333,0.0503774778333333,0.0652537038333333,-0.134028952833333,-0.116651162833333,-0.160232224833333,-0.1557834995,-0.132400150833333,-0.176424284966667,-0.125038930966667,-0.175051437633333,-0.0977950235,-0.0560733168333333,-0.0680055615,-0.0330500928333333,0.1757236805,0.241797311833333,0.2184601965,-0.0075749535,-0.00852926156666665,-0.0328237542333333,0.0583739324333333,0.2244502605,2630,"DG_s13",14.297,15.094,16.422,16.422,30,15,10,10,1.328,"Left",30,15,15,15,0,0,-15,0,-15,15,"Advent",20,5,30,10,15,10
"109",6,"RIN3-RIN4",-0.0193319392666667,-0.0082803,-0.021465836,-0.0448152546666667,-0.0348519886666667,-0.08612269,-0.0647411973333333,-0.072236752,-0.0357400414666667,-0.0228195981333333,0.0170112565333333,-0.046751846,-0.07300678472,-0.0435970200533333,-0.0360660633866667,0.04025944,0.017069022,0.100143920666667,0.00999216933333334,-0.01031349,0.0668765326666667,0.041236266,-0.0354955553333333,-0.289502133333333,-0.132920948666667,-0.136658906,-0.0944740753333333,-0.214511992666667,-0.177198786866667,-0.101057724866667,-0.0917307069333333,-0.0684473767333333,0.103993997266667,0.118998616666667,0.0740838333333333,-0.170734353333333,-0.0650405526666667,-0.0504945591333333,-0.0681158391333333,-0.216221854466667,-0.203617836,-0.214053582666667,2630,"DG_s13",14.297,15.094,16.422,16.422,30,15,10,10,1.328,"Left",30,15,15,15,0,0,-15,0,-15,15,"Advent",20,5,30,10,15,10
"110",6,"LTI1-LTI2",-0.163869310666667,-0.049007496,-0.0259645446666667,0.0592252046666667,0.015161676,-0.0481148446666667,-0.193020476,-0.257155263333333,-0.270986930933333,-0.146521490266667,-0.0992117742666667,-0.113525004,-0.02769212,-0.010638796,0.00143854733333332,-0.219198952666667,-0.294938963333333,-0.315478666666667,-0.29131766,-0.333879302666667,-0.266222493333333,-0.197787476,0.0264121133333333,-0.00822341066666668,0.00446149866666665,-0.195716601333333,-0.170173774,-0.275263272,-0.274322745333333,-0.281701951333333,-0.180157766666667,-0.0460301326666667,-0.0481111593333333,-0.1162447032,-0.130663479866667,-0.0538133832,-0.00739155266666666,-0.124392906,-0.286102844,-0.327043869333333,-0.282164090266667,-0.200851726266667,2630,"DG_s13",14.297,15.094,16.422,16.422,30,15,10,10,1.328,"Left",30,15,15,15,0,0,-15,0,-15,15,"Advent",20,5,30,10,15,10
"111",6,"RIN4-RIN5",-0.164309575266667,-0.1024136812,-0.0769265345333333,0.0173513893333334,-0.0585483466666667,-0.178140774,-0.259954641533333,-0.3066881882,-0.328830023533333,-0.331601522,-0.298414677333333,-0.157665314,-0.198089443986667,-0.22867955732,-0.34448167932,-0.374379019333333,-0.244247908,-0.136250294,-0.030491734,-0.086479514,-0.0978486972,-0.200808359866667,-0.267856506533333,-0.28610381,-0.10853609,-0.0971759473333333,-0.0851986542666667,-0.0877336149333333,0.0308822630666666,-0.04797327,-0.147938500866667,-0.2221953482,-0.0770637475333333,-0.0902475133333333,-0.161411606,-0.233975526,-0.229701029333333,-0.213143632,-0.275934552666667,-0.292322274666667,-0.123440923333333,-0.142864504,2630,"DG_s13",14.297,15.094,16.422,16.422,30,15,10,10,1.328,"Left",30,15,15,15,0,0,-15,0,-15,15,"Advent",20,5,30,10,15,10
"112",6,"RIN5-RIN6",-0.237140834866667,-0.1056180902,-0.125082187,-0.061892205,-0.107288067,-0.184422661666667,-0.236073264333333,-0.264116252333333,-0.171583851666667,-0.234826858333333,-0.272786179666667,-0.3400543078,-0.265246472466667,-0.2811795798,-0.272351481,-0.284575312333333,-0.189841390333333,-0.028465751,0.00413561033333332,-0.0673704583333334,-0.233596558333333,-0.364978157,-0.411918755,-0.319321895,-0.122954464333333,-0.0684078916666667,-0.0765594076666667,-0.174381759666667,-0.0724086123333333,-0.170025956333333,-0.160848755,-0.216597027666667,-0.109937895666667,-0.144207813,-0.256872540333333,-0.308289466333333,-0.275325229,-0.228139122333333,-0.234661873666667,-0.181539497,-0.00269254766666671,-0.0687191166666667,2630,"DG_s13",14.297,15.094,16.422,16.422,30,15,10,10,1.328,"Left",30,15,15,15,0,0,-15,0,-15,15,"Advent",20,5,30,10,15,10
"113",6,"LIN9-LIN10",0.03747238135,0.123230086016667,0.09152010935,0.10470584935,0.0722727480166667,0.0656233298166667,0.01295380355,0.04936453555,0.0919666006833333,0.05010564695,0.06866250495,0.0801339466833333,0.0213607666833333,0.00170262068333333,-0.0523660679833333,-0.03540027465,-0.0438109619833333,0.0191314660166667,-0.04090437465,-0.0791673513166667,-0.256060037316667,-0.14228648465,0.00740771468333333,0.08269102135,0.149055564683333,-0.0147269599833333,0.10925522535,0.00669219668333333,0.122456482016667,-0.0152839393166667,0.125804254016667,0.179977720683333,0.28438279415,0.15650393835,0.04737144035,0.0484530268833333,0.127712768016667,0.16757250335,0.23086275335,0.29144392335,0.25646450135,0.186254126683333,2630,"DG_s13",14.297,15.094,16.422,16.422,30,15,10,10,1.328,"Left",30,15,15,15,0,0,-15,0,-15,15,"Advent",20,5,30,10,15,10
"114",6,"RIN6-RIN7",-0.111705383166667,-0.131256443166667,-0.252834867833333,-0.405564347833333,-0.224593741166667,-0.0335925165,0.118055950166667,0.1132957655,0.0881679121666667,0.114039656166667,0.0627391835,-0.1083982675,-0.284566364833333,-0.361001698166667,-0.196015407166667,-0.118270859033333,-0.0904778283666667,-0.0633061083666666,0.0887108968333333,0.0433004301666667,-0.169115506338667,-0.434820119672,-0.417718295672,-0.282543485833333,-0.104298876633333,-0.0340977199666667,-0.0337021266333333,0.0290547908333333,0.0290290035,0.0175241655,-0.0690062905,-0.0893348931666667,-0.00590165516666666,0.0135741601666667,-0.00262968183333334,-0.1048171085,-0.1963640145,-0.2587197405,-0.3085226865,-0.2726785465,-0.2854872065,-0.246723473833333,2630,"DG_s13",14.297,15.094,16.422,16.422,30,15,10,10,1.328,"Left",30,15,15,15,0,0,-15,0,-15,15,"Advent",20,5,30,10,15,10
"115",6,"RTI1-RTI2",0.110038855333333,0.116027046333333,0.089138109,-0.0148112023333333,-0.0125876173333333,0.224250156,0.276595320666667,0.195026448,-0.0543083703866667,-0.0999170526533333,-0.142337323986667,-0.154674445266667,-0.219304613666667,-0.185932917,-0.189915766666667,-0.102353596,-0.116103944,-0.069912588,-0.0796264693333333,-0.0191776366666667,0.127142316666667,0.328670131333333,0.428649313333333,0.268000234666667,0.166624834666667,0.044636646,0.0315348046666667,-0.100877935333333,-0.0999802573333333,0.187083196,0.191038809333333,0.31929689,0.0902678566666667,0.17983885,0.195375316666667,0.168708856666667,0.0169643166666667,-0.112952075333333,-0.140008020666667,-0.0826251266666667,-0.0922416986666667,-0.158802104666667,2630,"DG_s13",14.297,15.094,16.422,16.422,30,15,10,10,1.328,"Left",30,15,15,15,0,0,-15,0,-15,15,"Advent",20,5,30,10,15,10
