"","trial","electrodes","bin_1","bin_2","bin_3","bin_4","bin_5","bin_6","bin_7","bin_8","bin_9","bin_10","bin_11","bin_12","bin_13","bin_14","bin_15","bin_16","bin_17","bin_18","bin_19","bin_20","bin_21","bin_22","bin_23","bin_24","bin_25","bin_26","bin_27","bin_28","bin_29","bin_30","bin_31","bin_32","bin_33","bin_34","bin_35","bin_36","bin_37","X","SID","newround_time","choice_time","buttonpress_time","reveal_time","self_payoff","other_payoff","self_foregone","other_foregone","RT","side_chosen","self_var_payoff","other_var_payoff","ineq_var_abs","ineq_choice_abs","ineq_foregone_abs","ineq_disadvent","ineq_advent","ineq_disadvent_choice","ineq_advent_choice","ineq_choice","chose_equality","self_diff","other_diff","L_self","R_self","L_other","R_other"
"1",1,"RIN4-RIN5",0.172490180033333,0.2379349609,0.349096227566667,0.3330651309,0.248167347566667,0.1504195809,0.0552911175666667,-0.0388725857666667,-0.155376292433333,-0.147193912433333,-0.0191808777666667,0.0768333729,0.0010706609,-0.114249119766667,-0.116144247766667,-0.000795178433333335,0.116774434233333,0.349504178233333,0.298379504233333,0.121933304233333,-0.0968571224333333,0.0127799742333333,0.225785386233333,0.287007719566667,0.2650670389,0.143595540233333,0.2867227929,0.361702273566667,0.455137479566667,0.249376254026667,0.10702270136,0.0953593392866667,0.06320410616,0.09613006216,0.0469876882333333,0.112969290433333,0.0993966011,2625,"DG_s13",-0.797,0,1.015,1.015,10,10,10,18,1.015,"Left",10,18,8,0,8,8,0,0,0,-8,"10-10",0,-8,10,10,10,18
"2",1,"RTI2-RTI3",-0.194424862816667,-0.14472700615,-0.176740387483333,-0.18363552215,-0.210715327483333,0.0436436471833333,0.0934951631833333,0.0764627705166667,-0.06524510015,0.00333717951666666,-0.0525475058166667,-0.08830724715,-0.163249484816667,0.05318620185,0.13743459385,0.132020388516667,-0.0295465848166667,0.0662932351833333,0.12273173185,0.102042195183333,0.0455313285166667,0.15350948585,0.312126509183333,0.379240762516667,0.205576457183333,0.123305957183333,-0.05725453215,-0.0954593868166667,-0.199927533483333,-0.282213890816667,-0.29373270415,-0.18679307615,-0.12316266615,-0.0374642788166667,-0.123553553483333,0.000648596516666669,-0.0125383194033333,2625,"DG_s13",-0.797,0,1.015,1.015,10,10,10,18,1.015,"Left",10,18,8,0,8,8,0,0,0,-8,"10-10",0,-8,10,10,10,18
"3",1,"LTI1-LTI2",-0.0398895801666667,-0.199016246833333,-0.248760694166667,-0.242006540833333,-0.1733808075,0.0313513331666667,-0.0525391335,-0.1525221095,-0.273622336166667,-0.2395960415,-0.253522726166667,-0.312158346166667,-0.226227094166667,-0.2088104455,-0.1882955295,-0.2383883475,-0.2961824555,-0.2476326875,-0.212935423433333,-0.140386036766667,-0.100084043433333,-0.170684556166667,-0.143028236166667,-0.243185995833333,-0.291929887833333,-0.368351918433333,-0.419111442766667,-0.4172581001,-0.247592122833333,-0.2005505895,-0.1512278875,-0.249733874833333,-0.236018084833333,-0.145796010833333,-0.111506058833333,0.0854850111666667,0.0673595578333333,2625,"DG_s13",-0.797,0,1.015,1.015,10,10,10,18,1.015,"Left",10,18,8,0,8,8,0,0,0,-8,"10-10",0,-8,10,10,10,18
"4",1,"LIN1-LIN2",0.51742058385,0.54472299985,0.493577263183333,0.27501889525,0.216721321916667,0.320031695916667,0.385896978516667,0.341738395183333,0.297194255183333,0.418395520516667,0.445318430516667,0.40858005385,0.203632460516667,0.0472955205166667,0.0839947771833333,0.162091201183333,0.250483720516667,0.232663202516667,0.176904752783333,0.316563780116667,0.239628978116667,0.31139468385,0.238906900316667,0.35615515025,0.220191516916667,0.20548897045,0.17110371385,0.511813327183333,0.68349245585,0.94915259585,0.79757699585,0.620786271183333,0.404866991183333,0.296983925183333,0.24517765785,0.18688011585,0.221687255183333,2625,"DG_s13",-0.797,0,1.015,1.015,10,10,10,18,1.015,"Left",10,18,8,0,8,8,0,0,0,-8,"10-10",0,-8,10,10,10,18
"5",1,"RTI3-RTI4",-0.0308057531366667,-0.24839296307,-0.154843451736667,-0.152131602496667,-0.07282635723,-0.0202257499633333,-0.00743853492999999,-0.03538626173,-0.108484731663333,-0.154543474996667,-0.0965371768633333,0.0557825098033334,0.12405528267,0.0724488580033333,-0.167752261996667,-0.17686145153,-0.07645275153,0.130574101803333,0.0596548631366667,-0.104169104196667,-0.237378786796667,-0.09496033013,-0.08525094105,-0.17754637845,-0.184051383116667,-0.107578144863333,-0.0500888348633333,-0.113967716196667,-0.198190964263333,-0.115529697596667,-0.0649007695966667,0.03934143247,0.17006484247,0.199119749136667,0.205425541803333,-0.0478760368633333,-0.148028342196667,2625,"DG_s13",-0.797,0,1.015,1.015,10,10,10,18,1.015,"Left",10,18,8,0,8,8,0,0,0,-8,"10-10",0,-8,10,10,10,18
"6",1,"RIN9-RIN10",0.177975640833333,0.214527162833333,0.2015280155,0.149738438833333,0.138979996833333,0.243835596166667,0.324739936166667,0.251238119032533,0.102048709632533,0.0518685442992,0.145806155766667,0.215582963166667,0.187076977833333,0.0611239701666667,0.0856549521666667,0.195006972566667,0.4127699659,0.312253958566667,0.342389984833333,0.321274258166667,0.611553912166667,0.6553347175,0.8683105775,0.7815883975,0.735504502833333,0.434589958833333,0.347456334166667,0.2233617475,0.333549938166667,0.212730612833333,0.1337549995,-0.0147888418333333,0.0751569461666667,0.112379268833333,0.0958774268333333,0.0740203501666667,0.2042645875,2625,"DG_s13",-0.797,0,1.015,1.015,10,10,10,18,1.015,"Left",10,18,8,0,8,8,0,0,0,-8,"10-10",0,-8,10,10,10,18
"7",1,"RIN1-RIN2",0.155761794333333,0.193840403,0.287688042333333,0.2656319812,0.250157123866667,0.178013533866667,0.129685211286667,0.07151091462,0.141628995286667,0.199459724333333,0.152185973933333,0.0742495472666667,-0.0354693334,0.0332548556666667,0.0103667543333333,0.167780613,0.244772555,0.315435900333333,0.276683475,0.079713113,0.157635536333333,0.160866087933333,0.225789727933333,0.1147567206,0.0732184583333333,0.0740806383333333,0.047902485,-0.0635715843333333,0.00648371566666667,0.129465935666667,0.348888936333333,0.360382126333333,0.369711653666667,0.435559046466667,0.3765866098,0.375554683133333,0.234643732333333,2625,"DG_s13",-0.797,0,1.015,1.015,10,10,10,18,1.015,"Left",10,18,8,0,8,8,0,0,0,-8,"10-10",0,-8,10,10,10,18
"8",1,"RIN6-RIN7",-0.0652894065166667,-0.03547560585,0.03632764215,0.0412203134833333,0.0785443354833333,-0.0634018791833333,-0.197599639183333,-0.231732386516667,-0.130904110516667,-0.03679110305,-0.00920626971666667,0.0294805202833333,0.0717677796833333,0.119862037683333,0.01952100635,0.00588670948333334,0.0555882128166667,0.346702512816667,0.452980009483333,0.48575870415,0.323820722216667,0.275266750883333,0.0924079588833333,0.0690829608166666,0.0702963808166667,0.0763214268166667,0.125314153483333,0.263326171483333,0.396307333483333,0.22850897055,0.112069837216667,0.146906761216667,0.217189967483333,0.19356617415,0.168968960816667,0.175959067216667,0.04968190455,2625,"DG_s13",-0.797,0,1.015,1.015,10,10,10,18,1.015,"Left",10,18,8,0,8,8,0,0,0,-8,"10-10",0,-8,10,10,10,18
"9",1,"LAM4-LAM5",-0.1512731585,-0.0162004057,0.333918485966667,0.573277344633333,0.553929369166667,0.2956759225,0.100776879833333,0.0707882353,0.0516516095666667,0.0965063522333333,0.0609643694333333,0.0342798405,-0.1516553995,-0.0970122788333333,0.00597962456666667,0.4861656379,0.566469504566667,0.948904535833333,0.532700601233333,0.4095330539,-0.0527424127666667,-0.00902320616666666,0.0442992391666667,-0.0266078015,-0.0450506501666667,-0.182296794833333,-0.1571117861,-0.0626329494333333,0.0154944572333333,-0.00288512990666666,-0.14786633744,-0.175413790773333,-0.105729936366667,-0.0546504601666667,-0.0692360648333333,-0.120765974833333,-0.136576919886667,2625,"DG_s13",-0.797,0,1.015,1.015,10,10,10,18,1.015,"Left",10,18,8,0,8,8,0,0,0,-8,"10-10",0,-8,10,10,10,18
"10",1,"LIN2-LIN3",0.0559157013333333,0.0435014246666667,0.0903709646666667,0.118732539333333,0.070151352,0.0236575706666667,-0.0772868093333333,0.0771591393333333,0.0716901946666667,0.275413252,0.113305178466667,0.0536244451333333,-0.00998622753333333,-0.04035542,0.131803778666667,0.0565570286666667,0.137587609333333,-0.000736124666666664,-0.025398902,0.0146163289333333,0.1240080296,0.184291074933333,0.14483593,0.0634095248,-0.00547663386666667,-0.0243950532,-0.0239077293333333,0.146536053333333,0.253822746666667,0.400570694666667,0.447777502666667,0.409021596,0.533960996,0.535857118666667,0.511841292,0.269302728,0.329311544666667,2625,"DG_s13",-0.797,0,1.015,1.015,10,10,10,18,1.015,"Left",10,18,8,0,8,8,0,0,0,-8,"10-10",0,-8,10,10,10,18
"11",1,"RIN3-RIN4",-0.1062609932,-0.0520645412,0.00015963733333333,0.101695851333333,0.198757227333333,0.13405766,0.0244096086666667,-0.113670060666667,-0.107689850666667,-0.02957047,-0.052662434,-0.0347931033333333,-0.142328771333333,-0.0786421873333333,-0.0827595986666667,-0.0281992026666667,-0.0418168546666667,0.0228972766666667,0.089198166,0.104071298666667,0.104533092,0.0485554153333333,0.103126854666667,0.143250188,0.219225066,0.187621560666667,0.0771849566666667,0.0771202753333333,0.110310420666667,0.198885592666667,0.2808420322,0.169709665533333,0.210204606866667,0.177958287333333,0.2091574776,0.133203762626667,-0.0198987247066667,2625,"DG_s13",-0.797,0,1.015,1.015,10,10,10,18,1.015,"Left",10,18,8,0,8,8,0,0,0,-8,"10-10",0,-8,10,10,10,18
"12",1,"LIN3-LIN4",0.1504990825,0.156814943166667,0.171618841833333,0.193728275833333,0.350452769166667,0.3239026845,0.201838467833333,0.0608418798333333,0.0186682365,-0.0399200601666667,-0.100662852166667,0.0048860745,-0.00909671216666666,0.0399172647666667,0.0479192467,0.1584965257,0.163274433566667,0.00891399923333333,-0.0676563191,-0.0693068532333333,0.0197382651666667,0.0527434851666667,0.109296903966667,0.180642377966667,0.167731629966667,0.157448497966667,0.0811296086333333,0.195020357966667,0.233308303833333,0.266808823833333,0.155530169166667,0.0926902155666667,0.0703001481666667,0.0839228075,0.0491319777666667,0.1097531605,0.136412739833333,2625,"DG_s13",-0.797,0,1.015,1.015,10,10,10,18,1.015,"Left",10,18,8,0,8,8,0,0,0,-8,"10-10",0,-8,10,10,10,18
"13",1,"RTI1-RTI2",0.00141711858333335,0.0377583245833333,0.05426967925,0.000609039249999999,-0.14474458075,-0.22450906075,-0.15941091535,-0.130660722016667,-0.217522710016667,-0.221089355416667,-0.22964844875,-0.06771167475,-0.208900041416667,-0.171938701416667,-0.287295020083333,-0.18452897875,-0.225376925416667,-0.0910302340833333,-0.0622786814166667,-0.0238874986166667,-0.0552847386166667,0.137904800716667,0.25657161125,0.33242431125,0.10761927725,0.04022985725,-0.0722739714166667,0.01186137925,-0.0661085800833333,-0.05023000275,-0.14434386475,-0.0949128254166667,-0.126395809416667,-0.20630093075,-0.229838194083333,-0.152754736083333,-0.130990109416667,2625,"DG_s13",-0.797,0,1.015,1.015,10,10,10,18,1.015,"Left",10,18,8,0,8,8,0,0,0,-8,"10-10",0,-8,10,10,10,18
"14",1,"RIN5-RIN6",-0.0534230070666667,-0.0687763157333333,0.0711007422666667,0.168046520266667,0.111890422933333,0.0345503122666667,-0.1754437204,-0.178523463733333,-0.201934337733333,-0.136079429733333,-0.0682270924666667,-0.0435475144666667,-0.0899206364666667,-0.156151389066667,-0.154834373066667,-0.1067291464,-0.0215141377333333,0.0452423196,0.0450186169333333,-0.0244452004,-0.1185653324,0.0272126569333333,0.0949945019333333,0.178727049266667,0.0478200772666667,0.0427692929333333,0.145929150933333,0.149722682933333,0.16367668602,-0.0812410686466667,-0.14615287798,-0.2609183144,-0.231764961066667,-0.179732705133333,-0.1032952598,-0.0890279971333333,-0.0349000672,2625,"DG_s13",-0.797,0,1.015,1.015,10,10,10,18,1.015,"Left",10,18,8,0,8,8,0,0,0,-8,"10-10",0,-8,10,10,10,18
"15",1,"LTI2-LTI3",0.0113882543783333,-0.165002365621667,-0.271591008288333,-0.317544916288333,-0.155414009621667,-0.0323852876216667,-0.0389882216216667,-0.149537897155,-0.270468549155,-0.195466409821667,-0.208076520288333,-0.112969963621667,-0.0737624756216667,-0.018602788955,-0.0874845742883333,-0.173942112288333,-0.116724526955,-0.058188148955,0.0867487617116667,-0.0109898342883333,-0.0357126962883333,-0.122432822288333,-0.075390580955,0.0192593423783333,-0.0121791382883333,-0.062731022955,-0.199099848288333,-0.213672028288333,-0.0843048682883333,-0.0834992816216667,-0.172710781621667,-0.274842761621667,-0.249448757621667,-0.123856660955,-0.0101238276216667,0.0892492697116667,0.0758292997116667,2625,"DG_s13",-0.797,0,1.015,1.015,10,10,10,18,1.015,"Left",10,18,8,0,8,8,0,0,0,-8,"10-10",0,-8,10,10,10,18
"16",1,"RIN2-RIN3",0.156725961333333,0.0728178426666667,0.11285454,0.062247584,0.062211662,0.0185939822,-0.0536532471333333,-0.0318362518,-0.10354604,-0.0348136553333333,0.0387340233333333,0.128127492666667,0.1162845966,0.0993722092666667,-0.00493133206666667,-0.090457392,-0.075042692,0.08102552,0.238569372,0.154951216666667,0.135541520666667,0.11770885,0.161508132873333,0.04229159154,-0.10869301646,-0.173456387133333,-0.1859225798,-0.150793912466667,-0.1203588722,-0.0750403935333333,0.0598624511333333,0.113881724,0.274676052666667,0.289943492666667,0.166599407333333,0.086288974,0.063555374,2625,"DG_s13",-0.797,0,1.015,1.015,10,10,10,18,1.015,"Left",10,18,8,0,8,8,0,0,0,-8,"10-10",0,-8,10,10,10,18
"17",1,"RTI9-RTI10",0.0431957093333333,0.215898376666667,0.251348464,0.227740630666667,0.04300055426,-0.04807769974,-0.0136860730733333,0.02042889,0.092444206,0.166558783333333,0.149431231333333,0.0916649953333333,-0.032596204,0.059206068,-0.00909973,0.0995492886666667,0.130773399333333,0.253293037333333,0.328925171333333,0.370993087333333,0.367944582,0.373446782,0.284705568666667,0.320024647333333,0.142299422866667,0.215330910866667,0.1911351902,0.213107132666667,0.303030291333333,0.209473812,0.294982960666667,0.0541556513333333,0.0158202726666667,-0.0668657673333333,0.0439744973333333,0.0681073313333333,0.041389188,2625,"DG_s13",-0.797,0,1.015,1.015,10,10,10,18,1.015,"Left",10,18,8,0,8,8,0,0,0,-8,"10-10",0,-8,10,10,10,18
"18",1,"LIN4-LIN5",0.213173154666667,0.194748454666667,0.253195289333333,0.203058798,0.383319971333333,0.278540094666667,0.189800648,0.0575884243333333,-0.00558347299999999,0.034525067,-0.0196871321333333,0.1068029352,0.0222481825333333,-0.03786156,-0.100084546666667,-0.0759291073333333,-0.0695178706666667,0.0146717693333333,0.0273200373333333,0.0793111526666667,0.025314754,0.00755371866666667,0.0883261966666667,0.189451702,0.2265259776,0.0699754396,-0.103106327066667,-0.0522382373333333,0.0874844953333333,0.136938516666667,0.130203857333333,0.0687279233333333,0.0822428193333333,-0.0327119526666667,-0.0545343953333333,0.0985041406666667,0.105912720666667,2625,"DG_s13",-0.797,0,1.015,1.015,10,10,10,18,1.015,"Left",10,18,8,0,8,8,0,0,0,-8,"10-10",0,-8,10,10,10,18
"19",1,"LTI9-LTI10",-0.033258847,-0.143097402333333,-0.0591243603333333,-0.0998110936666667,0.103397800333333,0.0663354343333333,0.241360857,0.196342931666667,0.249502125666667,0.164230095,0.217754786333333,0.166591481666667,0.141390290333333,0.170692950333333,0.289810515,0.260172422333333,0.154601659666667,0.0538880243333333,0.295460405666667,0.370593441666667,0.468464323666667,0.298751037866667,0.250634344533333,0.1541044152,0.0675882436666667,0.0515395796666667,0.106952199666667,0.315137776,0.487256353333333,0.481034028666667,0.4192537726,0.2372026786,0.178420265933333,0.090448939,0.111753653,0.104147184333333,0.0664383763333333,2625,"DG_s13",-0.797,0,1.015,1.015,10,10,10,18,1.015,"Left",10,18,8,0,8,8,0,0,0,-8,"10-10",0,-8,10,10,10,18
"20",1,"LIN9-LIN10",0.143470635833333,0.0615509491666666,0.0294766838333334,0.0208517971666667,-0.0457223428333333,-0.0568653468333333,-0.202502060166667,-0.2231994985,-0.219892511833333,-0.0865488585,-0.00925400016666666,-0.0723281176333333,0.00987712569999999,-0.179531867633333,-0.167942368833333,-0.3468079775,-0.2234207255,-0.181402326833333,-0.0521203628333333,-0.0109469931,-0.1125956131,-0.157122925766667,-0.167760540833333,-0.00392748749999999,-0.115756195833333,-0.1814916985,-0.163580111833333,-0.111402554166667,-0.0300240561666667,-0.1669188415,-0.2983109635,-0.3692874855,-0.4354991795,-0.3704931515,-0.364343548833333,-0.290799260833333,-0.2256059635,2625,"DG_s13",-0.797,0,1.015,1.015,10,10,10,18,1.015,"Left",10,18,8,0,8,8,0,0,0,-8,"10-10",0,-8,10,10,10,18
"21",2,"RIN6-RIN7",-0.0911081904166667,-0.120701110616667,-0.06325126395,0.0392502587166667,0.13937932825,0.153076877583333,0.0197702469166667,-0.109436917583333,-0.195011353583333,-0.197600801583333,-0.13075624175,-0.0506104670833333,-0.04431159775,-0.09144512175,0.0789936669166667,0.111802526916667,0.129653535716667,-0.0336390156166667,0.0417297763833333,0.19196676025,0.229362777583333,0.340532925583333,0.29360999225,0.41984446625,0.295014659583333,0.242113568916667,0.0633631915833333,0.00717952225,-0.0536243990833333,-0.0376280764166667,-0.103447035083333,-0.03491377775,-0.0371650250833333,0.07014709425,0.04823610825,0.0861953335833333,0.05236915625,2626,"DG_s13",2.031,2.828,4.234,4.234,12,12,10,10,1.406,"Left",12,12,0,0,0,0,0,0,0,0,"Equal",2,2,12,10,12,10
"22",2,"RTI2-RTI3",-0.0511112014,0.0390031752666667,-0.00729135740666667,-0.00899685860666667,-0.0343751012733333,0.0227721847333333,0.0348583007333333,0.133696540066667,0.159905472733333,0.223963752733333,0.300790246066667,0.304373724733333,0.3141311514,0.373025418066667,0.384426600066667,0.319908924733333,0.166769418733333,0.2070993754,0.1775861154,0.1136918214,0.0708170228666667,0.222643304866667,0.2020802942,0.260435032066667,0.135999952066667,0.1716536194,0.1093730554,0.109183108066667,0.2067270514,0.259804000066667,0.309873840066667,0.3404515134,0.207898650066667,0.140785954066667,0.00406873345333332,0.0985919087866667,0.270954925453333,2626,"DG_s13",2.031,2.828,4.234,4.234,12,12,10,10,1.406,"Left",12,12,0,0,0,0,0,0,0,0,"Equal",2,2,12,10,12,10
"23",2,"LIN3-LIN4",0.164817047166667,0.0764906338333333,0.00622282983333333,-0.157374614166667,-0.125782486833333,-0.182688722166667,-0.215171654166667,-0.246831934833333,-0.2763374195,-0.3502013835,-0.3576975635,-0.274938833233333,-0.190766781233333,-0.0366614679,0.0356716402333333,0.0819956629,0.0236562042333333,0.0125872565,-0.0211000541666667,-0.1282558095,-0.137475718166667,-0.0962061155,-0.00127906216666668,-0.0271842925666667,-0.0278820725666667,-0.0330489909,-0.0365836771666667,-0.0317395611666667,-0.101816366166667,-0.0261861715,0.0904476998333333,0.131714163233333,0.1696263099,0.0350742565666667,-0.0449994335,-0.2477055675,-0.234041814833333,2626,"DG_s13",2.031,2.828,4.234,4.234,12,12,10,10,1.406,"Left",12,12,0,0,0,0,0,0,0,0,"Equal",2,2,12,10,12,10
"24",2,"LTI2-LTI3",-0.06269679055,-0.0224565872166667,-0.00939844321666667,0.113843048783333,0.15467321345,0.230533904116667,0.135244152116667,0.100943776116667,0.0285324881166667,0.0918679501166667,0.16925313345,0.23367791345,0.297640076783333,0.25058720225,0.177773515583333,0.07827504225,0.199504506783333,0.10781618945,0.10916412145,0.0676194481166667,0.169312738783333,0.251676700116667,0.23247433345,0.181556856783333,0.0965142351166667,0.00282697111666666,-0.02898447955,-0.0521291112166667,-0.0476278798833333,0.0279610341166667,0.0899728387833333,0.180380524783333,0.145883938783333,0.123399700783333,0.10745258745,-0.00319337321666667,-0.02443950055,2626,"DG_s13",2.031,2.828,4.234,4.234,12,12,10,10,1.406,"Left",12,12,0,0,0,0,0,0,0,0,"Equal",2,2,12,10,12,10
"25",2,"RIN9-RIN10",-0.0304762279166667,-0.0772204505833333,-0.172532664583333,-0.208694061583333,-0.157378396916667,-0.0106604129166667,0.473779612416667,0.55509253175,0.479552756416667,-0.0514806615833333,-0.14695686025,-0.05456241225,-0.02170791865,-0.0979101933166667,-0.20502500125,-0.14449567885,-0.0580998101833333,0.0979665390833333,0.101626886416667,0.0604793624166667,0.0964734310833333,0.162440798416667,0.237335873083333,0.133776872416667,0.14263681975,0.202374969083333,0.14820761175,0.13080097535,0.00267491808333334,0.208647076083333,0.244673895816667,0.319745383083333,0.273441950416667,0.65688618975,0.698213359083333,0.55221971175,0.196700629083333,2626,"DG_s13",2.031,2.828,4.234,4.234,12,12,10,10,1.406,"Left",12,12,0,0,0,0,0,0,0,0,"Equal",2,2,12,10,12,10
"26",2,"RTI9-RTI10",0.0887128309166667,0.08902631625,0.0965397889166667,0.106893359583333,0.0193270035833333,-0.100188958416667,-0.0713807844166667,-0.04528452975,0.109142416916667,0.179046247583333,0.116638053583333,-0.0474324064166667,0.0211280909166667,0.00913295491666666,0.172197484916667,0.09557027225,0.130615728916667,0.10513624685,0.18245413285,0.248872868183333,0.166233601583333,0.169720834916667,0.06795071625,0.19128964825,0.0680147535833333,0.126711988916667,0.0719001629166667,0.0416589535833333,0.0884469195833333,0.11002247225,0.171610185583333,0.169035550183333,0.211051710183333,0.24523130485,0.16213148825,0.0400204895833333,0.02992746025,2626,"DG_s13",2.031,2.828,4.234,4.234,12,12,10,10,1.406,"Left",12,12,0,0,0,0,0,0,0,0,"Equal",2,2,12,10,12,10
"27",2,"LTI9-LTI10",-0.159820382166667,-0.0922603135,-0.1858805935,-0.213998856566667,-0.182549487233333,-0.121533760566667,-0.0473848788333333,0.00398691736666665,0.0214575520333333,0.0682817980333333,0.225193487833333,0.296249567833333,0.2796510705,0.0578445051666667,-0.0427950468333333,-0.149012894166667,-0.160654438833333,-0.161174172833333,-0.1474232975,-0.1630969155,-0.0726196041666667,0.0512996667,0.1118559547,0.102894821366667,0.0495467991666667,-0.00805184876666667,-0.120418655433333,-0.0225848694333333,0.0776148838333333,0.0942383591666667,0.0120008878333333,-0.0487708515,0.00632018183333333,-0.0915305788333333,-0.1951627695,-0.167665136633333,-0.135521740633333,2626,"DG_s13",2.031,2.828,4.234,4.234,12,12,10,10,1.406,"Left",12,12,0,0,0,0,0,0,0,0,"Equal",2,2,12,10,12,10
"28",2,"RIN2-RIN3",-0.0176125339166667,0.00230615741666668,0.01382907875,-0.00138022724999999,-0.10833122725,-0.0612187219166667,-0.0791128065833333,0.05358558075,-0.0815189665833333,0.0532514780833333,-0.0416991465833333,-0.0488606919166667,-0.14438618525,-0.12194081125,-0.0885542099166667,0.0253159434166667,-0.01737830725,-0.00368949786333334,-0.0827209578633333,0.0852778048033333,0.10149507675,0.15145085675,0.100898436083333,0.132738890083333,0.00199352008333334,-0.000489728583333335,-0.0993224545833333,-0.101584905916667,-0.163077196583333,-0.121237272583333,-0.03615665725,-0.0601261159833333,-0.07180792465,-0.0537439119833333,0.0620248160833334,0.0986750000166667,0.0930186860166667,2626,"DG_s13",2.031,2.828,4.234,4.234,12,12,10,10,1.406,"Left",12,12,0,0,0,0,0,0,0,0,"Equal",2,2,12,10,12,10
"29",2,"RTI3-RTI4",-0.05436929665,0.0183160220166667,-0.07002005265,-0.0285544393166667,0.02065027535,0.0392641386833333,0.01594285935,0.0928038260166667,0.151050196683333,0.0714327946833333,-0.0830920319833333,-0.0835456419833333,0.0777623652166667,0.195288597883333,0.25445083115,0.13757058395,0.04771475795,0.000411310149999999,-0.0307179725166667,0.0122626048166667,-0.0170776113166667,-0.0236467073166667,-0.0711566633166667,-0.0887123299833333,0.0135960786833333,0.0284556934833333,0.0481121568166667,0.00902708604333333,0.04722444711,0.0999887624433333,0.02922562655,0.11196698935,0.13280315535,0.17355280535,0.0144342980166667,0.0623787514166667,0.0815392992833333,2626,"DG_s13",2.031,2.828,4.234,4.234,12,12,10,10,1.406,"Left",12,12,0,0,0,0,0,0,0,0,"Equal",2,2,12,10,12,10
"30",2,"LIN9-LIN10",0.04312009,0.0499154958666667,0.145536442533333,0.2347407492,0.289171054,0.146612747333333,0.0974398026666667,0.0975369046666667,0.1650477,0.207142431333333,0.165999574133333,0.152740641466667,0.101130861466667,0.0858931933333333,0.00299718400000001,0.0823859206666667,0.14508105,0.295945332,0.408319008666667,0.344259913333333,0.241920649733333,0.0195661630666667,0.158542195066667,0.15306889,0.153960803,-0.0183685006666667,-0.0498261606666666,0.0955829136666667,0.239857624666667,0.343340632733333,0.251852524066667,0.1726941454,0.07769132,0.0786262768,0.0537141260666667,0.119347210066667,0.158401935933333,2626,"DG_s13",2.031,2.828,4.234,4.234,12,12,10,10,1.406,"Left",12,12,0,0,0,0,0,0,0,0,"Equal",2,2,12,10,12,10
"31",2,"RIN1-RIN2",-0.0280804235,-0.106860142833333,-0.152280567466667,-0.2124340248,-0.1045183568,0.0821542531666667,0.0764512458333333,-0.0015388695,-0.165716580833333,-0.00101065616666667,0.1039108085,0.0662750257666667,-0.00872560756666667,-0.0937865409,-0.00492943883333334,-0.0355214521666667,-0.0488324982333333,-0.129620866233333,-0.183840322233333,-0.0533813128333333,0.107200447166667,0.298738883166667,0.2186001965,0.0273155398333333,-0.222989406833333,-0.288946482833333,-0.126027692833333,-0.0781143135,-0.0736471728333333,-0.195596772166667,-0.199510158166667,-0.0818246015,-0.00303210883333334,0.127098237166667,0.1446418025,0.168782279166667,0.0298760838333333,2626,"DG_s13",2.031,2.828,4.234,4.234,12,12,10,10,1.406,"Left",12,12,0,0,0,0,0,0,0,0,"Equal",2,2,12,10,12,10
"32",2,"RIN5-RIN6",0.0158996032166667,0.138997239416667,0.177573722083333,0.194003352083333,0.0975143554166667,0.12598172075,0.205011544083333,0.269390051416667,0.175721730083333,0.0384814654166667,-0.12539374525,-0.05409151325,5.11740166666648e-05,0.08765649735,0.0206305880833333,0.0317021034833333,0.0152631068166667,0.0705722774166667,0.00179572008333333,-0.000178107250000001,0.142442842083333,0.25011921475,0.271168715416667,0.11980018675,0.0317933974166667,0.000279491416666667,0.0590030734166667,0.147388556083333,0.125738055416667,0.0704366449566667,-0.00209241504333334,0.0383366116233333,0.0884032240833333,0.121693824083333,0.11983144275,-0.0186763819166667,0.00389541808333333,2626,"DG_s13",2.031,2.828,4.234,4.234,12,12,10,10,1.406,"Left",12,12,0,0,0,0,0,0,0,0,"Equal",2,2,12,10,12,10
"33",2,"LTI1-LTI2",0.0815144308,0.0650624046666667,0.0148809317866667,0.00930527178666668,0.02017623472,0.0729532722666667,0.137184322933333,0.0315303433333333,0.0578795246666667,-0.0510785326666667,0.093084584,0.0672792093333333,0.237983439333333,0.153432466,0.077519718,-0.149071903733333,-0.107128595066667,-0.1246186324,-0.056244426,-0.0367245746666667,0.0448691773333333,0.145894053333333,0.119398326666667,0.0794108666666667,0.00925566733333333,-0.054481312,-0.0963536333333333,-0.171376618666667,-0.104306401333333,-0.102035727333333,-0.0987571353333333,-0.068343934,0.00653606266666668,0.060474652,0.0955248393333333,-0.0667764606666667,-0.0924661166666667,2626,"DG_s13",2.031,2.828,4.234,4.234,12,12,10,10,1.406,"Left",12,12,0,0,0,0,0,0,0,0,"Equal",2,2,12,10,12,10
"34",2,"LIN4-LIN5",0.1435337485,0.164841899833333,0.0649916598333333,-0.0501778808333333,-0.0488913715,-0.0612564431666667,-0.0389616765,-0.000694554233333339,-0.0520392919,-0.1616921799,-0.123845716166667,-0.0605276516333333,0.0267941350333333,-0.0228958503,0.000914215833333329,-0.0377067441666667,-0.0202047388333333,-0.0158221255,0.0801579878333333,0.0340323187,-0.00733968883333334,-0.0363857620333333,0.0608985391,0.0253911493,0.0309407217666667,0.0407713364333333,0.0239698786333333,-0.0131744366333333,-0.0990543226333333,0.0990035645,0.212493787166667,0.187426029833333,0.0753518585,-0.0553234881666667,-0.0826879661666667,-0.0946748874333333,0.110780256966667,2626,"DG_s13",2.031,2.828,4.234,4.234,12,12,10,10,1.406,"Left",12,12,0,0,0,0,0,0,0,0,"Equal",2,2,12,10,12,10
"35",2,"LAM4-LAM5",-0.0635149606333333,0.0259684000333333,0.0715920133666667,0.1842394773,0.228819225766667,0.197966905766667,0.1941828051,0.370724842633333,0.566198717966667,0.666004825966667,0.455110151966667,0.347289163966667,0.1379841573,0.0711685513,-0.0373325293666667,-0.0241324360333333,0.164253503966667,0.1830129893,0.1471912817,-0.00367961963333333,0.1409633017,0.193666700633333,0.2405044413,0.1854555213,0.116747069966667,0.0948810852333333,-0.0245071947666667,-0.0232656147666667,0.0505238613,0.119006487966667,0.123723201966667,0.1414669713,0.129183269966667,0.242734658633333,0.2588635453,0.2843649551,0.2156146091,2626,"DG_s13",2.031,2.828,4.234,4.234,12,12,10,10,1.406,"Left",12,12,0,0,0,0,0,0,0,0,"Equal",2,2,12,10,12,10
"36",2,"LIN1-LIN2",0.02987016849,-0.0206260028433334,-0.0789165308433333,-0.0135358794966667,0.05404188517,0.02789619417,-0.0956018731766667,-0.0385395798433333,0.108676133823333,0.162180569823333,0.24307261649,0.109669403156667,0.169877403156667,0.0564497878233333,0.00611488849,-0.0118133661766667,0.0189527158233333,0.12784726849,0.125325729823333,0.0717866391566667,0.01751117449,-0.0667337921766667,0.05268559849,0.108520082023333,0.13143624869,0.01325846869,0.10370863649,0.0587003238233333,0.0463815198233333,-0.0357600500433333,-0.04641023071,-0.06564168871,-0.159059704843333,0.0443741751566667,0.09688535049,0.123519349823333,0.0661435831566667,2626,"DG_s13",2.031,2.828,4.234,4.234,12,12,10,10,1.406,"Left",12,12,0,0,0,0,0,0,0,0,"Equal",2,2,12,10,12,10
"37",2,"LIN2-LIN3",0.14430201615,0.03261961855,-0.00840098445,-0.13600139445,-0.164590591116667,-0.19898520465,-0.19517909465,-0.313889627983333,-0.38738969145,-0.357724524116667,-0.277186726783333,-0.160077231316667,-0.05094310265,0.0105503674833333,0.11375750535,0.0350925560166667,0.0585643224833333,-0.0150394135166667,-0.0949359375166667,-0.182241966783333,-0.142091992783333,-0.0300283947833333,-0.08211202745,-0.07303964545,-0.10652197745,0.0511395172166667,-0.0172941961166667,-0.134340184783333,-0.143176524783333,0.141510735216667,0.306582295216667,0.237235419883333,-0.0331973341166667,0.000898138083333333,-0.00111809571666667,0.0688361382833333,0.03001763275,2626,"DG_s13",2.031,2.828,4.234,4.234,12,12,10,10,1.406,"Left",12,12,0,0,0,0,0,0,0,0,"Equal",2,2,12,10,12,10
"38",2,"RTI1-RTI2",0.134264320733333,0.1692159994,0.1646634614,0.1372121354,0.169915596066667,0.184527284733333,0.163514390733333,0.0756705100666667,0.0951895847333333,0.139646238066667,0.4436579454,0.4736300094,0.462669078066667,0.292101155266667,0.247079327266667,0.100839265266667,0.0156054940666667,-0.0335733286,-0.0535075286,-0.0911239546,-0.0318379659333333,0.0880328914,0.0627539920666667,0.0619791087333333,0.113087312066667,0.274260354106667,0.298904364773333,0.23117066744,0.133571430066667,0.0989001262666667,0.171298168266667,0.1579975996,0.189491732733333,0.208444118066667,0.2253563714,0.3091850654,0.230186196866667,2626,"DG_s13",2.031,2.828,4.234,4.234,12,12,10,10,1.406,"Left",12,12,0,0,0,0,0,0,0,0,"Equal",2,2,12,10,12,10
"39",2,"RIN4-RIN5",-0.100782521266667,0.0453383054,0.0192430368666667,0.0234391095333333,-3.53104666666673e-05,-0.00416269485333334,-0.0277879828533333,-0.04613262752,-0.049404188,-0.0416220593333333,-0.102620481333333,-0.0692476906666667,-0.0593353066666667,-0.034908112,-0.027183098,-0.0141705310666667,-0.0527245790666667,0.0273921249333333,-0.023372088,0.0110958106666667,-0.00517045133333333,0.226041799333333,0.327980088,0.219846436533333,0.0792996498666667,0.0413563492,0.132869077333333,0.0677808565333333,0.0203835603333333,0.031065633,0.0115406243333333,0.0751009605333333,-0.0274117981333333,0.019418316,-0.065512976,-0.07743516428,-0.0206137089466667,2626,"DG_s13",2.031,2.828,4.234,4.234,12,12,10,10,1.406,"Left",12,12,0,0,0,0,0,0,0,0,"Equal",2,2,12,10,12,10
"40",2,"RIN3-RIN4",-0.255892278333333,-0.123852689,-0.0689834660666667,-0.0888111967333333,-0.135652328066667,-0.221844984333333,-0.176416359666667,-0.119045658333333,-0.167638164333333,-0.174375432333333,-0.192847634333333,-0.134521121,-0.221960640333333,-0.240805821666667,-0.071414589,0.128933462333333,0.178709779,0.158914259666667,0.0629829683333333,-0.118218166333333,-0.289755063666667,-0.202377582333333,-0.0286295376666667,-0.00851860166666668,-0.142361026333333,-0.0213868176666667,0.103424605666667,0.270787363266667,-0.0207049334,-0.119900462733333,-0.198266981666667,-0.129298771666667,-0.120422697666667,-0.302863526333333,-0.342881097,-0.317550653,-0.219564594733333,2626,"DG_s13",2.031,2.828,4.234,4.234,12,12,10,10,1.406,"Left",12,12,0,0,0,0,0,0,0,0,"Equal",2,2,12,10,12,10
"41",3,"LIN1-LIN2",0.0474295986666667,-0.0225608206666667,-0.099622168,-0.0533637286666667,-0.0567665707333333,0.1764493366,0.1663699726,0.24387564,0.252474853333333,0.397340084,0.293475297333333,0.307986050666667,0.168765292,0.27453474,0.186325646666667,0.118577382666667,0.112194225266667,-0.000874534733333338,-0.00229635873333334,-0.0780324933333333,-0.0195682186666667,0.0430363713333333,0.228744582,0.26317214,0.24779411,0.169453776666667,0.0950478606666667,0.107030907266667,0.00545150993333333,0.1340006266,0.168674246666667,0.28628252,0.25245132,0.2308616,0.146155538666667,0.0448571153333333,0.163981546666667,2627,"DG_s13",5.234,6.031,7.219,7.219,10,10,8,8,1.188,"Left",8,8,0,0,0,0,0,0,0,0,"10-10",2,2,10,8,10,8
"42",3,"RIN5-RIN6",-0.201768233,-0.196324216333333,-0.132969974333333,-0.165773831133333,-0.213163258666667,-0.248788349333333,-0.263188782666667,-0.217314042466667,-0.258799804466667,-0.1674440178,-0.0788754938,-0.144052063133333,-0.0888951518,-0.187440105133333,-0.0189446384666667,-0.182559525133333,-0.201548692466667,-0.232340752466667,-0.0682725656733333,-0.06360363634,-0.132638346073333,-0.184413645533333,-0.141368995933333,-0.0112068528666667,-0.0711810942,-0.1506724558,-0.245456943133333,-0.155423281133333,-0.160506597133333,-0.152726930666667,-0.195675400666667,-0.156600768666667,-0.188370425133333,-0.181369003133333,-0.141120328466667,-0.156170103133333,-0.209314554466667,2627,"DG_s13",5.234,6.031,7.219,7.219,10,10,8,8,1.188,"Left",8,8,0,0,0,0,0,0,0,0,"10-10",2,2,10,8,10,8
"43",3,"RIN1-RIN2",0.216237582616667,0.07676687595,-0.00256245071666666,-0.0738342127633333,0.0233381912366667,0.0799028512366667,0.164457221283333,0.173675824616667,0.110679871283333,0.0185659666166667,0.00541157128333333,-0.04610086405,0.0483327072833333,0.04072606395,0.224755319283333,0.193108796683333,0.133759272016667,-0.0707720899833333,-0.170467168716667,-0.149305628716667,-0.183318021383333,-0.203353234716667,-0.0778964847166667,-0.0284552514966667,0.06513427317,-0.01110310683,-0.0394803347166667,-0.00192603264999999,0.01130876335,-0.00478276398333333,-0.0543354733833333,-0.08038087805,-0.0474620173833333,-0.0792674547166667,-0.251401019383333,-0.342192403383333,-0.288717078716667,2627,"DG_s13",5.234,6.031,7.219,7.219,10,10,8,8,1.188,"Left",8,8,0,0,0,0,0,0,0,0,"10-10",2,2,10,8,10,8
"44",3,"LIN3-LIN4",0.17590652645,0.234149028116667,0.133243810783333,0.08269156545,0.08836313645,0.200427331116667,0.280805753783333,0.190100501116667,0.0900499657833333,0.0853434317833333,0.0622842957833333,0.0333913151166667,0.0442932317166667,0.115373092383333,0.14065006305,0.13715514445,0.24798864245,0.26946395045,0.16105624245,0.0190427579166667,-0.0562688740833333,0.111474540583333,0.213415681783333,0.289833173116667,0.166088153116667,0.0949115991166667,0.123539693116667,0.118345377116667,0.143512637783333,0.0893577411166667,0.0444307797833333,-0.0377459202166667,-0.04597727155,0.0317210791166667,0.10944957245,0.07209941645,0.06131671645,2627,"DG_s13",5.234,6.031,7.219,7.219,10,10,8,8,1.188,"Left",8,8,0,0,0,0,0,0,0,0,"10-10",2,2,10,8,10,8
"45",3,"RTI9-RTI10",-0.120395681183333,-0.0299135985166667,-0.06799382185,-0.165378594516667,-0.248584119183333,-0.0285277925166667,0.04885934615,0.0859822088166667,-0.00458274745,0.08501170055,0.0879106030166667,0.0192705212833333,0.00658648595,0.0805609954833333,0.198683073483333,0.126784075483333,0.104519878816667,0.05008730015,0.0482430974833333,0.199069294816667,0.294914985483333,0.440886834816667,0.370173218816667,0.278578186816667,0.103282926816667,0.0468697814833333,0.0336501674833333,0.148027427483333,0.12097706215,0.0974952814833333,0.0273510628166667,0.01935234015,-0.00777026518333333,-0.0532478721833333,-0.0207173581833333,-0.01116326285,0.0501958628166667,2627,"DG_s13",5.234,6.031,7.219,7.219,10,10,8,8,1.188,"Left",8,8,0,0,0,0,0,0,0,0,"10-10",2,2,10,8,10,8
"46",3,"RTI2-RTI3",-0.182696673466667,-0.143447779466667,-0.0531347416666667,-0.0399053656666667,-0.136010158333333,-0.150733207,-0.178033611,-0.0942009876666667,-0.0783952656666667,-0.0403572781333333,0.0599004518666667,0.0293309605333333,0.115971563233333,0.135548896566667,0.171764028566667,0.011515793,-0.0651872823333333,-0.077472735,-0.026232997,-0.0922642036666667,-0.141644654333333,-0.0671266656666667,0.00516972366666668,0.0416785556666667,-0.00401457099999999,0.0605682683333333,0.0713085303333333,0.0258628743333333,-0.0260036723333333,0.032195377,0.0853449643333333,-0.032217519,-0.143418922333333,-0.0564041396666667,0.0192245836666667,0.0193741796666667,-0.192179597666667,2627,"DG_s13",5.234,6.031,7.219,7.219,10,10,8,8,1.188,"Left",8,8,0,0,0,0,0,0,0,0,"10-10",2,2,10,8,10,8
"47",3,"LTI2-LTI3",-0.250653279466667,-0.3586736128,-0.3213054728,-0.278240305666667,-0.199400954333333,-0.247957914333333,-0.356244106333333,-0.418405943,-0.364089123,-0.226760449666667,-0.046155231,0.00601260566666667,-0.0661068395333333,-0.239876430133333,-0.290944573466667,-0.259421574266667,-0.178361332333333,-0.2399749546,-0.330940959266667,-0.394395143266667,-0.379511888333333,-0.232646951,-0.206741923,-0.070608813,0.0434247603333333,0.0480099123333333,-0.0533601736666666,-0.0607025803333333,-0.117461906333333,-0.053067865,-0.153676518333333,0.0266918803333333,-0.0329964784,-0.0272876184,-0.171440504013333,-0.21089896328,-0.263488770613333,2627,"DG_s13",5.234,6.031,7.219,7.219,10,10,8,8,1.188,"Left",8,8,0,0,0,0,0,0,0,0,"10-10",2,2,10,8,10,8
"48",3,"LIN9-LIN10",-0.0781130554166667,-0.135671429416667,-0.07932892555,-0.00152259421666667,0.0468451131166667,-0.00565028208333333,-0.06461968275,0.01239254325,0.03804970005,0.0815395833833333,0.0173170107166667,0.0711034219166667,0.0876096279166667,-0.03951518935,-0.145188584683333,-0.16305263535,-0.00207381808333335,0.111648503916667,0.00947199858333332,-0.06000139955,-0.0784078348833333,-0.0653889220166667,-0.14401856055,-0.211967608216667,-0.160014656416667,-0.0468043930833333,-0.0936119054166667,-0.159230910816667,-0.227542670816667,-0.27007852615,-0.24766609675,-0.289889572083333,-0.29420161875,-0.288454425816667,-0.171243592483333,-0.0581937524833333,-0.0722097634166667,2627,"DG_s13",5.234,6.031,7.219,7.219,10,10,8,8,1.188,"Left",8,8,0,0,0,0,0,0,0,0,"10-10",2,2,10,8,10,8
"49",3,"LAM4-LAM5",-0.184452968166667,-0.190873778833333,-0.1462172855,-0.101234698833333,-0.00436166416666667,-0.0378223113666667,0.000634439366666663,-0.0578253839666667,-0.0149815781,-0.0368645021666667,0.0507892565,0.0597799111666667,0.0522288168333333,-0.0278085391666667,-0.0875320318333333,-0.0302551081666667,-0.0104241208333333,0.131899271833333,0.131130503833333,0.1130509665,0.130769697166667,0.812043915833333,1.19767599583333,1.23579145183333,0.448553965833333,0.126382895833333,-0.108280104166667,-0.0889954975,-0.0870482735,-0.0629627401666667,-0.0945969941666667,-0.130974718166667,-0.0396761868333333,0.0371959505,-0.0186060621666667,0.0385666225,0.1750441465,2627,"DG_s13",5.234,6.031,7.219,7.219,10,10,8,8,1.188,"Left",8,8,0,0,0,0,0,0,0,0,"10-10",2,2,10,8,10,8
"50",3,"RIN4-RIN5",-0.155250194333333,-0.1641597,-0.030892956,-0.054812812,-0.0365405323333333,0.00669771033333333,-0.0335014648666667,0.0159933858,-0.0980081528666667,-0.0362041643333333,-0.015628849,0.0157506416666667,0.000471648333333331,-0.0680449023333333,0.000657679000000001,0.0188698223333333,0.008085121,-0.0672246365333333,0.0061744908,-0.000167183200000004,0.024736059,-0.0727026484,-0.0634509917333333,-0.0028908364,0.00812430433333333,0.00964181366666666,-0.0546801043333333,-0.0490879563333333,-0.0248492063333333,-0.0922709823333333,-0.122184383666667,-0.174718099666667,-0.079991879,0.0314236103333333,0.0831653503333333,-0.0420101083333333,-0.129860878333333,2627,"DG_s13",5.234,6.031,7.219,7.219,10,10,8,8,1.188,"Left",8,8,0,0,0,0,0,0,0,0,"10-10",2,2,10,8,10,8
"51",3,"LIN2-LIN3",-0.162704907333333,-0.159233443333333,-0.145267226666667,-0.0722791066666667,-0.11138732,-0.0494423013333333,-0.093993308,-0.0665419466666667,0.0657413466666667,0.270372193333333,0.367829628,0.300920294666667,0.131917801333333,0.104415252133333,-0.0113408018666667,-0.128188028533333,-0.204456564,-0.217025848,-0.176197968,-0.186907592,-0.201997000666667,-0.188447534,-0.097302452,-0.0326333846666667,0.015301968,-0.0339472093333333,-0.04080611,0.0262423773333333,-0.0165795006666667,0.00133962599999998,-0.0586106351333333,-0.0130420918,-0.0795994918,-0.0523371206666667,-0.180017494666667,-0.225656898666667,-0.243308192666667,2627,"DG_s13",5.234,6.031,7.219,7.219,10,10,8,8,1.188,"Left",8,8,0,0,0,0,0,0,0,0,"10-10",2,2,10,8,10,8
"52",3,"RIN2-RIN3",0.0949458555,-0.0906407958333333,-0.0885439765,-0.0159370471666667,0.148328692166667,0.2382864455,0.196652512833333,0.0624530361666667,-0.0289822711666667,-0.0886868911666667,-0.0511765398333333,-0.0873672165,-0.0634012498333333,0.0447998935,0.136425434166667,0.158584468166667,0.0224794541666667,-0.0728791331666667,-0.1380456925,-0.1305485005,-0.0575096705,-0.0633997838333333,-0.00431531983333333,-0.0280124983,0.0567098077,0.0629909032333333,0.0306197817,0.0316056130333333,0.0538124328333333,0.0670088328333333,0.0903858348333333,-0.00786367476666666,-0.0315834267666667,-0.0804757627666667,-0.1641739105,-0.156342481166667,-0.2610476845,2627,"DG_s13",5.234,6.031,7.219,7.219,10,10,8,8,1.188,"Left",8,8,0,0,0,0,0,0,0,0,"10-10",2,2,10,8,10,8
"53",3,"RTI1-RTI2",-0.05863814447,-0.07081621127,-0.235734340536667,-0.310726259203333,-0.268364313203333,-0.135031191936667,-0.06882833327,-0.07892444727,-0.155443943936667,-0.0699867639366667,-0.108779074603333,-0.117189975936667,-0.290775893203333,-0.23978126387,-0.0977191732033333,-0.132045750603333,-0.0801728306033333,-0.0177655706033333,0.05291085673,-0.02795251327,-0.262691439936667,-0.166598345936667,-0.150445982603333,-0.0586285299366667,-0.183405383936667,-0.144505744603333,-0.13759718927,-0.0751382446033333,0.00497870273000001,0.0795137213966667,0.0676249345233333,-0.00355005881000001,-0.178402147476667,-0.189104579936667,-0.272940400603333,-0.241094423936667,-0.286106245936667,2627,"DG_s13",5.234,6.031,7.219,7.219,10,10,8,8,1.188,"Left",8,8,0,0,0,0,0,0,0,0,"10-10",2,2,10,8,10,8
"54",3,"RIN6-RIN7",-0.3570796765,-0.272032167166667,-0.1279015025,-0.214112211166667,-0.245437153166667,-0.329987107833333,-0.3017405305,-0.234223709833333,-0.178991159166667,-0.0495908785,-0.0404668131666667,0.0011180995,-0.0831915651666666,-0.129058711833333,-0.193978813166667,-0.242112471166667,-0.0833135778333333,-0.0149988965,0.0233210641666667,-0.0776090752333333,-0.192463506566667,-0.196628746566667,-0.273568353833333,-0.2883875425,-0.301505513833333,-0.150317433833333,-0.114355947166667,-0.0451597765,-0.150296549833333,-0.0723617698333333,-0.136502947166667,-0.162955443833333,-0.2397693065,-0.2040178385,-0.1355574585,0.0964408375,0.193491576166667,2627,"DG_s13",5.234,6.031,7.219,7.219,10,10,8,8,1.188,"Left",8,8,0,0,0,0,0,0,0,0,"10-10",2,2,10,8,10,8
"55",3,"RTI3-RTI4",0.039663873,0.154907652333333,0.2023362706,0.204766851933333,-0.00997296806666666,-0.0991252436666667,-0.114370189,-0.0467834376666667,0.047578961,0.171239199,0.134763886333333,0.103833427666667,0.0481604936666667,0.116405868333333,0.177760711666667,0.214184465,0.113392935666667,0.031382419,-0.0344839776666667,0.031748449,0.103225797666667,0.0580052433333333,0.200193152666667,0.209243497333333,0.468484268333333,0.272191533666667,0.266803880333333,0.128638393666667,0.0867503216666667,0.0466592463333333,0.0164589503333333,0.0457249836666667,0.0347929483333333,0.0330276156666667,0.072302389,0.0233378596666667,-0.0755177583333333,2627,"DG_s13",5.234,6.031,7.219,7.219,10,10,8,8,1.188,"Left",8,8,0,0,0,0,0,0,0,0,"10-10",2,2,10,8,10,8
"56",3,"RIN9-RIN10",-0.0406778058333333,-0.0890923085,-0.1177533765,-0.1030386105,-0.107155563166667,0.1608365915,0.1230189255,0.0362177955,-0.0546723391666667,-0.0280351525,-0.0499169358333333,-0.1762298245,-0.0445687845,0.0240894328333333,0.0634929055,0.0870238655,0.257462556833333,0.391236646166667,0.261854504166667,0.158167115966667,-0.00788355536666666,-0.0187928800333333,-0.0743619131666667,-0.0416659485,0.0252442981666667,0.1143867995,0.2183679595,0.491174106833333,0.722780746833333,0.875300486833333,0.940278006166667,0.825986486166667,0.620646526166667,0.598445126166667,0.421467338166667,0.664625164833333,0.466012638166667,2627,"DG_s13",5.234,6.031,7.219,7.219,10,10,8,8,1.188,"Left",8,8,0,0,0,0,0,0,0,0,"10-10",2,2,10,8,10,8
"57",3,"RIN3-RIN4",0.00674412208333333,-0.102800965916667,-0.0649005105833333,-0.15850482725,-0.130662604583333,-0.0892393925833334,-0.104151282583333,0.01180778275,-0.000911629250000018,-0.0307113765833333,-0.16950794725,-0.10011379125,-0.0788858345833333,0.08652124675,-0.0554729025833333,-0.15730692525,-0.300563733916667,-0.290700101916667,-0.225452951916667,-0.159813969916667,-0.170854700583333,-0.16287610125,-0.05203124525,0.152111406083333,0.18857615635,-0.08479116365,-0.300403120316667,-0.31547343325,-0.219132019916667,-0.0715953579166667,-0.0810776645833333,-0.14715431125,-0.256000195916667,-0.218124582583333,-0.175466612583333,-0.184026411916667,-0.199573950583333,2627,"DG_s13",5.234,6.031,7.219,7.219,10,10,8,8,1.188,"Left",8,8,0,0,0,0,0,0,0,0,"10-10",2,2,10,8,10,8
"58",3,"LIN4-LIN5",0.112842492866667,0.0396741540666667,-0.1634272986,-0.2007771438,-0.102658189666667,0.014547285,0.136796888333333,0.0789740123333333,0.0678100076666667,0.0648390363333333,0.0904110836666667,0.061855189,0.002184717,-0.0649117903333333,-0.109777979666667,-0.144717760333333,-0.0649745136666667,-0.0491125536666667,-0.109221399666667,-0.153072600266667,-0.211282344266667,-0.135176154266667,-0.122651442333333,-0.0650892736666667,-0.121049510333333,-0.154912354333333,-0.143270252333333,-0.117025045,-0.00731215833333333,0.00611232233333334,-0.046431837,-0.169693244333333,-0.210214078333333,-0.166827611,-0.171519325,-0.185582714333333,-0.116371563,2627,"DG_s13",5.234,6.031,7.219,7.219,10,10,8,8,1.188,"Left",8,8,0,0,0,0,0,0,0,0,"10-10",2,2,10,8,10,8
"59",3,"LTI9-LTI10",-0.100370966666667,-0.241186773333333,-0.276606590666667,-0.258492334133333,-0.282251587466667,-0.286283310266667,-0.269418519686667,-0.141167253686667,-0.149808009553333,-0.161704756666667,-0.219727532666667,-0.252242636666667,-0.189828273333333,-0.108059053333333,0.0855365733333333,0.02208633,0.170354153333333,0.150062113333333,0.238147497333333,0.0674709173333334,0.0577825506666667,0.046026832,0.0734411486666667,0.0654078837333333,0.0611795104,-0.00564326033333333,-0.0393773860666667,-0.067852886,0.0666923680666667,0.131844638733333,0.136995086,0.00624993266666668,-0.111223873333333,-0.0836290933333333,-0.120197033333333,-0.0992413973333333,-0.1481425944,2627,"DG_s13",5.234,6.031,7.219,7.219,10,10,8,8,1.188,"Left",8,8,0,0,0,0,0,0,0,0,"10-10",2,2,10,8,10,8
"60",3,"LTI1-LTI2",0.0369201645833333,-0.05967568875,-0.08868704475,-0.08010089935,-0.0529757366833333,-0.04075579335,-0.0315206500833333,-0.0205408434166667,0.00826241925,0.00153810725,0.109292624583333,0.20316590425,0.169148145583333,0.0882386989166667,0.0334216649833333,0.0192326189833333,0.0802427109833333,0.0449233347833333,0.18528912145,0.13104996945,0.05493014725,0.00961414191666667,0.0295139819166667,0.0702739225833333,0.106473479916667,0.192695146583333,0.188486837183333,0.15528631185,-0.00898032908333334,0.04394046045,0.06468622845,0.25369471605,0.207189628583333,0.145182375916667,0.03784787725,0.04578341965,0.0271694003166667,2627,"DG_s13",5.234,6.031,7.219,7.219,10,10,8,8,1.188,"Left",8,8,0,0,0,0,0,0,0,0,"10-10",2,2,10,8,10,8
"61",4,"LIN1-LIN2",-0.0793596577833333,-0.0172723951166667,-0.00674376311666666,-0.0266230057833333,-0.02529175245,0.0145406942166667,0.02526880555,0.0156313408833333,-0.149126969116667,-0.13737621245,-0.178086623116667,-0.0478537797833333,-0.0284467951166667,0.02479958555,0.03398958555,0.0743408442166667,0.0123118788833333,-0.10489645445,-0.143955041516667,-0.135653946383333,-0.07931316705,-0.132309193316667,-0.149388987383333,-0.255403104716667,-0.0746617513833333,-0.0219130577833333,0.133809008216667,-0.05601975245,-0.15329468045,-0.207542715116667,-0.147085741116667,0.01082887555,0.0194138228833333,-0.0129805637833333,0.108998686216667,0.107414892216667,0.160405738216667,2628,"DG_s13",8.219,9.015,10.422,10.422,28,4,10,10,1.407,"Left",28,4,24,24,0,0,-24,0,-24,24,"Advent",18,-6,28,10,4,10
"62",4,"LTI9-LTI10",-0.0502479284666667,-0.135949396686667,-0.08784693872,-0.0552668533866667,-0.0690731205,0.0587483908333333,0.00509190416666666,0.0776368141666667,0.0557461141666667,0.0803904668333333,0.0844841948333333,0.113332772166667,0.0610158128333333,0.0347607735,-0.135832963833333,-0.1103479761,-0.164620904766667,-0.105770685433333,-0.183336235166667,-0.1830914545,-0.138299683833333,-0.117213429166667,-0.0781009098333333,-0.0613491931666667,-0.1095129385,-0.0997269385,-0.1109172941,0.0588382385666667,0.1030876519,0.0829663995,-0.00870984583333334,-0.1344263925,-0.207427795166667,-0.257915249833333,-0.215081207833333,-0.219166241833333,-0.185431115166667,2628,"DG_s13",8.219,9.015,10.422,10.422,28,4,10,10,1.407,"Left",28,4,24,24,0,0,-24,0,-24,24,"Advent",18,-6,28,10,4,10
"63",4,"RIN4-RIN5",0.106261690233333,0.0669108948333333,0.0383668921666667,0.136940166166667,0.187065988166667,0.212917708166667,0.1108621235,0.0992138435,0.1117211935,-0.0130359078333333,0.0165130555,-0.0186955565,0.0844121568333333,0.0818361275,0.0712277381666667,0.184428818166667,0.108748014766667,0.0956161353,-0.00614585470000001,0.141687268033333,0.207649722833333,0.2874399475,0.268771183433333,0.168292076766667,-0.00025577563333333,-0.0264774895666667,0.0253527311,0.0705586441666667,-0.0147141578333333,0.0581045175,0.0493110155,0.0544421448333333,0.0269937515,0.211768464833333,0.2058450955,0.1750486575,-0.0330284625,2628,"DG_s13",8.219,9.015,10.422,10.422,28,4,10,10,1.407,"Left",28,4,24,24,0,0,-24,0,-24,24,"Advent",18,-6,28,10,4,10
"64",4,"RTI1-RTI2",-0.195948457583333,-0.156074859583333,-0.161009359716667,-0.203272143916667,-0.207746271916667,-0.0901813125833333,0.0191746020833333,0.13626137875,0.129077839416667,0.171048371416667,0.0760675600833333,0.00407039341666665,-0.112087278583333,-0.10975064325,-0.07138924525,0.10479878075,0.227756981416667,0.31682733675,0.147028363416667,-0.00290159458333333,-0.155920607916667,-0.0961450885833333,0.02879054275,-0.00815823058333334,-0.08532078325,-0.14580957325,-0.22814109325,-0.0573594805833333,-0.129905196583333,0.212870250083333,0.02611057675,0.0623245740833333,-0.164775406583333,-0.137617469916667,-0.250621707916667,-0.324642040583333,-0.352110036583333,2628,"DG_s13",8.219,9.015,10.422,10.422,28,4,10,10,1.407,"Left",28,4,24,24,0,0,-24,0,-24,24,"Advent",18,-6,28,10,4,10
"65",4,"RIN9-RIN10",-0.174628098833333,-0.136869810833333,-0.1965983075,-0.186537354166667,-0.243693615766667,-0.179794652433333,-0.2159622951,-0.155866432833333,-0.223470507433333,-0.223203151433333,-0.193898011433333,-0.234285598833333,-0.230797458833333,-0.2312323055,-0.206567396166667,-0.1415936695,-0.2154605995,-0.253581800033333,-0.310611253366667,-0.1875475979,-0.222267903366667,-0.355787996033333,-0.325227590166667,-0.306093736833333,-0.283783448833333,-0.4590827655,-0.459162708833333,-0.483935310833333,-0.480013298833333,-0.395590306833333,-0.3110897415,-0.2614290815,-0.365368210833333,-0.312892389566667,-0.338710487566667,-0.1052734609,-0.111987180833333,2628,"DG_s13",8.219,9.015,10.422,10.422,28,4,10,10,1.407,"Left",28,4,24,24,0,0,-24,0,-24,24,"Advent",18,-6,28,10,4,10
"66",4,"RIN5-RIN6",-0.182514168166667,-0.1206830855,-0.0325928968333333,0.0494531302333333,0.165434424233333,0.154820232233333,0.0946943271666667,-0.00180937283333333,-0.0715755308333333,-0.1212369715,-0.0924957748333333,0.0043582865,-0.0165765275,-0.1310219475,-0.240170278833333,-0.0948499708333333,-0.107207584166667,-0.0733830128333333,-0.1003943855,0.00286522316666667,0.0366313235666667,0.176627127633333,0.153494251633333,0.2092532779,0.0260532858333333,0.0832167518333333,0.0309113038333333,0.0823025078333333,0.0902770158333333,0.133218257166667,0.0535275591666667,0.0438776525,0.0678914191666667,0.300672519166667,0.232989865833333,0.124295369033333,-0.167216110966667,2628,"DG_s13",8.219,9.015,10.422,10.422,28,4,10,10,1.407,"Left",28,4,24,24,0,0,-24,0,-24,24,"Advent",18,-6,28,10,4,10
"67",4,"RTI2-RTI3",0.176527451566667,0.144629131833333,0.0789391678333333,0.0196019091666667,0.0729402331666667,0.265612705166667,0.414112571833333,0.4168948105,0.300184747833333,0.270147635833333,0.3505981865,0.472669653166667,0.395338743166667,0.3474018765,0.3419081925,0.6245457145,0.5118240765,0.563600689833333,0.398439197166667,0.4533797245,0.240308543833333,0.1723862445,0.124972513166667,0.1818308975,0.2307161495,0.2882594495,0.358444372166667,0.4371314055,0.392866969566667,0.341357336566667,0.271356996566667,0.191407954033333,0.102067986033333,0.105013866033333,0.140387935166667,0.130689589833333,0.0582108765,2628,"DG_s13",8.219,9.015,10.422,10.422,28,4,10,10,1.407,"Left",28,4,24,24,0,0,-24,0,-24,24,"Advent",18,-6,28,10,4,10
"68",4,"RTI9-RTI10",0.0479050592166667,0.04039822655,-0.00402885678333334,0.0926557832166667,0.115581635883333,0.105677549216667,0.0232797312166667,0.0939429952166667,0.200290073883333,0.287001191883333,0.21236185255,0.225952763216667,0.22336850881,0.157526517476667,0.213897248143333,0.105718593216667,0.159448259883333,0.10612523415,0.147038418816667,0.0939769968166667,0.08316088455,0.103146699216667,0.165273259883333,0.117002299816667,0.299451549816667,0.267600862483333,0.36943492055,0.263358775216667,0.34073364855,0.27311222855,0.22168332455,0.19291233455,0.185452427416667,0.33179581675,0.331018973416667,0.31089944855,0.0931304452166667,2628,"DG_s13",8.219,9.015,10.422,10.422,28,4,10,10,1.407,"Left",28,4,24,24,0,0,-24,0,-24,24,"Advent",18,-6,28,10,4,10
"69",4,"RIN2-RIN3",-0.1970668895,-0.184592652833333,-0.1753502815,-0.0893456881666667,0.0333217951666667,0.0763204345,0.0226532871666667,-0.0660658013666667,-0.1880815947,-0.2136819527,-0.274776610833333,-0.247158640166667,-0.175786674833333,-0.1432954415,-0.175022682166667,-0.236368998166667,-0.2025682375,-0.1229629035,-0.0853354384333333,-0.101372352966667,-0.129692023966667,-0.0762804977,0.0992965228333333,0.176861037166667,0.0281430311666667,-0.111667782166667,-0.108921748833333,-0.0124694795,-0.0355790561666667,-0.100758188166667,-0.0183896468333333,0.0360891288333333,0.0636732141666667,0.0354394221666667,-0.0425685549,-0.132729588233333,-0.2284418769,2628,"DG_s13",8.219,9.015,10.422,10.422,28,4,10,10,1.407,"Left",28,4,24,24,0,0,-24,0,-24,24,"Advent",18,-6,28,10,4,10
"70",4,"LIN9-LIN10",-0.0669095076666667,0.128064233933333,0.176972028866667,0.1271039862,0.0269581612666667,-0.0442378796666667,0.166721123,0.332576163666667,0.338297160333333,0.005758827,-0.173508453,-0.2017981452,-0.101069950533333,-0.0723114085333333,-0.0289415203333333,0.00213693240000001,-0.0596924896,-0.0692579622666667,-0.0700514363333333,0.032650249,0.271253167666667,0.332135974333333,0.339862347,0.119119057,0.0642389916666667,0.074459187,0.0810157363333333,0.134380288333333,0.0958640696666667,0.0935448057333333,-0.0183365762666667,-0.1157947376,-0.198413905666667,-0.244076742333333,-0.0865980603333333,0.0287987056666667,0.019662367,2628,"DG_s13",8.219,9.015,10.422,10.422,28,4,10,10,1.407,"Left",28,4,24,24,0,0,-24,0,-24,24,"Advent",18,-6,28,10,4,10
"71",4,"RIN6-RIN7",-0.201317063833333,-0.0815420591666667,-0.0260201591666667,0.0947352648333333,0.0993138381666667,0.0838437448333333,0.145844860833333,0.0398781728333333,0.1151209867,0.00635201116666667,0.1107001525,0.173850442633333,0.1718476455,0.119768880166667,0.0333740655,-0.0306401378333333,-0.109318965833333,-0.0358373845,0.1870770715,0.5812192515,0.5516353695,0.455176982833333,0.1948531095,0.2866447715,0.406110958166667,0.520267924833333,0.3170913115,0.190747124166667,0.0664471908333333,0.1806620155,0.2231399695,0.161726520166667,0.0961500521666667,0.182751672166667,0.1622951835,0.168471440566667,-0.0483128805,2628,"DG_s13",8.219,9.015,10.422,10.422,28,4,10,10,1.407,"Left",28,4,24,24,0,0,-24,0,-24,24,"Advent",18,-6,28,10,4,10
"72",4,"LIN3-LIN4",0.160505277,0.0669217568,0.0767646114666667,0.0179298648,0.190304640333333,0.0708923896666667,0.0955463806666667,-0.103833607333333,-0.168364623333333,-0.169921960333333,-0.119468558333333,-0.061451971,-0.0381339236666667,-0.0550842676666667,0.073546349,0.283166209,0.325108256133333,0.281937113466667,0.0810076401333333,0.0329533056666667,-0.00244661566666667,0.043281591,0.0371701683333333,-0.0217191256666667,-0.057750525,-0.0228708916666667,-0.0189707743333333,-0.092955677,-0.0618513276666667,-0.0304643003333333,0.0238885672666667,-0.0302971654,0.0612441506,0.0602370916666667,0.0429250603333333,-0.059710539,-0.0150660056666667,2628,"DG_s13",8.219,9.015,10.422,10.422,28,4,10,10,1.407,"Left",28,4,24,24,0,0,-24,0,-24,24,"Advent",18,-6,28,10,4,10
"73",4,"LTI1-LTI2",0.0756166718333333,0.0805277631666667,0.0578051644333333,0.0502982764333333,0.1757592203,0.2861268477,0.2748385037,0.161450629833333,0.168931883833333,0.2085858609,0.221065956233333,0.2041247569,0.151025468621333,0.0947477946213333,0.070772003288,-0.0167775668333333,-0.00783687416666666,-0.0679235288333333,0.00565925583333333,0.0529488266333333,0.0722406999666667,0.1988503753,0.180081121766667,0.2161425131,0.111546646433333,0.257798633833333,0.394134175833333,0.4924658425,0.393036087853333,0.29599239452,0.16370147352,0.0733885941666667,-0.0118097692333333,-0.0435311309,-0.0257778602333333,-0.0118451501666667,0.00468536116666667,2628,"DG_s13",8.219,9.015,10.422,10.422,28,4,10,10,1.407,"Left",28,4,24,24,0,0,-24,0,-24,24,"Advent",18,-6,28,10,4,10
"74",4,"LTI2-LTI3",-0.124573513,-0.138743241,-0.179054555,-0.0960281833333333,0.1055845752,0.127161381866667,0.121496876066667,-0.0501591698,-0.0512052538,-0.133613852,-0.100295448666667,-0.005193306,0.122572758,0.0867928553333333,0.0544008833333333,-0.116792866,-0.0714930606666667,-0.160924057333333,-0.0636707506666667,-0.0590625626666667,0.0658288573333333,0.127031504,0.123182494666667,0.05945852,0.0155756066666667,0.136737162666667,0.243852910666667,0.328337583333333,0.172119479266667,0.136604005933333,0.0498774899333333,0.073646854,-0.041235086,-0.161201896,-0.145019684,-0.086938114,0.0250243306666667,2628,"DG_s13",8.219,9.015,10.422,10.422,28,4,10,10,1.407,"Left",28,4,24,24,0,0,-24,0,-24,24,"Advent",18,-6,28,10,4,10
"75",4,"RTI3-RTI4",0.0635700644833333,0.102272833083333,0.109118153083333,0.124153374416667,0.0823565682166667,0.116762510883333,0.170441034216667,0.248856948483333,0.266814090483333,0.19737729515,0.204683492483333,0.213018303816667,0.325983496483333,0.26596504515,0.252876106483333,0.182294902483333,0.27010492715,0.368240249816667,0.262601956483333,0.237418713816667,0.159731857816667,0.207379424483333,0.0935718564833333,0.0884976084833333,0.132069139816667,0.179762789816667,0.11809222715,0.157111086483333,0.100744579816667,0.0988446038166667,0.05430485315,0.0490281504833333,0.07443045515,0.116786772483333,0.14949722515,0.132602256276667,-0.0288216570566667,2628,"DG_s13",8.219,9.015,10.422,10.422,28,4,10,10,1.407,"Left",28,4,24,24,0,0,-24,0,-24,24,"Advent",18,-6,28,10,4,10
"76",4,"LAM4-LAM5",-0.0586413013666667,-0.112061264366667,-0.147408822833333,-0.1705634895,-0.1950602895,-0.183206386166667,-0.0610065421666667,0.0326773798333333,0.186555775833333,0.331783931833333,0.992889343166667,1.21970880983333,1.18681148183333,0.445874315166667,0.0474295351666667,-0.119982654166667,-0.0864962708333333,-0.104088522166667,-0.132461280833333,-0.0912313068333333,0.0249906051666667,0.0481413191666667,0.0422567485,0.0741238411666667,0.1722195185,0.235570899833333,0.330141393166667,0.375850477833333,0.286481882153333,0.0908760494866667,-0.115220150513333,-0.1633607355,-0.102067784833333,-0.0556411115,0.0341440065,0.0595958685,0.144235121166667,2628,"DG_s13",8.219,9.015,10.422,10.422,28,4,10,10,1.407,"Left",28,4,24,24,0,0,-24,0,-24,24,"Advent",18,-6,28,10,4,10
"77",4,"RIN3-RIN4",-0.0186600321666667,-0.0488894255,0.1045290805,0.2161803823,0.181959510966667,0.0186949183,-0.112872812366667,-0.119383240366667,-0.0342632817,-0.0531981177,-0.0265612583666667,-0.0976472923666667,0.0643083409666667,0.130780257633333,0.2131999063,0.0606524796333333,-0.1482104237,-0.0671742663666667,-0.0136017390333333,0.0150084943,-0.105697385033333,-0.1162187597,0.0569118203,0.2763521023,0.400010062966667,0.2757303343,-0.0241303990333333,-0.0853461657,0.0021508943,0.142213378966667,0.0609851103,0.0748056409666667,-0.0422306990333333,0.00785319896666666,0.00244452563333333,0.049621652476,0.0313075231426667,2628,"DG_s13",8.219,9.015,10.422,10.422,28,4,10,10,1.407,"Left",28,4,24,24,0,0,-24,0,-24,24,"Advent",18,-6,28,10,4,10
"78",4,"LIN2-LIN3",-0.18115414975,-0.15889030775,-0.09183503975,-0.15032672775,-0.206433620416667,-0.31817996175,-0.297416191083333,-0.329721455083333,-0.347927092416667,-0.349277612683333,-0.28708629755,-0.113568324216667,-0.193606813283333,-0.29309163375,-0.414182135083333,-0.16248540975,-0.0505153230833333,-0.0541117210833333,-0.131083195816667,-0.0907173558166667,-0.166667389816667,-0.17231447375,-0.269306007083333,-0.132627627083333,-0.199681316416667,-0.114429143083333,-0.0935847284166667,-0.0835932364166667,-0.21701188975,-0.305881693083333,-0.369274194416667,-0.299354269083333,-0.158116807083333,-0.0542253644166667,-0.0116139310833333,-0.110809127416667,-0.09139583075,2628,"DG_s13",8.219,9.015,10.422,10.422,28,4,10,10,1.407,"Left",28,4,24,24,0,0,-24,0,-24,24,"Advent",18,-6,28,10,4,10
"79",4,"RIN1-RIN2",-0.13055610315,-0.00844321515,0.10121122485,0.0688677747833333,-0.0698867078833333,-0.00730850121666667,0.0122600167833333,0.06247581085,-0.0849269558166667,-0.21208063515,-0.15221412255,-0.0337437958833333,0.06579659545,0.04001256545,-0.00506690788333333,0.05223188145,-0.04537899855,0.0481024547833333,-0.0218253112166667,0.0383975281166667,0.00297875345,0.120270448716667,0.18938992205,0.15386045005,0.08053601345,0.00843466545,0.07792665945,0.162351486783333,0.125761350116667,0.0258312981166667,-0.0328125292166667,0.00129684545,-0.0697213432166667,-0.19963233655,-0.199903041216667,-0.163220679883333,-0.0604475914166667,2628,"DG_s13",8.219,9.015,10.422,10.422,28,4,10,10,1.407,"Left",28,4,24,24,0,0,-24,0,-24,24,"Advent",18,-6,28,10,4,10
"80",4,"LIN4-LIN5",0.104639346333333,0.0927113103333333,0.038391081,-0.0216081002533333,0.0674637964133333,0.10141288708,0.100564175,-0.0259210096666667,-0.183087001666667,-0.138038333,-0.243272148333333,-0.235103859,-0.251887638333333,-0.137302234333333,0.0225627883333333,0.0847893242666667,0.0837948362666667,-0.0424686437333333,-0.0692040783333333,-0.071062801,-0.061191269,-0.0177729593333333,-0.0400418866666667,-0.113172595333333,-0.0931159323333333,-0.091246905,0.00477135966666667,-0.0642574436666667,-0.0144114043333333,-0.0565886763333333,-0.0341533263333333,-0.175659859,-0.128469219,-0.136657972333333,-0.0396604923333333,-0.0926456328,-0.184907892133333,2628,"DG_s13",8.219,9.015,10.422,10.422,28,4,10,10,1.407,"Left",28,4,24,24,0,0,-24,0,-24,24,"Advent",18,-6,28,10,4,10
"81",5,"RIN1-RIN2",-0.193484336,-0.138191519733333,0.0911188702666667,0.0408843302666667,0.0197769266666667,-0.122515309333333,-0.12198688146,-0.132087098793333,-0.153524088126667,-0.025799796,0.0150932586666667,-0.065247036,-0.153340986,-0.26710398,-0.177185406,-0.220339745733333,-0.1400408844,-0.25759371042,-0.244909240686667,-0.12879221402,0.044419378,-0.0295411353333333,-0.0852010233333333,-0.160105682666667,0.019989808,-0.020554832,-0.0556863602866667,-0.201866310953333,-0.218530464286667,-0.25683919,-0.184535944666667,-0.0960211473333333,0.0591035926666667,0.030844932,-0.039006914,-0.0827780806666667,-0.0471788853333333,2629,"DG_s13",11.422,12.219,13.297,13.297,22,6,10,10,1.078,"Right",22,6,16,16,0,0,-16,0,-16,16,"Advent",12,-4,10,22,10,6
"82",5,"LTI9-LTI10",-0.0973600106166667,-0.175318275283333,-0.10070131775,-0.25131312575,-0.05884386575,-0.0230367192833333,-0.02202775395,-0.0998124068833333,-0.02531576005,-0.0268999053833333,-0.13689705045,-0.133345147283333,-0.128341787283333,-0.00122798061666667,-0.0839101232833333,-0.0158526142833333,-0.115718894283333,-0.0353276276166667,-0.0673145752833333,-0.05105627995,-0.116929422416667,-0.0815155684166667,-0.0547388692833333,-0.0683191594833333,0.0739904531833333,0.170189988716667,0.146055276716667,-0.0955519852833333,-0.23986836195,-0.222320935283333,-0.16060715195,-0.107362069283333,0.000648500716666667,-0.0549791046166667,0.0162743727166667,-0.02100284395,0.157138314716667,2629,"DG_s13",11.422,12.219,13.297,13.297,22,6,10,10,1.078,"Right",22,6,16,16,0,0,-16,0,-16,16,"Advent",12,-4,10,22,10,6
"83",5,"RIN3-RIN4",-0.2759937945,-0.3549473405,-0.247608811166667,-0.242646253766667,-0.2291070751,-0.149023301766667,-0.0528948467666667,-0.00886625076666664,-0.0625942441,-0.121346332966667,-0.0830441676333333,-0.215596650966667,-0.169896911966667,-0.309620398633333,-0.2802562153,-0.2640789703,-0.241604353633333,-0.3152677163,-0.4718488763,-0.4912239783,-0.5589784883,-0.4557901883,-0.381559601633333,-0.241851675633333,-0.2912272223,-0.312322103633333,-0.4256687663,-0.417109269633333,-0.433128358966667,-0.436189062966667,-0.4371027767,-0.3742725847,-0.272141861366667,-0.336014607633333,-0.473653190966667,-0.4700125003,-0.371712584966667,2629,"DG_s13",11.422,12.219,13.297,13.297,22,6,10,10,1.078,"Right",22,6,16,16,0,0,-16,0,-16,16,"Advent",12,-4,10,22,10,6
"84",5,"LIN4-LIN5",0.14276442025,0.174059126916667,0.0696887955833333,0.10037985425,0.00310652758333334,0.0424144943166667,0.0285777243166667,0.173106798316667,0.12087045825,0.000336230783333336,-0.176169213883333,-0.124900743883333,-0.0698087270833333,0.0460696635833333,0.132261790396667,0.139961598396667,0.14493103173,0.0595536909166667,-0.00993644308333334,-0.0774989664166667,-0.0589581684166667,0.0376548409166667,0.138593337583333,0.12212815225,0.168087645583333,0.08197886225,0.124070848316667,-0.113308265016667,-0.180315723683333,-0.13103524775,0.0577123789166667,0.263036380916667,0.184516619583333,0.0541455447166667,-0.155328057283333,-0.157830355283333,-0.204008567083333,2629,"DG_s13",11.422,12.219,13.297,13.297,22,6,10,10,1.078,"Right",22,6,16,16,0,0,-16,0,-16,16,"Advent",12,-4,10,22,10,6
"85",5,"RTI1-RTI2",-0.1910968795,-0.101447116833333,-0.0654205581666667,0.0134423471666667,-0.1027066615,-0.182247000166667,-0.2413206855,-0.2091570675,-0.169073002166667,-0.0452816035,-0.0312887501666667,-0.0315124841666667,-0.159892884166667,-0.142024036166667,0.0501087965,0.0351395165,-0.0612300228333333,-0.328046900166667,-0.379502134166667,-0.240546130166667,-0.1152751635,0.110221117166667,0.269108239833333,0.263388013166667,0.132438553166667,-0.0448953448333333,-0.0193817715,-0.118015616166667,-0.159497836166667,-0.145300742833333,-0.0290769181666667,-0.0287146535,-0.147775006833333,-0.2312984175,-0.287458750833333,-0.220303494833333,-0.0707893575,2629,"DG_s13",11.422,12.219,13.297,13.297,22,6,10,10,1.078,"Right",22,6,16,16,0,0,-16,0,-16,16,"Advent",12,-4,10,22,10,6
"86",5,"RTI3-RTI4",0.223227510666667,0.171247525466667,0.174916118133333,0.1342907128,0.199477504666667,0.301252192666667,0.205336976733333,0.214871774733333,0.0644730480666667,0.128706545333333,0.0887383386666667,0.205069152,0.274421317333333,0.231979699333333,0.160154893333333,0.038567272,0.0772939633333333,0.240783762666667,0.363963966666667,0.40654298,0.324999171333333,0.205405393333333,0.141689358666667,0.107887852,0.21715121,0.152324964666667,0.0487420746666667,-0.0595086586666667,-0.0225329859333333,0.0475600260666667,-0.0360197119333333,0.0277027813333333,-0.0107601838666667,0.1542374908,0.0412007888,-0.014791498,-0.0926395546666667,2629,"DG_s13",11.422,12.219,13.297,13.297,22,6,10,10,1.078,"Right",22,6,16,16,0,0,-16,0,-16,16,"Advent",12,-4,10,22,10,6
"87",5,"RTI9-RTI10",-0.107061141166667,-0.2462689725,-0.159723061166667,-0.160114849833333,-0.210442085166667,-0.121831782433333,-0.1728308431,-0.110356549766667,-0.285974501833333,-0.0891454697666667,-0.0826591497666667,-0.0771545577666667,-0.2245196365,-0.1884569645,-0.146516359166667,-0.162598131833333,-0.105821083833333,-0.0339126385,0.0712338541666666,0.0427159297,-0.0084625103,-0.108949092966667,-0.229850025166667,-0.1775484135,-0.00982743083333334,0.1220096103,0.0343467846333333,-0.0278761487,-0.121215275966667,-0.1164933373,-0.241281278633333,-0.2579063489,-0.1558921229,-0.0660479349,0.00690065216666666,-0.0649461829,-0.0365999895666667,2629,"DG_s13",11.422,12.219,13.297,13.297,22,6,10,10,1.078,"Right",22,6,16,16,0,0,-16,0,-16,16,"Advent",12,-4,10,22,10,6
"88",5,"LIN2-LIN3",0.194600213183333,0.199801536516667,0.0658537831833333,0.0437570125166667,0.01973388025,0.131688427676667,0.14538342101,0.0911738152766667,-0.02652459215,-0.0852748348166667,-0.00977375681666666,0.170521496516667,0.102518669183333,0.0678479905166667,0.00479013051666667,0.0954437051833333,0.222130008516667,0.209278688516667,0.21248631785,0.13486119785,0.200528064516667,0.155824277183333,0.184073182516667,0.16808979665,0.196050116316667,0.17345727965,0.11895557085,0.137226734516667,0.11707183385,0.0995397225166667,0.15887241785,0.160780901183333,0.18210086385,0.181512308516667,0.276798641183333,0.22136412785,0.186660113183333,2629,"DG_s13",11.422,12.219,13.297,13.297,22,6,10,10,1.078,"Right",22,6,16,16,0,0,-16,0,-16,16,"Advent",12,-4,10,22,10,6
"89",5,"LTI1-LTI2",0.0535414153333333,-0.028938036,-0.0295826223333333,-0.104016531666667,-0.136311799666667,-0.102578911,0.0759992783333333,0.138153540333333,0.0278552563333333,-0.162603743666667,-0.269352003666667,-0.197082538333333,-0.128298677666667,0.0422370823333333,0.0307577836666667,0.028873223,-0.00400844366666667,-0.0495453286,0.0400766447333333,-0.00548447771333333,0.0126860745533333,-0.05949588478,-0.0977176703333333,-0.0362576836666667,-0.153253991,-0.155037143,-0.124238110333333,-0.0342029236666667,0.018985233,-0.067247513,-0.0602542663333333,-0.0620723256666667,-0.105904867266667,-0.0292125179333333,0.0668987114,0.137716833,0.120103103666667,2629,"DG_s13",11.422,12.219,13.297,13.297,22,6,10,10,1.078,"Right",22,6,16,16,0,0,-16,0,-16,16,"Advent",12,-4,10,22,10,6
"90",5,"LIN3-LIN4",0.0223985815,-0.0762633333666667,-0.130816267366667,-0.0892589740333333,-0.106859579166667,-0.0765878985,-0.1779417185,-0.1489870025,-0.248012073833333,-0.351044407166667,-0.4566165165,-0.303504141833333,-0.207249539966667,-0.106158539966667,-0.00547184663333333,-0.125172792766667,-0.0905863121,-0.2242233041,-0.187541875166667,-0.236256275833333,-0.254810349833333,-0.132803497366667,-0.00987018403333331,-0.0441865980333333,-0.0930468125,-0.2378306145,-0.0704405011666667,-0.183407217166667,-0.167778851833333,-0.278208675166667,-0.139487101833333,0.00420127483333335,-0.0154345018333333,-0.156272789166667,-0.217900917166667,-0.104533425833333,-0.0285499118333333,2629,"DG_s13",11.422,12.219,13.297,13.297,22,6,10,10,1.078,"Right",22,6,16,16,0,0,-16,0,-16,16,"Advent",12,-4,10,22,10,6
"91",5,"RIN2-RIN3",-0.0391155204,0.0127812396,0.0445474129333333,-0.0887664510666667,-0.0827901072,-0.00853867533333333,0.0236715166666667,0.0555842441333333,0.00462374893333333,0.1340595956,0.0869461636,-0.0106204417333333,-0.109343493733333,-0.142384609066667,-0.138594747066667,-0.1590574784,-0.1377984524,-0.126368277066667,-0.0599963670666667,-0.0331354870666667,0.0369066976,-0.0133374836,-0.0082690322,-0.0571300788666667,-0.0627868776666667,-0.0764303290666667,-0.082913308,-0.0860023566666667,-0.0159082666666667,0.0153691276,0.00897115626666667,-0.0779392066666667,-0.00374239066666666,-0.0362909053333333,-0.0538161490666667,-0.0909211070666667,-0.0747029384,2629,"DG_s13",11.422,12.219,13.297,13.297,22,6,10,10,1.078,"Right",22,6,16,16,0,0,-16,0,-16,16,"Advent",12,-4,10,22,10,6
"92",5,"LIN1-LIN2",-0.00582271283333334,0.0654208305,-0.00556958483333334,-0.0669222888333333,-0.100546010833333,-0.0728534461666667,-0.0799325668333333,-0.0860761681666667,-0.0711340021,-0.165315157433333,-0.154005329433333,-0.0376739921666667,0.130485807833333,0.170214503833333,0.0550561298333333,0.0623556383,0.0273450409666667,0.0258807789666667,0.0352152038333333,0.1751471805,0.2055428465,0.0979366705,-0.1149720595,-0.0338808708333333,-0.0420754361666667,0.0586616831666667,-0.0556824068333333,-0.0450870901666667,-0.153856262833333,-0.185290178166667,-0.1716554735,-0.0083146035,0.0110271551666667,0.117936027833333,-0.00281568216666667,0.106088005833333,-0.0443513615,2629,"DG_s13",11.422,12.219,13.297,13.297,22,6,10,10,1.078,"Right",22,6,16,16,0,0,-16,0,-16,16,"Advent",12,-4,10,22,10,6
"93",5,"RIN9-RIN10",0.129302424466667,0.237875029133333,0.2606983738,0.107836417133333,-0.116497337533333,-0.241615750866667,-0.0882640482,0.140064858466667,0.279223493133333,0.529076590466667,0.4947713838,0.364170175133333,0.1040893218,0.0540581238,0.0848105751333333,0.174417428466667,0.293372666466667,0.380218562466667,0.339441769133333,0.225884229133333,0.147370838133333,0.185427431466667,0.128897920133333,0.187634791133333,0.0511240238,0.0896225538,0.00081649713333333,-0.0517903355333333,-0.0469282608666667,0.0910508558,0.288545522466667,0.3906957958,0.380644602466667,0.354024707133333,0.296510047133333,0.170410660466667,0.3374720958,2629,"DG_s13",11.422,12.219,13.297,13.297,22,6,10,10,1.078,"Right",22,6,16,16,0,0,-16,0,-16,16,"Advent",12,-4,10,22,10,6
"94",5,"RIN5-RIN6",0.166458914543333,0.0431242245433333,-0.04049481279,-0.00488938879,0.0383464445433333,0.06789458121,0.104320186543333,0.112261302543333,0.03090222761,0.05392575161,0.16895682961,0.213585458676667,0.208831988676667,-0.0202256113233333,0.00829770521,0.00147650187666667,0.181059497876667,0.177605042543333,0.22270002921,0.0858558161433333,0.03630910281,-0.00809800652333333,0.0406241638766667,0.0183893838766667,0.0364012198766667,-0.04408794739,-0.0804395540566667,-0.13524780339,-0.150447323456667,0.00855526854333333,0.100016398543333,0.09038512921,0.0151589685433333,-0.0314284754566667,0.15070926121,0.202524915876667,0.210699329743333,2629,"DG_s13",11.422,12.219,13.297,13.297,22,6,10,10,1.078,"Right",22,6,16,16,0,0,-16,0,-16,16,"Advent",12,-4,10,22,10,6
"95",5,"LIN9-LIN10",-0.2695070464,-0.204596742,-0.196708059333333,0.118540447333333,0.110853068666667,0.384929664,0.166628904,0.2218233388,-0.0589975485333333,0.00640448213333333,-0.118022434666667,-0.145349800666667,-0.0567171533333333,0.0366644726666667,0.0806626573333333,-0.076386194,-0.0674227113333333,-0.106047011333333,-0.0840064986666667,-0.159939102733333,-0.0305140940666667,-0.104756282733333,-0.067948208,-0.100036914,-0.00692887,-0.041457302,-0.0695722426666667,-0.113904824,-0.129127578666667,-0.195952058666667,-0.264347905333333,-0.265345872666667,-0.251566546666667,-0.246027073333333,-0.221998864,-0.223835645333333,-0.290280725333333,2629,"DG_s13",11.422,12.219,13.297,13.297,22,6,10,10,1.078,"Right",22,6,16,16,0,0,-16,0,-16,16,"Advent",12,-4,10,22,10,6
"96",5,"LTI2-LTI3",0.07141626025,-0.0597584730833333,0.0305317921166667,0.07959411145,0.0394851974366667,-0.01321579643,-0.0192978630966667,-0.000641798350000002,0.05825441165,0.0533303789833333,-0.0386966384166667,-0.0245013864166667,0.00243496158333333,0.195974361583333,0.09304396825,0.0764196149166667,-0.0204798184166667,0.0745250615833333,0.0987269195833333,0.10664613025,0.0671016915833333,0.03169497825,-0.0174857286833333,0.00395755151666666,-0.06407683515,0.00507152778333333,0.03451546625,0.08171828625,0.0820851355833333,0.123801208916667,0.13420134225,0.205855312916667,0.0828647595833333,0.08722363025,-0.0293740364166667,0.0794204169166667,0.10943453225,2629,"DG_s13",11.422,12.219,13.297,13.297,22,6,10,10,1.078,"Right",22,6,16,16,0,0,-16,0,-16,16,"Advent",12,-4,10,22,10,6
"97",5,"RIN4-RIN5",0.0425518338333333,-0.1502448375,-0.2036625815,-0.1906294215,-0.204514652833333,-0.2338805215,-0.190594662833333,-0.140204660033333,-0.2213965807,-0.162124709366667,-0.0520422028333334,0.0714821585,0.104596272366667,-0.0740146856333333,-0.120314326966667,-0.170550150833333,-0.0534304595,0.0225818738333333,0.0713057801666667,0.0279365868333333,-0.0762650465,-0.0849535528333333,-0.167844880833333,-0.1637722915,-0.2381894055,-0.239281360966667,-0.2807093623,-0.3063498083,-0.1239501315,0.0685412425,0.1442180005,-0.0787184661666667,-0.2567540215,-0.351596286166667,-0.279862128166667,-0.2607319315,-0.109926784833333,2629,"DG_s13",11.422,12.219,13.297,13.297,22,6,10,10,1.078,"Right",22,6,16,16,0,0,-16,0,-16,16,"Advent",12,-4,10,22,10,6
"98",5,"LAM4-LAM5",1.694661374,0.901546934,0.162385668666667,-0.0105829586666667,0.150867013333333,0.250024396666667,0.149329439333333,0.078341912,0.0336149313333333,0.174221508666667,0.166814311333333,0.222995254,0.155935756666667,0.237336543333333,0.122508014,0.0685636778666667,-0.0421825194666667,-0.0450755501333333,0.0925921008666667,0.115321026866667,0.0775095588666667,-0.012161412,0.0326686779333333,0.270804825933333,0.422606099266667,0.516258673333333,0.802321473333333,0.9962163,0.933082751333333,0.503135031333333,0.114072798666667,0.0651485709333333,-0.00182738306666666,0.00403479693333333,0.0232586733333333,0.043209326,0.060972206,2629,"DG_s13",11.422,12.219,13.297,13.297,22,6,10,10,1.078,"Right",22,6,16,16,0,0,-16,0,-16,16,"Advent",12,-4,10,22,10,6
"99",5,"RTI2-RTI3",0.084588838,0.0879794416,0.0111419282666667,0.0264634456,-0.0223634733333333,-0.00743416,0.085329708,0.0347165726666667,0.0754079833333333,-0.008501926,-0.00922992466666667,0.0570324046666667,-0.0173260046666667,0.201060922,0.142434560666667,0.177784963333333,-0.0213654332,0.0108217409333333,0.0102117702666667,0.109517060133333,0.0968628273333333,0.0606385953333333,0.12071213,0.0321953586666667,0.0399513566666667,-0.0953535513333333,-0.1338405,-0.134967404666667,-0.168245564666667,-0.0458828553333333,0.047744438,0.147266191333333,0.025854196,0.0104061753333333,-0.130582798,-0.0938843654,-0.150713734733333,2629,"DG_s13",11.422,12.219,13.297,13.297,22,6,10,10,1.078,"Right",22,6,16,16,0,0,-16,0,-16,16,"Advent",12,-4,10,22,10,6
"100",5,"RIN6-RIN7",0.18390310425,0.17645192425,0.0849383189166667,-0.0279017404166667,0.0541182015833333,0.183824040916667,0.28241303025,0.245010203583333,0.301619376383333,0.268344273716667,0.23264666505,0.17801092625,0.19494664625,0.24488529625,0.162137767583333,0.167646716716667,0.19987366005,0.25480228205,0.184628157583333,0.07258172425,0.0852580375833333,0.143248355583333,0.27931153425,0.343526467583333,0.277319466916667,0.32282195225,0.209182190916667,0.305941706916667,0.20738564425,0.243570432916667,0.178506232916667,0.236070761583333,0.385205240916667,0.35138209425,0.22437390425,0.17452119785,0.380510364516667,2629,"DG_s13",11.422,12.219,13.297,13.297,22,6,10,10,1.078,"Right",22,6,16,16,0,0,-16,0,-16,16,"Advent",12,-4,10,22,10,6
"101",6,"RIN6-RIN7",-0.217983689833333,-0.3140924765,-0.3751450045,-0.261796101833333,-0.1755162585,-0.0706496998333333,-0.227070035166667,-0.178881281166667,-0.2190193665,-0.232411097833333,-0.2910018565,-0.1524729765,-0.0996639705,-0.1797650505,-0.385736967833333,-0.342652347166667,-0.1091800805,0.0447665235,0.0782577075,0.109355314166667,0.147503434166667,0.152663512166667,-0.0268714033666667,-0.258812063366667,-0.335794308033333,-0.284800845833333,-0.1422780125,-0.0914857629666667,-0.0717738496333333,0.00905385703333333,0.0470697635,-0.0294555031,-0.287312369766667,-0.409716605766667,-0.382143959166667,-0.131091885833333,-0.0548611177666667,2630,"DG_s13",14.297,15.094,16.422,16.422,30,15,10,10,1.328,"Left",30,15,15,15,0,0,-15,0,-15,15,"Advent",20,5,30,10,15,10
"102",6,"LTI1-LTI2",-0.0257721248666667,-0.256371574866667,-0.263430310866667,-0.185664762,-0.0784456053333333,-0.0424404993333333,-0.098720482,-0.153049665333333,-0.265353987333333,-0.292759111866667,-0.2111088152,-0.1920291592,-0.080206092,-0.0999349114,0.0319639719333333,0.0264129652666667,0.0242520686666667,-0.113650531333333,-0.212576901333333,-0.288287015333333,-0.267853608666667,-0.191392058666667,-0.117631,-0.01358862,-0.00654937999999999,0.0696317333333333,-0.111426233333333,-0.28155974,-0.288261353333333,-0.306858353333333,-0.286688586666667,-0.387117998,-0.230581519333333,-0.0264055893333333,0.0312939793333333,-0.0465187606666667,-0.115928244,2630,"DG_s13",14.297,15.094,16.422,16.422,30,15,10,10,1.328,"Left",30,15,15,15,0,0,-15,0,-15,15,"Advent",20,5,30,10,15,10
"103",6,"LIN1-LIN2",0.105034097448333,-0.0179617346183333,-0.243813001285,-0.246251815951667,-0.181466597218333,0.0501925374483334,0.0882337227816667,0.071525654715,0.00868433471500002,-0.0486794439516667,0.000844763448333341,-0.0591897632183333,-0.145519441885,-0.309682395218333,-0.334291072551667,-0.259944973885,-0.193153180551667,-0.211720637218333,-0.319256650551667,-0.355200089618333,-0.301946910285,-0.158418854285,-0.0865246705516667,-0.180584163885,-0.303906410551667,-0.220834441885,-0.089136251885,0.0559533787816667,0.026166132115,0.0368657954483333,-0.109032084551667,-0.194510011885,-0.261530291885,-0.127173355885,-0.089228449885,-0.171622136551667,-0.324707299425,2630,"DG_s13",14.297,15.094,16.422,16.422,30,15,10,10,1.328,"Left",30,15,15,15,0,0,-15,0,-15,15,"Advent",20,5,30,10,15,10
"104",6,"LIN3-LIN4",-0.058939431,0.119407802333333,-0.028963251,-0.0659919976666667,-0.146051624333333,-0.105536692666667,0.017443228,0.154671839333333,0.185035282666667,0.0682462833333333,-0.184967268,-0.221413168333333,-0.235713457666667,-0.140621645666667,-0.107391176333333,-0.093141635,-0.0389601136666667,0.0331069063333333,0.136244139666667,0.103928641733333,0.0914696677333333,0.0478455670666667,0.254807331666667,0.382467375,0.371582609,0.260581445,0.0996996156666667,0.149799933,0.0964708976666667,0.121212600333333,0.152571256333333,0.125897161666667,0.079221775,-0.0609521876666667,-0.122117190446667,-0.161015197646667,-0.0348214436466667,2630,"DG_s13",14.297,15.094,16.422,16.422,30,15,10,10,1.328,"Left",30,15,15,15,0,0,-15,0,-15,15,"Advent",20,5,30,10,15,10
"105",6,"RTI9-RTI10",-0.140894754833333,-0.0569283961666667,0.0809649111666667,0.1486440545,0.125723615766667,0.0244667591,-0.0130723015,-0.0590569847666667,-0.0857006954333333,-0.0764415541666667,0.00106480716666667,0.112928533833333,0.240465269833333,0.223484987433333,0.234791773433333,0.113850845433333,0.0283412151666667,-0.134543550833333,-0.117893186833333,-0.0915062328333333,-0.0203548928333333,0.0323940711666667,0.0986088758333333,0.0894077718333333,0.1274809385,0.0765753465,0.151149276413333,0.106889836413333,0.18269140508,0.190438669833333,0.1908356565,0.243795561166667,0.133289177166667,0.1682326145,0.0355262958333333,0.1143466105,0.150966399833333,2630,"DG_s13",14.297,15.094,16.422,16.422,30,15,10,10,1.328,"Left",30,15,15,15,0,0,-15,0,-15,15,"Advent",20,5,30,10,15,10
"106",6,"LIN4-LIN5",-0.0459243268333333,0.0151422765,-0.0881332548333333,-0.0808909895,-0.0936004801666667,-0.000885670166666658,0.00745290250000001,0.0835179611666667,0.0217042278333333,-0.000372745833333327,-0.193677947166667,-0.198659511833333,-0.195600362833333,-0.0386924561666667,-0.0683959461666667,-0.0151905881666667,-0.0442364841666667,0.0628752598333333,0.0512149065,-0.0452091708333333,-0.1396115215,-0.226257184166667,-0.0827795308333333,0.0323057045,0.129167167166667,0.109201455166667,0.144803011166667,0.119166091166667,0.0833911405,0.0247126251666667,0.1314875125,0.0978564745,0.0627776958333333,-0.0388165728333333,-0.1301533255,-0.1794191515,-0.178339510833333,2630,"DG_s13",14.297,15.094,16.422,16.422,30,15,10,10,1.328,"Left",30,15,15,15,0,0,-15,0,-15,15,"Advent",20,5,30,10,15,10
"107",6,"LIN9-LIN10",0.216997150683333,0.193685494016667,0.02020890735,-0.118114639876667,-0.241940019876667,-0.227188396543333,-0.11121787865,0.22396042135,0.445111844683333,0.329680998016667,0.0400880446833333,-0.00436834598333333,0.0987344426833333,0.159458186683333,0.120316084016667,0.0763552110166667,0.03883828355,-0.0320051011166667,0.00492856921666667,0.0449540630833333,0.109740009083333,0.09788304975,0.142540306016667,0.03914965135,0.00593954668333333,-0.06340003865,-0.04448357865,-0.0770946119833333,-0.00316687998333333,-0.0207508873166667,-0.0143172299166667,-0.173812289916667,-0.219227312583333,-0.0664148473166667,0.0196592346833333,0.167157262016667,0.0554249386833333,2630,"DG_s13",14.297,15.094,16.422,16.422,30,15,10,10,1.328,"Left",30,15,15,15,0,0,-15,0,-15,15,"Advent",20,5,30,10,15,10
"108",6,"RIN4-RIN5",-0.230096109533333,-0.197910493293333,-0.197036474626667,-0.173703015093333,-0.240994626666667,-0.321922939333333,-0.340560378666667,-0.217346074666667,-0.209773392,-0.226856848066667,-0.3074697704,-0.1890412024,-0.151973453733333,-0.0620945467333333,-0.0716639034,-0.0194946906666667,-0.14437492,-0.152585474,-0.239503685933333,-0.296480629933333,-0.3605601546,-0.349761025333333,-0.197569206666667,-0.174965509333333,-0.17065565548,-0.346867934146667,-0.375324008813333,-0.400727355333333,-0.176975148666667,-0.0792346926666667,0.0464952946666667,-0.0649491846666667,-0.1319898664,-0.301453019733333,-0.282028687066667,-0.224026004,-0.0865706133333333,2630,"DG_s13",14.297,15.094,16.422,16.422,30,15,10,10,1.328,"Left",30,15,15,15,0,0,-15,0,-15,15,"Advent",20,5,30,10,15,10
"109",6,"RIN3-RIN4",-0.0457745026666667,4.7433999999999e-05,0.0395534966666667,-0.0343208513333333,-0.0333315913333333,0.089709562,0.0229942687333333,-0.0917623512666667,-0.1623884966,-0.132220009,-0.024366819,-0.0167968163333333,0.00814668666666667,0.0141057433333333,-0.081667102,-0.0316564773333333,-0.0784800993333333,-0.0575806746666667,-0.0734826033333333,-0.0798224430666667,0.0213862210666667,0.0267520830666667,0.00411469813333333,-0.09856448888,-0.09126251488,-0.0726255382133333,-0.0103070106666667,-0.018720122,0.0938875946666667,0.0589941273333333,0.0451557126666667,0.0351612466666667,0.073949508,0.0125499426666667,-0.165654224666667,-0.257328601333333,-0.180048388,2630,"DG_s13",14.297,15.094,16.422,16.422,30,15,10,10,1.328,"Left",30,15,15,15,0,0,-15,0,-15,15,"Advent",20,5,30,10,15,10
"110",6,"RTI3-RTI4",-0.0179444713166667,0.0626216540166667,0.0794334940166667,0.140424148683333,0.0866318426833333,0.00166414701666667,0.0239515876833333,0.01903229435,0.17971604335,0.0900234080166667,0.115004188083333,0.00613340741666667,0.0461386040833333,0.08978188935,0.02345163535,-0.00851944131666666,-0.191345439316667,-0.20072341065,-0.20270914865,-0.0249943339833333,0.0110910546833333,0.0331882860166667,-0.0993236459833333,-0.00889592198333333,0.26793883335,0.43105798135,0.286499246016667,0.02331607535,-0.04477219265,0.0648690226833333,-0.02827047465,0.0477354626833333,-0.0540747833166667,0.0505386306833333,0.114945230683333,0.239524498683333,0.21933661135,2630,"DG_s13",14.297,15.094,16.422,16.422,30,15,10,10,1.328,"Left",30,15,15,15,0,0,-15,0,-15,15,"Advent",20,5,30,10,15,10
"111",6,"LTI9-LTI10",-0.029835115,-0.00793374680000001,0.161182246533333,0.165220660533333,0.124048879,0.016060899,-0.0231281076666667,-0.028369013,0.151589940333333,0.184102827,0.104452960333333,-0.177504866333333,-0.1300422338,0.0101209788666667,0.146194898866667,0.222685965666667,0.182728810333333,0.129138275733333,0.0348340624,0.0639355717333333,0.084328023,0.074479311,0.071914591,0.0258245643333333,-0.0206149896666667,-0.0863511696666667,-0.0467641656666667,0.0463571036666667,0.073228225,0.149730764333333,0.171726928333333,0.221870225666667,0.210071292333333,0.227957225666667,0.0971968343333333,-0.0256514823333333,-0.170684691666667,2630,"DG_s13",14.297,15.094,16.422,16.422,30,15,10,10,1.328,"Left",30,15,15,15,0,0,-15,0,-15,15,"Advent",20,5,30,10,15,10
"112",6,"LIN2-LIN3",0.283955527666667,0.224089581,0.133830801666667,0.061812677,0.216029263,0.194118375666667,0.295216544333333,0.0736052483333333,-0.040108825,-0.082310081,-0.115798631,-0.152757189,-0.253098415666667,-0.2203256302,-0.1072038262,-0.0598451942,0.0722149003333333,-0.0871082723333333,-0.0441103443333333,-0.184822937666667,-0.0822434163333333,-0.0789711076666667,0.070029103,0.051133535,0.048930653,-0.0274585896666667,0.184692857,0.197723710333333,0.170554569,0.00140170006666666,-0.0783354766,-0.0865790166,-0.0352976523333333,-0.0995321476666667,-0.0305114923333333,-0.171752047666667,-0.120866526333333,2630,"DG_s13",14.297,15.094,16.422,16.422,30,15,10,10,1.328,"Left",30,15,15,15,0,0,-15,0,-15,15,"Advent",20,5,30,10,15,10
"113",6,"RIN1-RIN2",-0.0277927589333333,-0.0406083134666667,-0.0366428334666667,-0.128278087466667,-0.0321840002666667,-0.0522827986666667,0.019495172,-0.080498402,-0.111208568066667,-0.156805594733333,-0.135236490066667,-0.174647183173333,-0.177722293573333,-0.08395509224,-0.0999888946666667,-0.0930417748,-0.198079530133333,-0.0136740014666667,0.0647475204,0.0283633250666667,-0.0426284436666667,-0.138817556333333,0.106053314333333,0.0880560544666667,0.177222821133333,-0.1072060944,-0.102133589133333,-0.2252087558,-0.0956230936666667,-0.174827847,-0.100682147666667,-0.1959846696,-0.168860794933333,-0.1739309716,-0.108224410933333,-0.00077020559999999,-0.0730436682666667,2630,"DG_s13",14.297,15.094,16.422,16.422,30,15,10,10,1.328,"Left",30,15,15,15,0,0,-15,0,-15,15,"Advent",20,5,30,10,15,10
"114",6,"RIN9-RIN10",0.0179572289,0.0222721909,-0.0363927068333333,-0.0688257075,-0.115661381366667,-0.0947801733666667,0.0419980086333333,0.0949179191666667,0.100147841166667,0.0193333998333333,0.1181445665,0.0668656258333333,0.1202845675,0.0146382401666667,0.0700720808333333,0.0769492090333333,0.0745352463666667,0.0952445663666667,0.1885677045,0.484467861166667,0.567148007833333,0.454007967833333,0.279059183833333,0.0796649718333333,0.0438961985,-0.0181655241666667,-0.0677925121666667,-0.209880918833333,-0.2902765215,-0.286281688166667,-0.115097014833333,-0.100926714833333,-0.0934200015,-0.0204882815,0.0400420798333333,0.1333983865,0.0189744865,2630,"DG_s13",14.297,15.094,16.422,16.422,30,15,10,10,1.328,"Left",30,15,15,15,0,0,-15,0,-15,15,"Advent",20,5,30,10,15,10
"115",6,"RIN5-RIN6",-0.310063605,-0.308555797,-0.168115643666667,-0.067151907,-0.119017641666667,-0.221086679666667,-0.3007569056,-0.322077254933333,-0.343027097,-0.3324459484,-0.352051759266667,-0.2122168532,-0.1680147892,-0.0697295163333334,-0.182111080333333,-0.115378139,-0.170034211666667,-0.165493826333333,-0.216698634333333,-0.226250419666667,-0.150898753666667,-0.260004860333333,-0.258174203666667,-0.344311612133333,-0.242407266133333,-0.3394296488,-0.295428924333333,-0.332388649,-0.0435334176666667,-0.00183700033333334,0.0847900796666666,-0.165988373,-0.289669999666667,-0.454948494333333,-0.388901781666667,-0.229088101666667,-0.0608780456666667,2630,"DG_s13",14.297,15.094,16.422,16.422,30,15,10,10,1.328,"Left",30,15,15,15,0,0,-15,0,-15,15,"Advent",20,5,30,10,15,10
"116",6,"RTI1-RTI2",-0.137562628666667,-0.224830697333333,-0.1544212246,-0.0364289199333333,0.0239845894,-0.0359941433333333,-0.0655866306666667,-0.081479158,-0.0140840186666667,-0.133491140666667,-0.00598495533333333,-0.027379872,0.0762901331333333,0.0730380131333333,0.0562436104666667,0.0256304333333333,0.18326212,0.261002286666667,0.273039416666667,-0.00854633850666667,-0.0649128845066667,-0.13814174584,-0.160790384,-0.172764834133333,-0.2204879988,-0.1538070228,-0.0933282,-0.122211722,-0.0869609,-0.125986029333333,-0.00121102733333334,0.0383622213333333,0.209837670666667,0.405325196666667,0.337562064666667,0.214208926733333,0.0833669734,2630,"DG_s13",14.297,15.094,16.422,16.422,30,15,10,10,1.328,"Left",30,15,15,15,0,0,-15,0,-15,15,"Advent",20,5,30,10,15,10
"117",6,"RTI2-RTI3",0.0829398541333333,0.0145981879333333,0.0600201186,0.0577963503333333,0.0565018764666667,-0.0266099608666667,-0.125247061866667,-0.100660277466667,0.0639423292,0.0930689075333333,0.125991043166667,-0.0444367124333333,-0.0127108073133333,-0.000888821479999998,0.16055143412,0.106201829066667,0.0622377664,-0.0427538696,0.124030721333333,0.176220256,0.166610820666667,0.002519787,0.00290653233333333,0.0491988603333333,0.0496602696666667,0.015831591,0.0890635816666667,0.138596841666667,0.149653657666667,-0.0037218074,0.0479409806,0.156795504133333,0.217062442533333,0.336207350533333,0.239292843,0.214539850333333,0.056444469,2630,"DG_s13",14.297,15.094,16.422,16.422,30,15,10,10,1.328,"Left",30,15,15,15,0,0,-15,0,-15,15,"Advent",20,5,30,10,15,10
"118",6,"RIN2-RIN3",0.139510078333333,0.123307163666667,0.051403435,0.0573594923333333,0.109203270066667,0.126052044533333,0.0802437705333333,0.0209342955333333,-0.0181755389333333,-0.0154956742666667,-0.057937389,-0.0173089563333333,-0.011886211,0.107256349,0.049434465,-0.0124840823333333,-0.0630876156666667,-0.0346686656666667,0.0869935283333333,0.0291252876666667,0.0459514116666667,0.0640609416666667,0.152954510333333,0.175108517666667,0.0450855543333333,-0.0430276156666667,-0.106979505666667,-0.122128398333333,0.0987708042666667,0.1514317364,0.222359515733333,0.0469553011333333,-0.0255642736666667,-0.0729917096666667,-0.0924589023333333,0.0123241585333333,-0.0177253814666667,2630,"DG_s13",14.297,15.094,16.422,16.422,30,15,10,10,1.328,"Left",30,15,15,15,0,0,-15,0,-15,15,"Advent",20,5,30,10,15,10
"119",6,"LAM4-LAM5",-0.0584566854833333,-0.10904798415,-0.01448423415,-0.03158772855,-0.0198420952166667,-0.05908029655,-0.163574143216667,-0.234004549883333,-0.307200143216667,-0.201343599216667,0.0286552341166667,0.311936752783333,0.752329008783333,0.692831528783333,0.60314773545,0.172840274116667,0.0174859107833333,-0.11489939775,-0.125860577083333,-0.01648063575,-0.03637874255,0.0810022981166667,0.257387200116667,0.276316674783333,0.112647718783333,-0.136555179883333,-0.176541661483333,-0.228823878816667,-0.175399446083333,-0.0483520158166667,0.06776678905,0.03241515965,-0.0551799076833333,-0.04732341255,-0.0627854792166667,-0.01579266655,0.157190200116667,2630,"DG_s13",14.297,15.094,16.422,16.422,30,15,10,10,1.328,"Left",30,15,15,15,0,0,-15,0,-15,15,"Advent",20,5,30,10,15,10
"120",6,"LTI2-LTI3",-0.0568942910333333,-0.224516336033333,-0.209199987766667,-0.149765547766667,-0.1360957691,-0.270061332633333,-0.321312323966667,-0.198087459966667,-0.1400337473,-0.101036630633333,-0.112529746633333,-0.0455248666333333,0.0958933187,0.0960830613666667,0.0468185980333333,-0.0868411826333333,-0.116309211966667,-0.00645648663333333,0.0719118013666667,0.0723208080333333,0.0142554000333333,-0.1493275873,-0.149772479966667,-0.101882119966667,-0.0078535533,-0.0503247075666667,-0.2099546491,-0.291974535766667,-0.1821226355,-0.0741245339666667,-0.0744542339666667,-0.132783115966667,-0.172368190633333,-0.1250359913,-0.0591691093,-0.0442818353,-0.0701749879666667,2630,"DG_s13",14.297,15.094,16.422,16.422,30,15,10,10,1.328,"Left",30,15,15,15,0,0,-15,0,-15,15,"Advent",20,5,30,10,15,10
"121",7,"RIN4-RIN5",-0.319309607333333,-0.216515143333333,-0.295952636,-0.221970378666667,-0.297792756,-0.280204223333333,-0.307678843333333,-0.189362512666667,-0.088820898,0.0355393966666667,0.0490101993333333,0.228398712,0.14844776,0.0793093486666667,-0.0915543826666667,-0.166012292,-0.244080568,-0.297105976666667,-0.0544248633333333,0.0868887813333333,0.084320984,-0.202089016,-0.252301547333333,-0.11323483,-0.00972105933333334,-0.0749036586666667,-0.258514465333333,-0.239797936,-0.255424250133333,-0.198211223466667,-0.3029023268,-0.263445426466667,-0.157474658066667,0.0408828886,0.315658559733333,0.167848764666667,-0.000167217999999997,2631,"DG_s13",17.422,18.219,19.25,19.25,28,4,10,10,1.031,"Left",28,4,24,24,0,0,-24,0,-24,24,"Advent",18,-6,28,10,4,10
"122",7,"LIN1-LIN2",0.0209180072666667,0.131465801733333,0.0993502194666667,-0.0013565192,-0.114836233133333,-0.1364019598,-0.1176959258,-0.0566671117333333,0.0222356976,-0.0801965884,-0.1313821992,-0.164881315866667,0.0266424374666667,0.229192401466667,0.247528668133333,0.1493572648,0.0484108514666667,0.0953586065333333,0.0380448752,-0.0010193948,-0.1086750312,-0.0560081858666667,-0.1163531432,-0.0550627785333333,-0.0156192405333333,0.00269559946666666,0.0097118868,0.0342946912,0.115174121866667,0.0620812092,-0.0252471565333333,-0.0776586465333333,0.1290222028,0.120147195466667,0.106209816133333,-0.1278035152,-0.113234985333333,2631,"DG_s13",17.422,18.219,19.25,19.25,28,4,10,10,1.031,"Left",28,4,24,24,0,0,-24,0,-24,24,"Advent",18,-6,28,10,4,10
"123",7,"RTI1-RTI2",0.0771054042233334,0.01643304089,0.0545953535566667,-0.0334681457766667,0.05148921089,-0.141643942443333,-0.171086929776667,-0.243676929776667,-0.09127092311,-0.10186099135,-0.0304733126833333,0.02898588065,0.17868558289,0.15521623929,0.0714704719566667,-0.00286727737666666,0.187432646223333,0.166311820223333,0.108367955556667,0.0600385035566667,0.0974493835566667,0.0951940922233333,0.0101557522233333,-0.00759622977666666,-0.10573010511,-0.20395811331,-0.247268270576667,-0.15593404191,-0.138704544376667,-0.19918736511,-0.134817219776667,-0.0275737024433333,0.12242523089,0.156767650223333,0.0244168670233333,-0.11049433291,-0.176804448243333,2631,"DG_s13",17.422,18.219,19.25,19.25,28,4,10,10,1.031,"Left",28,4,24,24,0,0,-24,0,-24,24,"Advent",18,-6,28,10,4,10
"124",7,"RIN1-RIN2",-0.00504422051666667,0.0466082114833333,-0.0118109845166667,-0.0204129011833333,-0.0803867785166667,0.00319369815,0.03761904815,0.0736511128166667,-0.00796263778333333,-0.100961927783333,-0.0816946451166667,-0.14637081585,-0.12779363185,-0.155551498716667,-0.13372260405,-0.03122020005,-0.0800610085166667,0.00651485148333333,-0.12317357385,-0.0662196405166667,-0.109870823183333,0.156086956816667,0.361519276816667,0.429290768816667,0.285845163483333,0.0746318068166667,-0.00622988585,0.08840384415,0.19081835415,0.307086391483333,0.258426690816667,0.20168179415,0.06538723615,-0.0655940671833333,-0.105085710516667,-0.0595411759193333,0.0278525834806667,2631,"DG_s13",17.422,18.219,19.25,19.25,28,4,10,10,1.031,"Left",28,4,24,24,0,0,-24,0,-24,24,"Advent",18,-6,28,10,4,10
"125",7,"LTI1-LTI2",0.0109848913333333,-0.0539939506666667,-0.055380194,-0.147870672666667,-0.125873566,-0.0165837266666667,0.122601126,0.0603691073333334,-0.00134738133333333,-0.00490224466666665,-0.0281625019333333,0.0398708940666667,-0.0850374632666667,-0.157153258,-0.286393226466667,-0.145928898466667,0.0758193202,0.120096499333333,0.0322747333333333,-0.0520936453333333,-0.019818474,-0.0274460093333333,-0.0185193226666667,-0.027664078,0.0563194033333333,-0.0546431053333333,-0.0964545106666667,-0.141100252266667,0.0331342248,0.0722822268,0.0287118624,-0.080296466,-0.124688609333333,-0.117834074666667,0.0818760786666667,0.130887172,0.1937233496,2631,"DG_s13",17.422,18.219,19.25,19.25,28,4,10,10,1.031,"Left",28,4,24,24,0,0,-24,0,-24,24,"Advent",18,-6,28,10,4,10
"126",7,"LIN9-LIN10",-0.083085835,-0.0937938216666667,-0.169889768333333,0.0184139583333333,0.0830295516666667,0.134855879666667,0.050326631,0.082940539,0.112714789666667,0.146295227666667,0.237586759666667,0.235857143666667,0.267890374333333,0.086416163,0.0992216763333333,0.0587935263333333,0.0602931154666667,-0.1357958312,-0.1611065692,-0.206775598333333,-0.116394202866667,-0.121936962866667,-0.00777882413333333,0.0217676324,-0.0104196662666667,-0.108169707,0.00644568099999999,-0.0131441723333333,0.089249015,-0.024853245,-0.00538028766666666,-0.0942999016666667,-0.125735667,-0.0518980756666667,0.030932767,0.153045845666667,0.160239360333333,2631,"DG_s13",17.422,18.219,19.25,19.25,28,4,10,10,1.031,"Left",28,4,24,24,0,0,-24,0,-24,24,"Advent",18,-6,28,10,4,10
"127",7,"LTI9-LTI10",-0.0581585705666667,0.000798196100000002,0.149188027233333,0.261357587233333,0.11393602532,0.08887512952,0.116820568186667,0.0526392634333333,-0.00849400456666666,-0.137698856566667,0.0674564967666667,0.0664917134333333,0.110276451433333,0.0284171714333333,0.0886428561,0.0968340587666667,0.1451081721,0.201386716766667,0.276554862766667,0.2214327641,0.1092782901,0.134497326766667,0.153774889433333,0.204866790766667,0.0827374174333333,0.0464357874333333,0.0359123814333333,0.00583341036666667,0.0666304937,0.00552328370000001,0.0535117041,0.0430755694333333,0.196916996766667,0.237188475433333,0.193944432766667,0.123169540166667,0.118805848833333,2631,"DG_s13",17.422,18.219,19.25,19.25,28,4,10,10,1.031,"Left",28,4,24,24,0,0,-24,0,-24,24,"Advent",18,-6,28,10,4,10
"128",7,"LIN4-LIN5",0.119808157,0.055989359,0.0469941963333333,-0.0111788716666667,-0.031637531,-0.102753598333333,-0.158271529,-0.183937528266667,-0.150203384266667,-0.0722837826666667,-0.0775106300666667,-0.00544915873333333,-0.0572015136666667,-0.0127603538,-0.0453049958,-0.000326563133333334,-0.00183184226666667,0.00270456373333333,0.0394057064,0.0518755636666667,-0.0302122823333333,-0.017520045,0.121041689533333,0.1846436242,0.262537359533333,0.211168172333333,0.369200255666667,0.179452314333333,0.030353085,-0.113700759,0.021174923,0.1304556866,0.130495271933333,0.1015530206,0.163497174333333,0.181524903666667,0.190173479666667,2631,"DG_s13",17.422,18.219,19.25,19.25,28,4,10,10,1.031,"Left",28,4,24,24,0,0,-24,0,-24,24,"Advent",18,-6,28,10,4,10
