"","trial","electrodes","bin_1","bin_2","bin_3","bin_4","bin_5","bin_6","bin_7","bin_8","bin_9","bin_10","bin_11","bin_12","bin_13","bin_14","bin_15","X","SID","newround_time","choice_time","buttonpress_time","reveal_time","self_payoff","other_payoff","self_foregone","other_foregone","RT","side_chosen","self_var_payoff","other_var_payoff","ineq_var_abs","ineq_choice_abs","ineq_foregone_abs","ineq_foregone","ineq_disadvent","ineq_advent","ineq_disadvent_choice","ineq_advent_choice","ineq_var","ineq_choice","chose_equality","self_diff","other_diff","L_self","R_self","L_other","R_other"
"1",1,"LAM1-LAM2",-0.3469561145,-0.3024123075,-0.6530154575,-0.542857808,0.01790886,0.380240288,0.797752188,0.67012559885,0.21169169135,-0.09765825865,-0.51874935865,-0.7140704945,-0.992056387,-1.173854137,-1.212402137,3081,"DG_s15",-0.702,0.00200000000007,2.082,2.084,10,10,6,6,2.08,"Left",6,6,0,0,0,0,0,0,0,0,0,0,"10-10",4,4,10,6,10,6
"2",1,"LAM2-LAM3",0.88309216125,0.74631649875,0.03823242375,-0.06169244225,0.34431702125,0.53738988625,0.88913046125,0.75408533775,0.22683158775,-0.32380676225,-0.60865284325,-0.46345645375,-0.15628020375,0.063279528,-0.043580941,3081,"DG_s15",-0.702,0.00200000000007,2.082,2.084,10,10,6,6,2.08,"Left",6,6,0,0,0,0,0,0,0,0,0,0,"10-10",4,4,10,6,10,6
"3",1,"LAM3-LAM4",0.25697399835,0.43779879085,0.61797059085,0.72987904085,0.54392994585,0.47413322935,0.24977967935,-0.01007447265,0.15841635085,0.07895801735,-0.13973262915,-0.10654658215,-0.14156661365,-0.24673270365,-0.38254560715,3081,"DG_s15",-0.702,0.00200000000007,2.082,2.084,10,10,6,6,2.08,"Left",6,6,0,0,0,0,0,0,0,0,0,0,"10-10",4,4,10,6,10,6
"4",1,"LAM4-LAM5",0.752562933,1.0367451415,1.2423315915,1.2970684415,1.1834197915,0.963864336,0.866375626,1.127347526,1.471647776,1.6846522815,1.5255214565,1.2209783065,0.782453884,0.709725784,0.956650819,3081,"DG_s15",-0.702,0.00200000000007,2.082,2.084,10,10,6,6,2.08,"Left",6,6,0,0,0,0,0,0,0,0,0,0,"10-10",4,4,10,6,10,6
"5",1,"LAM6-LAM7",0.42444097625,0.75870685475,0.82123010475,0.78578485475,0.85934865475,0.60214310475,0.65004070475,0.81430135475,0.85376510475,0.95072655475,0.72269275475,0.69551490475,0.57949860475,0.55274545475,0.96306215475,3081,"DG_s15",-0.702,0.00200000000007,2.082,2.084,10,10,6,6,2.08,"Left",6,6,0,0,0,0,0,0,0,0,0,0,"10-10",4,4,10,6,10,6
"6",1,"LAM7-LAM8",-1.2974184375,-1.195173499,-1.05459079635,-0.99065479635,-0.76830370135,-0.50626558985,-0.0880427425,0.4114176075,0.5099449625,0.27343503514,-0.12517687486,-0.22866517486,-0.18571722486,-0.0630647475,0.1660507125,3081,"DG_s15",-0.702,0.00200000000007,2.082,2.084,10,10,6,6,2.08,"Left",6,6,0,0,0,0,0,0,0,0,0,0,"10-10",4,4,10,6,10,6
"7",1,"LHB9-LHB10",-0.7213641095,-0.8052898415,-0.8189984615,-0.670318142,-0.353146492,0.097168908,0.366081028,0.6247035985,0.8684022485,0.9268257485,1.0479510485,0.7750755985,0.4626245485,0.3962043485,0.3374653485,3081,"DG_s15",-0.702,0.00200000000007,2.082,2.084,10,10,6,6,2.08,"Left",6,6,0,0,0,0,0,0,0,0,0,0,"10-10",4,4,10,6,10,6
"8",1,"LAM8-LAM9",-0.0919141325,0.1044286415,0.1067465738,0.1095023893,0.1627313923,0.0172162183,0.3574833635,0.805023698,1.1888706085,1.489716443,1.047979823,0.614503365,0.00382581499999999,-0.011417932,0.404289238,3081,"DG_s15",-0.702,0.00200000000007,2.082,2.084,10,10,6,6,2.08,"Left",6,6,0,0,0,0,0,0,0,0,0,0,"10-10",4,4,10,6,10,6
"9",1,"LAM9-LAM10",-0.78584159538,-0.54748967438,-0.1082295822,0.10151320905,0.20638265,0.27950025,0.17577225,0.3096989,0.3265607,0.121945835,-0.1537634005,-0.1204423505,0.0940438495,0.2456631645,0.45050495,3081,"DG_s15",-0.702,0.00200000000007,2.082,2.084,10,10,6,6,2.08,"Left",6,6,0,0,0,0,0,0,0,0,0,0,"10-10",4,4,10,6,10,6
"10",1,"LIP4-LIP5",0.4619015185,0.3443685385,0.0487851335,-0.0586805665,0.2344787785,0.5678186785,0.5171014735,0.4353382735,0.069814643,-0.154497382,0.038371578,-0.145262507,-0.2401525265,-0.3675097515,-0.6838098015,3081,"DG_s15",-0.702,0.00200000000007,2.082,2.084,10,10,6,6,2.08,"Left",6,6,0,0,0,0,0,0,0,0,0,0,"10-10",4,4,10,6,10,6
"11",1,"LHH5-LHH6",-0.68024262895,-0.3510585575,-0.1922849085,-0.1796353085,-0.0999379085,-0.1801178585,-0.1154491085,0.2655035915,0.6214532915,0.8703261915,0.7021709015,0.4949408015,0.1728874015,0.0212221515000001,0.3780478915,3081,"DG_s15",-0.702,0.00200000000007,2.082,2.084,10,10,6,6,2.08,"Left",6,6,0,0,0,0,0,0,0,0,0,0,"10-10",4,4,10,6,10,6
"12",1,"LHH7-LHH8",-0.75192503,-0.8196028615,-0.681799752,-0.275665602,0.180431248,0.208848487,0.1530047885,0.2125782385,0.2689716385,0.704164206,0.82827675135,0.71557492685,0.66741297685,0.26696779685,0.0718804955,3081,"DG_s15",-0.702,0.00200000000007,2.082,2.084,10,10,6,6,2.08,"Left",6,6,0,0,0,0,0,0,0,0,0,0,"10-10",4,4,10,6,10,6
"13",1,"LIP8-LIP9",-0.3672463,-0.38312735,-0.44469625,-0.478203609,-0.42562791265,-0.50522316265,-0.66882306265,-0.06860005865,0.27057435,0.125189755,-0.172863445,-0.662377939,-0.933003089,-0.925267144,-0.546033244,3081,"DG_s15",-0.702,0.00200000000007,2.082,2.084,10,10,6,6,2.08,"Left",6,6,0,0,0,0,0,0,0,0,0,0,"10-10",4,4,10,6,10,6
"14",1,"LHB4-LHB5",-0.303410481,-0.364659346,-0.4850713705,-0.404646486,-0.259576201,0.019429349,0.4704140235,0.8408068235,1.1751636735,1.1371860815,0.7194777665,0.7360402665,0.6561433165,0.4152137135,0.2399006285,3081,"DG_s15",-0.702,0.00200000000007,2.082,2.084,10,10,6,6,2.08,"Left",6,6,0,0,0,0,0,0,0,0,0,0,"10-10",4,4,10,6,10,6
"15",1,"LHB5-LHB6",-0.8725306405,-0.7343129905,-0.6770898405,-0.730920922,-0.513143237,-0.252550837,0.077660863,0.6546886945,0.9319223095,1.3906932595,1.5067719095,1.2567514095,1.0642827595,0.4595922357,0.3142711857,3081,"DG_s15",-0.702,0.00200000000007,2.082,2.084,10,10,6,6,2.08,"Left",6,6,0,0,0,0,0,0,0,0,0,0,"10-10",4,4,10,6,10,6
"16",1,"LTT8-LTT9",0.6214015805,0.9204664305,1.117792465,0.873478055,0.92202214,0.92239499,0.99742669,1.3399483,1.42520966,1.45459841,1.0571272148,0.7540807583,0.53167754815,0.37537681165,0.55142475685,3081,"DG_s15",-0.702,0.00200000000007,2.082,2.084,10,10,6,6,2.08,"Left",6,6,0,0,0,0,0,0,0,0,0,0,"10-10",4,4,10,6,10,6
"17",1,"LHB6-LHB7",1.2963445025,1.2331594175,1.072785705,0.8215906625,0.4790604625,0.695227098,0.8030074525,0.526057895,0.366897395,0.1081943445,-0.0619992035,0.3495540965,0.8051952465,1.0926437465,1.1534098545,3081,"DG_s15",-0.702,0.00200000000007,2.082,2.084,10,10,6,6,2.08,"Left",6,6,0,0,0,0,0,0,0,0,0,0,"10-10",4,4,10,6,10,6
"18",1,"LHB7-LHB8",0.38212624,0.287818181,0.253820026,0.091249876,0.113625726,0.555629755,0.370636861,0.295939208,0.377343008,0.202745908,0.376171257,0.34346336,0.08803656,0.00238991,-0.05142364,3081,"DG_s15",-0.702,0.00200000000007,2.082,2.084,10,10,6,6,2.08,"Left",6,6,0,0,0,0,0,0,0,0,0,0,"10-10",4,4,10,6,10,6
"19",1,"LHB8-LHB9",-0.9857970505,-1.0853698655,-1.0764756905,-1.1019425905,-1.0949250905,-0.9252971555,-0.9479125175,-0.8194065075,-0.7504587075,-1.001209083,-0.9342988363,-1.0331679963,-1.0851077463,-0.8810799208,-0.7738059,3081,"DG_s15",-0.702,0.00200000000007,2.082,2.084,10,10,6,6,2.08,"Left",6,6,0,0,0,0,0,0,0,0,0,0,"10-10",4,4,10,6,10,6
"20",1,"LTT9-LTT10",0.72532688255,1.1736101215,1.3136018715,1.2113901715,0.870430666,0.288652856,0.158999869,0.236127619,0.3821481745,0.6885299345,0.6007996747,0.5420930247,0.42727133435,0.22592705935,0.11976870615,3081,"DG_s15",-0.702,0.00200000000007,2.082,2.084,10,10,6,6,2.08,"Left",6,6,0,0,0,0,0,0,0,0,0,0,"10-10",4,4,10,6,10,6
"21",1,"LIP1-LIP2",-0.351894278,-0.415464878,-0.293621878,-0.368037078,-0.289670569,0.061697531,0.327972881,0.698631081,0.640369571,0.348866271,0.057999021,-0.14052685625,-0.01322125525,0.09022315925,0.08553165925,3081,"DG_s15",-0.702,0.00200000000007,2.082,2.084,10,10,6,6,2.08,"Left",6,6,0,0,0,0,0,0,0,0,0,0,"10-10",4,4,10,6,10,6
"22",1,"LIP2-LIP3",0.623293904,0.798566214,0.7734735605,0.342657809,-0.369168441,-0.869492391,-0.860348998,-0.683446511,-0.563661258,-0.070336708,0.3427739375,0.6248649505,0.9243138975,0.6582053375,0.2350683225,3081,"DG_s15",-0.702,0.00200000000007,2.082,2.084,10,10,6,6,2.08,"Left",6,6,0,0,0,0,0,0,0,0,0,0,"10-10",4,4,10,6,10,6
"23",1,"LIP3-LIP4",0.13174391255,-0.2698608599,-0.7002162599,-0.8985889784,-0.9651083439,-1.03784969345,-0.68425714345,-0.35504587495,-0.0469404044499999,0.02168740255,-0.01851888395,-0.0783763839499999,-0.50998404695,-0.48814829395,-0.55088400245,3081,"DG_s15",-0.702,0.00200000000007,2.082,2.084,10,10,6,6,2.08,"Left",6,6,0,0,0,0,0,0,0,0,0,0,"10-10",4,4,10,6,10,6
"24",1,"LIP7-LIP8",-0.0454528635,0.0718663865000001,-0.246226324,-0.394932134,-0.129989161,-0.156170981,-0.0394808215,0.5702928285,0.7625210285,0.7593527985,0.7103366995,0.3827270495,0.2641805495,0.2792621995,0.6308845495,3081,"DG_s15",-0.702,0.00200000000007,2.082,2.084,10,10,6,6,2.08,"Left",6,6,0,0,0,0,0,0,0,0,0,0,"10-10",4,4,10,6,10,6
"25",1,"LHH4-LHH5",-1.05590263385,-0.95566364385,-0.7511637555,-0.586203005,-0.6351927602,-0.6911987912,-0.6833956412,-0.4965168912,0.052094919,0.34024415,0.123265104,-0.273164658,-0.689901658,-1.1373063795,-0.9715795197,3081,"DG_s15",-0.702,0.00200000000007,2.082,2.084,10,10,6,6,2.08,"Left",6,6,0,0,0,0,0,0,0,0,0,0,"10-10",4,4,10,6,10,6
"26",1,"LHH6-LHH7",-0.634203075,-0.4516313575,-0.4259775575,-0.3292868075,-0.1079304575,-0.240542224,-0.404553654,-0.418278654,-0.471304154,-0.3007730875,-0.291884188,-0.244224788,-0.4475549665,-0.4265658215,-0.0267373909999999,3081,"DG_s15",-0.702,0.00200000000007,2.082,2.084,10,10,6,6,2.08,"Left",6,6,0,0,0,0,0,0,0,0,0,0,"10-10",4,4,10,6,10,6
"27",1,"LIP6-LIP7",0.0881623137,-0.1041588363,-0.2602150453,-0.4297452923,-0.3830148003,-0.3123781988,-0.4709274348,-0.0489701528,0.5758133972,0.8490010457,1.1691519907,0.9497796907,0.6731087907,0.5664179657,0.1991912477,3081,"DG_s15",-0.702,0.00200000000007,2.082,2.084,10,10,6,6,2.08,"Left",6,6,0,0,0,0,0,0,0,0,0,0,"10-10",4,4,10,6,10,6
"28",1,"LIP5-LIP6",-0.3973689805,-0.7828039305,-0.842058857,-0.491026607,-0.128926857,0.193289093,0.266514448,-0.00760803699999998,-0.1561027405,0.0209926095,0.311419977,0.410581077,0.2728522405,0.0063251345,-0.234701086,3081,"DG_s15",-0.702,0.00200000000007,2.082,2.084,10,10,6,6,2.08,"Left",6,6,0,0,0,0,0,0,0,0,0,0,"10-10",4,4,10,6,10,6
"29",1,"LAM5-LAM6",-0.4818711723,-0.6719463438,-0.6340088303,-0.7761964423,-0.8340968388,-0.5362873888,-0.5911240123,-0.5788318703,-0.3710348393,-0.4192915093,-0.3754209227,-0.0632188227,0.0142255243,-0.0776701727,-0.1378102933,3081,"DG_s15",-0.702,0.00200000000007,2.082,2.084,10,10,6,6,2.08,"Left",6,6,0,0,0,0,0,0,0,0,0,0,"10-10",4,4,10,6,10,6
"30",2,"LIP7-LIP8",0.8177050506,0.5831041506,0.6888043856,0.6577586356,0.4848440361,0.4328581496,0.30235290235,0.16359678285,0.49203268235,0.68707976885,0.7062706161,0.7597259356,0.3335348356,-0.0474722644,-0.3008388144,3082,"DG_s15",3.085,3.791,6.023,6.025,18,18,10,10,2.232,"Right",18,18,0,0,0,0,0,0,0,0,0,0,"Equal",8,8,10,18,10,18
"31",2,"LTT8-LTT9",0.0663311845,0.2533817395,0.632332847,1.030260565,1.34523422,1.29262983,0.997647316,0.881050766,0.6569270175,1.0143155025,1.3941187665,1.1565520015,1.1953955255,1.1041278255,0.8904874005,3082,"DG_s15",3.085,3.791,6.023,6.025,18,18,10,10,2.232,"Right",18,18,0,0,0,0,0,0,0,0,0,0,"Equal",8,8,10,18,10,18
"32",2,"LAM5-LAM6",0.42088766605,0.8578486705,0.96194762205,1.12500961755,1.17816788755,0.86124613155,0.5396389755,0.5984241895,0.6119360395,0.8848697955,1.3983098955,1.708167471,1.945181621,1.787568886,1.323031753,3082,"DG_s15",3.085,3.791,6.023,6.025,18,18,10,10,2.232,"Right",18,18,0,0,0,0,0,0,0,0,0,0,"Equal",8,8,10,18,10,18
"33",2,"LHH4-LHH5",0.563124317,0.600565066,0.694230316,0.454714058,0.434121749,0.6389853795,0.2730319645,0.0676415225,-0.235832643,-0.418379108,-0.2753337155,-0.2411197155,-0.1334192095,-0.21228676495,-0.23484682345,3082,"DG_s15",3.085,3.791,6.023,6.025,18,18,10,10,2.232,"Right",18,18,0,0,0,0,0,0,0,0,0,0,"Equal",8,8,10,18,10,18
"34",2,"LAM2-LAM3",0.531590058,0.6095634855,0.5124521425,0.389869741,0.377506291,0.4860274135,0.6021309135,0.657200915,0.616528315,0.508356769,0.243358919,0.136775523,0.243862273,0.463117919,0.966845369,3082,"DG_s15",3.085,3.791,6.023,6.025,18,18,10,10,2.232,"Right",18,18,0,0,0,0,0,0,0,0,0,0,"Equal",8,8,10,18,10,18
"35",2,"LHB9-LHB10",-0.380053267125,-0.698012595125,-0.815747035125,-0.952113192625,-0.954912608125,-0.862108358125,-0.722065661125,-0.568392251125,-0.480537746125,-0.295943246125,0.00871660687499998,0.020386821375,-0.102925164625,-0.181861876625,-0.544760661625,3082,"DG_s15",3.085,3.791,6.023,6.025,18,18,10,10,2.232,"Right",18,18,0,0,0,0,0,0,0,0,0,0,"Equal",8,8,10,18,10,18
"36",2,"LAM1-LAM2",-0.33503265,-0.2814033,-0.2415089,-0.22248055,-0.06021805,-0.10539305,-0.037201971,0.169479629,0.444906979,0.997506379,1.106132335,0.919415375,0.7513985305,0.5156248805,0.6561600955,3082,"DG_s15",3.085,3.791,6.023,6.025,18,18,10,10,2.232,"Right",18,18,0,0,0,0,0,0,0,0,0,0,"Equal",8,8,10,18,10,18
"37",2,"LIP2-LIP3",0.9755473548,1.0687975548,0.9682339048,0.9141040048,1.1430095548,1.1274056948,0.8179052548,0.9682151048,0.9267061548,0.7646469148,1.0264841048,0.8467454548,0.8174491548,1.1650608048,1.3767312048,3082,"DG_s15",3.085,3.791,6.023,6.025,18,18,10,10,2.232,"Right",18,18,0,0,0,0,0,0,0,0,0,0,"Equal",8,8,10,18,10,18
"38",2,"LIP5-LIP6",0.097516921,0.106976091,0.241081635,0.40130242,0.2767109,0.13752172,-0.27330408,-0.59477913,-0.645520305,-0.4754736805,-0.1425966805,-0.0478373975,0.1049406395,0.131108265,0.061380798,3082,"DG_s15",3.085,3.791,6.023,6.025,18,18,10,10,2.232,"Right",18,18,0,0,0,0,0,0,0,0,0,0,"Equal",8,8,10,18,10,18
"39",2,"LIP4-LIP5",-0.4626773884,-0.2581797724,0.4658697776,0.9629476956,0.8467627031,0.8179058981,0.1934719481,-0.2959573329,-0.1981761404,-0.1678107542,-0.0686252492,-0.2403378682,-0.4331493262,-0.5047901239,-0.6429239789,3082,"DG_s15",3.085,3.791,6.023,6.025,18,18,10,10,2.232,"Right",18,18,0,0,0,0,0,0,0,0,0,0,"Equal",8,8,10,18,10,18
"40",2,"LAM3-LAM4",-0.2414303065,-0.822853657,-1.241858812,-1.754855112,-1.8555322855,-1.7208499295,-1.695115443,-1.495342684,-1.353867304,-1.3094092095,-1.240256141,-1.0716229,-1.176026985,-1.289731635,-0.923756035,3082,"DG_s15",3.085,3.791,6.023,6.025,18,18,10,10,2.232,"Right",18,18,0,0,0,0,0,0,0,0,0,0,"Equal",8,8,10,18,10,18
"41",2,"LHB4-LHB5",-0.528997679075,-0.851622044075,-1.145575183075,-1.117444733075,-1.168184933075,-1.023237989775,-0.742190989775,-0.562218436775,-0.545927586775,-0.446067296825,-0.311514646825,-0.355917181325,-0.154649671325,-0.156054219075,-0.491884819075,3082,"DG_s15",3.085,3.791,6.023,6.025,18,18,10,10,2.232,"Right",18,18,0,0,0,0,0,0,0,0,0,0,"Equal",8,8,10,18,10,18
"42",2,"LIP6-LIP7",0.000530993499999965,0.4127085935,0.7913916715,0.809151439,0.746930327,0.702206127,0.6598079265,0.6657193815,0.7600606935,0.6474052435,0.828372466,1.236714391,1.1887798825,1.052493585,0.694009085,3082,"DG_s15",3.085,3.791,6.023,6.025,18,18,10,10,2.232,"Right",18,18,0,0,0,0,0,0,0,0,0,0,"Equal",8,8,10,18,10,18
"43",2,"LIP8-LIP9",0.6462503707,0.4313073407,0.2036846907,-0.0275109593,-0.1178449158,-0.2654815858,-0.23224378365,0.02085641635,0.23597466635,0.62202676635,0.9090686142,0.9132753642,0.7515871257,0.4132651757,0.0846942757,3082,"DG_s15",3.085,3.791,6.023,6.025,18,18,10,10,2.232,"Right",18,18,0,0,0,0,0,0,0,0,0,0,"Equal",8,8,10,18,10,18
"44",2,"LAM4-LAM5",-0.4785112165,-1.0432700465,-1.0787553465,-0.69869443,-0.17812668,0.19656495,0.02367462,-0.439452911,-0.977928921,-0.960676021,-0.8943864895,-0.7768523935,-0.2753678835,-0.2767474335,-0.027349235,3082,"DG_s15",3.085,3.791,6.023,6.025,18,18,10,10,2.232,"Right",18,18,0,0,0,0,0,0,0,0,0,0,"Equal",8,8,10,18,10,18
"45",2,"LHH5-LHH6",0.1620435265,-0.19392621569,-0.15598456569,0.00683043430999997,0.27310222031,0.5200050625,0.287004363,-0.054142937,-0.433072187,-0.446939012,-0.1605382125,0.0629378375,0.4063731875,0.3354749625,0.2548261625,3082,"DG_s15",3.085,3.791,6.023,6.025,18,18,10,10,2.232,"Right",18,18,0,0,0,0,0,0,0,0,0,0,"Equal",8,8,10,18,10,18
"46",2,"LIP1-LIP2",-0.197256956,-0.25257917,-0.0176615855,0.1554842855,0.095357126,0.273488709,0.4033710245,0.315989883,0.1590199635,-0.1231287195,-0.5047616695,-0.769960188,-0.704329038,-0.615431288,-0.598404038,3082,"DG_s15",3.085,3.791,6.023,6.025,18,18,10,10,2.232,"Right",18,18,0,0,0,0,0,0,0,0,0,0,"Equal",8,8,10,18,10,18
"47",2,"LHB8-LHB9",0.08082460025,0.01319644275,-0.01850999875,0.37868600125,0.76600023875,1.05438397125,1.27834425675,1.03497965675,0.65591843675,0.52419303675,0.48545799515,0.37385849515,0.10728046515,-0.27529578485,-0.53821239325,3082,"DG_s15",3.085,3.791,6.023,6.025,18,18,10,10,2.232,"Right",18,18,0,0,0,0,0,0,0,0,0,0,"Equal",8,8,10,18,10,18
"48",2,"LHB6-LHB7",0.31400237,0.18531927,-0.13682543,-0.324444578,-0.730412278,-0.928452837,-1.0509558725,-1.3210201745,-1.3433999245,-1.5658376155,-1.71486218,-1.60289573,-1.52478858,-1.49731628,-1.46514953,3082,"DG_s15",3.085,3.791,6.023,6.025,18,18,10,10,2.232,"Right",18,18,0,0,0,0,0,0,0,0,0,0,"Equal",8,8,10,18,10,18
"49",2,"LHB7-LHB8",0.3324682625,0.5076020925,0.607738538,0.847473138,0.911715788,0.895372358,0.821408342,0.435825192,0.2574055285,0.3351040285,0.416180351,0.619345751,0.497472743,0.086073643,-0.204901857,3082,"DG_s15",3.085,3.791,6.023,6.025,18,18,10,10,2.232,"Right",18,18,0,0,0,0,0,0,0,0,0,0,"Equal",8,8,10,18,10,18
"50",2,"LAM6-LAM7",-0.38678341,-0.5199773135,-0.3348705035,0.00820094650000003,0.7269381965,1.0709546,0.899293072,0.514457322,-0.1646137619,-0.3321803119,-0.0703740339,0.1695578161,0.5305291,0.4596821,0.30180275,3082,"DG_s15",3.085,3.791,6.023,6.025,18,18,10,10,2.232,"Right",18,18,0,0,0,0,0,0,0,0,0,0,"Equal",8,8,10,18,10,18
"51",2,"LAM7-LAM8",0.297136643,0.465823733,0.427940533,0.41520410975,0.7846407299,1.3666453799,1.7264139799,1.80244981515,1.2888757765,0.4396107765,-0.0804902345,-0.0757195528,-0.0440664528,-0.0284598028,-0.1334541918,3082,"DG_s15",3.085,3.791,6.023,6.025,18,18,10,10,2.232,"Right",18,18,0,0,0,0,0,0,0,0,0,0,"Equal",8,8,10,18,10,18
"52",2,"LHH6-LHH7",0.3042643915,-0.1075262585,-0.2273711085,-0.215521875,-0.106860216,0.0874701339999999,-0.0352563705000001,-0.134704631,-0.27116731405,-0.39717616405,-0.35837680955,-0.21212032955,0.00445488449999998,-0.1078149355,-0.0948709355,3082,"DG_s15",3.085,3.791,6.023,6.025,18,18,10,10,2.232,"Right",18,18,0,0,0,0,0,0,0,0,0,0,"Equal",8,8,10,18,10,18
"53",2,"LHH7-LHH8",-0.021735977,0.2151904325,0.6605174325,1.0362789675,1.0526263025,1.522615793,1.748816593,1.483436594,1.395130359,0.847866974,0.194822179,-0.109629022,-0.081538072,-0.150298587,-0.155417742,3082,"DG_s15",3.085,3.791,6.023,6.025,18,18,10,10,2.232,"Right",18,18,0,0,0,0,0,0,0,0,0,0,"Equal",8,8,10,18,10,18
"54",2,"LTT9-LTT10",-0.19898654765,-0.09322450315,0.0437692,0.26244555,0.39800775,0.46259037,0.37338336,0.07092840725,-0.14830746975,0.08043013025,0.38538934025,0.309316796,0.457626223,0.292477723,0.187131123,3082,"DG_s15",3.085,3.791,6.023,6.025,18,18,10,10,2.232,"Right",18,18,0,0,0,0,0,0,0,0,0,0,"Equal",8,8,10,18,10,18
"55",2,"LAM8-LAM9",0.390507177,0.476402927,0.400659177,0.61617119,0.823622765,0.653406175,0.500025795,-0.04735919,-0.11893896735,-0.17188091735,-0.23385949785,0.15897853715,0.6451382595,0.9554688495,1.22872906,3082,"DG_s15",3.085,3.791,6.023,6.025,18,18,10,10,2.232,"Right",18,18,0,0,0,0,0,0,0,0,0,0,"Equal",8,8,10,18,10,18
"56",2,"LHB5-LHB6",-0.4318866535,-0.474423539,-0.3491943685,-0.0701715415,0.2903736585,0.2794650135,0.042793535,-0.094563115,-0.049476015,0.3106564955,0.561814774,0.446221894,0.356387758,0.207037263,0.071653833,3082,"DG_s15",3.085,3.791,6.023,6.025,18,18,10,10,2.232,"Right",18,18,0,0,0,0,0,0,0,0,0,0,"Equal",8,8,10,18,10,18
"57",2,"LAM9-LAM10",-0.5078453785,-0.7184307385,-0.5574217395,-0.0243654395,0.7891278605,1.2784680555,1.359887079,0.9361612185,0.2774293185,-0.0264694505,0.0481531495,0.18870681,0.2462513805,0.1272834245,-0.12876468885,3082,"DG_s15",3.085,3.791,6.023,6.025,18,18,10,10,2.232,"Right",18,18,0,0,0,0,0,0,0,0,0,0,"Equal",8,8,10,18,10,18
"58",2,"LIP3-LIP4",0.254943123,0.191653257,0.632925757,0.8354484,0.990439601,1.2612573075,1.046601394,0.694832494,0.335181294,0.113877634,0.4667157975,0.9783399475,1.3763542475,1.2906678385,0.769050843,3082,"DG_s15",3.085,3.791,6.023,6.025,18,18,10,10,2.232,"Right",18,18,0,0,0,0,0,0,0,0,0,0,"Equal",8,8,10,18,10,18
"59",3,"LAM7-LAM8",0.616158735,0.7177508515,0.6765285515,0.5546340015,0.191263648,0.1400241075,0.3708843575,0.4930217575,0.540888293,0.4206353835,-0.0308042665,-0.5012848165,-0.4785281215,-0.2826019265,0.0225336235,3083,"DG_s15",7.026,7.731,9.383,9.385,10,26,10,10,1.652,"Right",10,26,16,16,0,0,16,0,16,0,-16,-16,"Disadvent",0,16,10,10,10,26
"60",3,"LAM2-LAM3",-0.3376125795,-0.0619534664999999,0.2506759835,0.2458639415,-0.1919532085,-0.4213518405,-0.5975115355,-0.8661782305,-0.6325226723,-0.4631836403,-0.4756166623,-0.2227351133,-0.0712604715,-0.151880814,-0.313930097,3083,"DG_s15",7.026,7.731,9.383,9.385,10,26,10,10,1.652,"Right",10,26,16,16,0,0,16,0,16,0,-16,-16,"Disadvent",0,16,10,10,10,26
"61",3,"LIP8-LIP9",-0.501814195,-0.157251895,0.101108251,0.2029332645,0.3241544295,0.2452315095,0.0031467135,-0.242975187,-0.5121629585,-0.3812621385,-0.039345582,0.036764618,0.0094354395,-0.1834010835,-0.2651516435,3083,"DG_s15",7.026,7.731,9.383,9.385,10,26,10,10,1.652,"Right",10,26,16,16,0,0,16,0,16,0,-16,-16,"Disadvent",0,16,10,10,10,26
"62",3,"LHH6-LHH7",-1.08525845,-1.10095369,-0.8055759375,-0.4469372995,-0.145247487,0.386835763,0.5624172105,0.1270204055,-0.3127128945,-0.8541601945,-1.3616288945,-1.4073243395,-1.288850415,-1.1512450874,-1.0615952874,3083,"DG_s15",7.026,7.731,9.383,9.385,10,26,10,10,1.652,"Right",10,26,16,16,0,0,16,0,16,0,-16,-16,"Disadvent",0,16,10,10,10,26
"63",3,"LAM4-LAM5",-0.111571215,0.196418164,0.643063164,1.028952414,1.341277194,1.369019865,1.252866265,1.003244228,0.720218209,0.811015959,0.803785228,0.835446567,0.999024986,0.86258303205,0.94362611305,3083,"DG_s15",7.026,7.731,9.383,9.385,10,26,10,10,1.652,"Right",10,26,16,16,0,0,16,0,16,0,-16,-16,"Disadvent",0,16,10,10,10,26
"64",3,"LTT8-LTT9",-0.4742501065,-0.3219161065,0.0794146515,0.4426697515,0.4988206735,0.156037774885,-0.205226250615,-0.501508026615,-0.357751698615,-0.16082555,-0.194569338,0.01997365755,0.02650290755,0.03425200755,0.07121786455,3083,"DG_s15",7.026,7.731,9.383,9.385,10,26,10,10,1.652,"Right",10,26,16,16,0,0,16,0,16,0,-16,-16,"Disadvent",0,16,10,10,10,26
"65",3,"LHB6-LHB7",-0.361802282,-0.3597935475,-0.3484789775,0.1389357755,0.3839469705,0.4024311705,0.0977712505,-0.2649466405,-0.3072221835,-0.1517596705,0.3402728795,0.190708186,0.1587985475,0.2365944825,-0.0927720385,3083,"DG_s15",7.026,7.731,9.383,9.385,10,26,10,10,1.652,"Right",10,26,16,16,0,0,16,0,16,0,-16,-16,"Disadvent",0,16,10,10,10,26
"66",3,"LIP7-LIP8",0.4406943315,0.5432369665,0.567182975,0.7698386995,0.878975343,0.724711336,0.6915173275,0.595600503,0.383342423,0.668539945,1.071316145,1.211271565,1.08470467,0.79790437,0.45901017,3083,"DG_s15",7.026,7.731,9.383,9.385,10,26,10,10,1.652,"Right",10,26,16,16,0,0,16,0,16,0,-16,-16,"Disadvent",0,16,10,10,10,26
"67",3,"LHB5-LHB6",0.0412788335,0.1733421955,0.605078394,1.170818172,1.646839822,1.85194231,1.62944906,1.0218636025,0.6100165525,0.340291231,0.282719781,0.4420548385,0.501840102,0.3101076735,-0.00923217650000002,3083,"DG_s15",7.026,7.731,9.383,9.385,10,26,10,10,1.652,"Right",10,26,16,16,0,0,16,0,16,0,-16,-16,"Disadvent",0,16,10,10,10,26
"68",3,"LAM1-LAM2",0.890115417,1.291299767,1.5000344655,1.4467502155,1.143245031,0.698274781,0.4307545675,0.2656571175,0.301067802,0.565917757,0.4923099525,0.3524220645,0.3163075645,0.3316710095,0.4549022635,3083,"DG_s15",7.026,7.731,9.383,9.385,10,26,10,10,1.652,"Right",10,26,16,16,0,0,16,0,16,0,-16,-16,"Disadvent",0,16,10,10,10,26
"69",3,"LHB4-LHB5",0.79332806813,0.953281787,1.369353932,1.623163832,1.5529649645,1.4455013769,1.1350230284,0.6528914034,0.4189426709,0.2700859085,0.164695632,0.174855407,0.227052957,0.261370107,0.117023832,3083,"DG_s15",7.026,7.731,9.383,9.385,10,26,10,10,1.652,"Right",10,26,16,16,0,0,16,0,16,0,-16,-16,"Disadvent",0,16,10,10,10,26
"70",3,"LHH5-LHH6",0.015080716,0.0681641865,0.2248438795,0.3533012795,0.6127241585,0.943327688,1.033193188,0.969006388,0.980804738,0.785460388,0.395115138,0.2034514234,0.0138127254,-0.0590019896,0.1025894439,3083,"DG_s15",7.026,7.731,9.383,9.385,10,26,10,10,1.652,"Right",10,26,16,16,0,0,16,0,16,0,-16,-16,"Disadvent",0,16,10,10,10,26
"71",3,"LIP5-LIP6",-0.6813504835,-0.529090334,0.016779116,0.529244716,0.591081926,0.551481269,0.157661449,-0.286357511,-0.300282461,-0.4444522535,-0.5937048835,-0.7787264235,-0.8052639335,-0.7051395615,-0.4203770115,3083,"DG_s15",7.026,7.731,9.383,9.385,10,26,10,10,1.652,"Right",10,26,16,16,0,0,16,0,16,0,-16,-16,"Disadvent",0,16,10,10,10,26
"72",3,"LAM9-LAM10",-0.0279159495,0.1999753505,0.6682930005,0.9235562605,1.023132584,1.127881584,0.886789234,0.735137882,0.566975025,0.573792675,0.6707065285,0.6776499565,0.8263134185,0.4558215135,0.3033667935,3083,"DG_s15",7.026,7.731,9.383,9.385,10,26,10,10,1.652,"Right",10,26,16,16,0,0,16,0,16,0,-16,-16,"Disadvent",0,16,10,10,10,26
"73",3,"LIP1-LIP2",-0.2454468675,-0.4922744075,-0.530844994,-0.377403444,-0.201092294,0.0305482625,-0.1576765535,-0.1705104935,-0.1521949485,-0.2610842005,-0.2042761505,-0.28964266196,-0.25920890696,0.02078828854,0.41620483854,3083,"DG_s15",7.026,7.731,9.383,9.385,10,26,10,10,1.652,"Right",10,26,16,16,0,0,16,0,16,0,-16,-16,"Disadvent",0,16,10,10,10,26
"74",3,"LHH4-LHH5",1.1287223605,1.027162849,1.090463949,1.000094349,1.074367132,1.416917652,1.327630452,1.250859302,1.386410952,1.579049152,1.758009552,1.714794902,1.2101502505,0.6653844505,0.3303984505,3083,"DG_s15",7.026,7.731,9.383,9.385,10,26,10,10,1.652,"Right",10,26,16,16,0,0,16,0,16,0,-16,-16,"Disadvent",0,16,10,10,10,26
"75",3,"LHH7-LHH8",0.026216743,0.240293404,0.485704254,0.557309078,0.614035762,0.562143536,0.458196496,0.846922972,0.966909793,1.248600808,1.487349898,1.173768798,1.291406643,1.307458793,0.952810628,3083,"DG_s15",7.026,7.731,9.383,9.385,10,26,10,10,1.652,"Right",10,26,16,16,0,0,16,0,16,0,-16,-16,"Disadvent",0,16,10,10,10,26
"76",3,"LAM3-LAM4",0.6368412339,0.7359706045,0.7209671545,0.8916508725,1.4622295425,1.70304975,1.483256645,1.203429795,0.612522195,0.2390333315,0.4981440365,0.8915595865,1.13693558075,1.30731671125,1.51027236125,3083,"DG_s15",7.026,7.731,9.383,9.385,10,26,10,10,1.652,"Right",10,26,16,16,0,0,16,0,16,0,-16,-16,"Disadvent",0,16,10,10,10,26
"77",3,"LIP3-LIP4",0.056559913,0.090526913,0.482515633,0.6940396275,0.451476534,0.19603613,-0.0259434,-0.07703445,0.1564892935,0.2799651475,0.3608254275,0.3352108375,0.2395555875,0.3486700875,0.3644066375,3083,"DG_s15",7.026,7.731,9.383,9.385,10,26,10,10,1.652,"Right",10,26,16,16,0,0,16,0,16,0,-16,-16,"Disadvent",0,16,10,10,10,26
"78",3,"LIP6-LIP7",0.14701574,-0.0406318975,0.0254102325,0.255724623,0.3177645495,0.2784971855,0.0879338405,-0.1836694595,-0.334608545,-0.20855833585,-0.01568218286,0.14965694214,0.09782655264,-0.11459394251,-0.0825700365,3083,"DG_s15",7.026,7.731,9.383,9.385,10,26,10,10,1.652,"Right",10,26,16,16,0,0,16,0,16,0,-16,-16,"Disadvent",0,16,10,10,10,26
"79",3,"LIP4-LIP5",0.2560494011,0.4219830241,0.4438391496,0.2917912701,0.0179509701,-0.1848016549,-0.2453404004,-0.2295119504,-0.1910961004,-0.3033616754,-0.5473704404,-0.7176639904,-0.8864721904,-0.7686065704,-0.5086150694,3083,"DG_s15",7.026,7.731,9.383,9.385,10,26,10,10,1.652,"Right",10,26,16,16,0,0,16,0,16,0,-16,-16,"Disadvent",0,16,10,10,10,26
"80",3,"LAM8-LAM9",-0.5950858435,-0.3797260885,-0.0278320385,0.2244099655,0.42794907,0.475317715,0.301844565,0.311234761,0.5013619065,0.6903040565,0.5572330665,0.3841644205,0.2362276155,-0.170107116,-0.2220379515,3083,"DG_s15",7.026,7.731,9.383,9.385,10,26,10,10,1.652,"Right",10,26,16,16,0,0,16,0,16,0,-16,-16,"Disadvent",0,16,10,10,10,26
"81",3,"LAM5-LAM6",-0.0409040845,-0.0568416665,-0.12781657,0.143418179,-0.0491951055,0.082911306,0.416055328,0.3934327815,0.6808377815,0.51009686445,0.18734087445,0.16173439095,-0.18890525905,-0.1706159595,0.0263000555,3083,"DG_s15",7.026,7.731,9.383,9.385,10,26,10,10,1.652,"Right",10,26,16,16,0,0,16,0,16,0,-16,-16,"Disadvent",0,16,10,10,10,26
"82",3,"LHB7-LHB8",-0.1984461239,-0.1408852739,0.0161514461,0.1021630521,0.015602826,0.142238911,-0.076853698,-0.1941488855,-0.1636395145,-0.000687479500000004,0.5666794205,0.628031802,0.926909809,0.964411944,0.5874470704,3083,"DG_s15",7.026,7.731,9.383,9.385,10,26,10,10,1.652,"Right",10,26,16,16,0,0,16,0,16,0,-16,-16,"Disadvent",0,16,10,10,10,26
"83",3,"LIP2-LIP3",0.11629184995,-0.08836486305,0.063683981,0.282554601,0.3968094705,0.3505394705,0.1460207855,-0.2241199145,-0.4390439545,-0.3878882545,-0.4706277045,-0.4768937545,-0.2772526919,-0.1443777279,-0.1557277349,3083,"DG_s15",7.026,7.731,9.383,9.385,10,26,10,10,1.652,"Right",10,26,16,16,0,0,16,0,16,0,-16,-16,"Disadvent",0,16,10,10,10,26
"84",3,"LHB9-LHB10",1.163688958,1.105677008,0.853675778,0.5219331785,0.3716190595,0.2010520794,0.3996139094,0.5180426089,0.7000278779,1.227192308,1.235395539,0.9431357705,0.8940331705,0.5709435295,0.4820792185,3083,"DG_s15",7.026,7.731,9.383,9.385,10,26,10,10,1.652,"Right",10,26,16,16,0,0,16,0,16,0,-16,-16,"Disadvent",0,16,10,10,10,26
"85",3,"LAM6-LAM7",-0.2430440094,-0.0981397994,0.1892487506,0.3607574746,0.7099119455,1.2031322355,1.2983742855,1.0000537805,0.72998428375,0.41184208375,0.11896629375,0.32424872525,0.446608549,0.3697974115,0.5720237015,3083,"DG_s15",7.026,7.731,9.383,9.385,10,26,10,10,1.652,"Right",10,26,16,16,0,0,16,0,16,0,-16,-16,"Disadvent",0,16,10,10,10,26
"86",3,"LHB8-LHB9",1.01091712495,1.13025515225,1.37923330975,1.09502636975,0.73608440125,0.79339512625,0.55362562425,0.22168826425,-0.02724711725,-0.16180672825,-0.00545352625000001,0.10593011325,0.54691346825,0.62156238975,0.47773413375,3083,"DG_s15",7.026,7.731,9.383,9.385,10,26,10,10,1.652,"Right",10,26,16,16,0,0,16,0,16,0,-16,-16,"Disadvent",0,16,10,10,10,26
"87",3,"LTT9-LTT10",-0.03945651,-0.0392572435,0.1142658384,0.2448333884,0.3823430629,0.4593158714,0.5273591675,0.692648849,0.5009555495,0.6024786545,0.6771954265,0.802194795,1.05350507,1.03926242,1.19576457,3083,"DG_s15",7.026,7.731,9.383,9.385,10,26,10,10,1.652,"Right",10,26,16,16,0,0,16,0,16,0,-16,-16,"Disadvent",0,16,10,10,10,26
"88",4,"LAM1-LAM2",1.391253445,1.53650295,1.092792728105,0.708808322755,0.490498068255,0.222257018255,0.25177179015,0.2426522555,0.44687036,0.548374271,0.614650066,0.644558006,0.385728736,0.2350992,0.399311057,3084,"DG_s15",10.386,11.091,13.747,13.749,16,4,10,10,2.656,"Right",16,4,12,12,0,0,0,-12,0,-12,12,12,"Advent",6,-6,10,16,10,4
"89",4,"LIP1-LIP2",0.17371865,0.460131056,1.002136006,1.643329156,1.976696756,1.997982593,1.746918943,1.0415562855,0.892839637,0.974328394,0.815460599,0.9992084165,0.960955509,0.712160674,0.556021519,3084,"DG_s15",10.386,11.091,13.747,13.749,16,4,10,10,2.656,"Right",16,4,12,12,0,0,0,-12,0,-12,12,12,"Advent",6,-6,10,16,10,4
"90",4,"LHB8-LHB9",-1.21886647,-1.2386233215,-1.1882257195,-1.1655259195,-0.8387738695,-0.5804228195,-0.70728864,-1.00418947,-1.58964297,-2.05191127,-2.0715484,-2.11901045,-2.1766804,-2.25243995,-2.11743245,3084,"DG_s15",10.386,11.091,13.747,13.749,16,4,10,10,2.656,"Right",16,4,12,12,0,0,0,-12,0,-12,12,12,"Advent",6,-6,10,16,10,4
"91",4,"LIP7-LIP8",0.653113834,0.596866559,0.535949939,0.701497129,0.790992455,0.968460595,1.087383756,1.0451520255,1.1407826755,1.2647686255,1.242646806,1.0813068415,0.7687835485,0.6246708235,0.762657572,3084,"DG_s15",10.386,11.091,13.747,13.749,16,4,10,10,2.656,"Right",16,4,12,12,0,0,0,-12,0,-12,12,12,"Advent",6,-6,10,16,10,4
"92",4,"LAM7-LAM8",0.138638859,0.497430509,0.4519292665,0.380933328,0.761507578,1.226820628,1.8368393185,2.024556807,1.566556614,0.874375729,0.465853579,0.062338295,0.00392058204000001,-0.08099374846,-0.30050721846,3084,"DG_s15",10.386,11.091,13.747,13.749,16,4,10,10,2.656,"Right",16,4,12,12,0,0,0,-12,0,-12,12,12,"Advent",6,-6,10,16,10,4
"93",4,"LAM2-LAM3",0.7929952215,0.9030168775,0.812108999,0.611109099,0.421508926,0.493491536,0.590400492,0.927911012,1.464197435,1.4950049765,1.3315709615,1.0285750015,0.528887511,0.2098667166,0.4089365786,3084,"DG_s15",10.386,11.091,13.747,13.749,16,4,10,10,2.656,"Right",16,4,12,12,0,0,0,-12,0,-12,12,12,"Advent",6,-6,10,16,10,4
"94",4,"LAM5-LAM6",1.403354341,1.703619436,1.7802815245,1.0692136245,0.1188306245,-0.1636027775,0.189173504,0.697582454,0.9864289925,1.0737340195,1.0365565195,0.7049185435,0.550845955,0.4072710659,0.1548152159,3084,"DG_s15",10.386,11.091,13.747,13.749,16,4,10,10,2.656,"Right",16,4,12,12,0,0,0,-12,0,-12,12,12,"Advent",6,-6,10,16,10,4
"95",4,"LAM4-LAM5",0.5128164835,1.0764432735,1.1184090235,1.4082948935,1.2725005435,1.0992645435,1.1208598435,0.849254806,0.414654806,0.093547106,-0.249497044,-0.2993345955,0.0219373045,0.034503618,0.315788618,3084,"DG_s15",10.386,11.091,13.747,13.749,16,4,10,10,2.656,"Right",16,4,12,12,0,0,0,-12,0,-12,12,12,"Advent",6,-6,10,16,10,4
"96",4,"LAM6-LAM7",1.2711571765,1.7884087215,1.6350965215,1.5952108215,1.8183673215,2.2027888215,2.5975007715,2.4785499215,1.819253415,1.1031845744,0.55371651511,0.20473096511,0.13304222161,-0.14830763779,-0.2662033085,3084,"DG_s15",10.386,11.091,13.747,13.749,16,4,10,10,2.656,"Right",16,4,12,12,0,0,0,-12,0,-12,12,12,"Advent",6,-6,10,16,10,4
"97",4,"LHB9-LHB10",0.000563060999999997,0.157020602,0.259604702,0.309350955,0.491807957,0.4220418625,0.0695233625,-0.1617532875,-0.5043871875,-0.6212299115,-0.3088670615,-0.1035441265,0.1181551135,0.212569152,0.1251046785,3084,"DG_s15",10.386,11.091,13.747,13.749,16,4,10,10,2.656,"Right",16,4,12,12,0,0,0,-12,0,-12,12,12,"Advent",6,-6,10,16,10,4
"98",4,"LIP2-LIP3",0.2156335149,0.6390940149,0.6678116159,0.695761706,0.6526017835,0.437965674,0.719504473,0.586037408,0.423097197,0.4229941425,0.1557027925,0.1470108225,0.269306832,0.404137496,0.55944420455,3084,"DG_s15",10.386,11.091,13.747,13.749,16,4,10,10,2.656,"Right",16,4,12,12,0,0,0,-12,0,-12,12,12,"Advent",6,-6,10,16,10,4
"99",4,"LAM3-LAM4",-0.0626193215,0.0360117785,-0.0362208995,-0.1263480435,0.0360246045,0.2149229045,0.5138753045,0.8201201045,0.7337957015,0.4255701015,0.1544946015,-0.05986412664,-0.11141450664,-0.01719705664,0.04503859901,3084,"DG_s15",10.386,11.091,13.747,13.749,16,4,10,10,2.656,"Right",16,4,12,12,0,0,0,-12,0,-12,12,12,"Advent",6,-6,10,16,10,4
"100",4,"LIP5-LIP6",0.150434891,0.17036888,0.37273462,0.87503237,1.48892387,1.922909,2.1261017,1.859306445,1.6143017954,1.3827985454,1.0044824304,0.7725251854,0.480265085,0.089383585,-0.00190603499999997,3084,"DG_s15",10.386,11.091,13.747,13.749,16,4,10,10,2.656,"Right",16,4,12,12,0,0,0,-12,0,-12,12,12,"Advent",6,-6,10,16,10,4
"101",4,"LIP4-LIP5",0.231223817,0.3543019015,0.2610293015,0.2188704725,0.3376908225,0.369965076,0.491473776,0.5619774045,0.5449506545,0.5907611535,0.6056464035,0.632175781,0.6734047695,0.4473442635,0.0383027635,3084,"DG_s15",10.386,11.091,13.747,13.749,16,4,10,10,2.656,"Right",16,4,12,12,0,0,0,-12,0,-12,12,12,"Advent",6,-6,10,16,10,4
"102",4,"LTT8-LTT9",0.104690525865,0.299853641015,0.236952900515,0.388627960065,0.360172660065,0.447751836415,0.382341150965,0.292232991415,-0.00826880858500001,-0.353282808585,-0.295431670635,-0.084907570635,0.043405581865,0.369043406865,0.875319764365,3084,"DG_s15",10.386,11.091,13.747,13.749,16,4,10,10,2.656,"Right",16,4,12,12,0,0,0,-12,0,-12,12,12,"Advent",6,-6,10,16,10,4
"103",4,"LHH7-LHH8",0.32761063405,0.55503303905,0.60391221755,0.57068839605,0.37301403312,0.18308217462,0.41372769612,0.49527443647,0.4217901494,0.3358176759,0.2593834009,0.15504295355,0.23253342455,0.64687857655,0.96867420155,3084,"DG_s15",10.386,11.091,13.747,13.749,16,4,10,10,2.656,"Right",16,4,12,12,0,0,0,-12,0,-12,12,12,"Advent",6,-6,10,16,10,4
"104",4,"LTT9-LTT10",0.367448709,0.728900359,0.6368285595,0.706981694,0.718917256,0.815744906,1.1207252205,1.0286798685,0.819046853,0.631706403,0.319085509,0.3172398255,0.624234291,0.811081791,1.115808185,3084,"DG_s15",10.386,11.091,13.747,13.749,16,4,10,10,2.656,"Right",16,4,12,12,0,0,0,-12,0,-12,12,12,"Advent",6,-6,10,16,10,4
"105",4,"LHB5-LHB6",0.004601093,0.086815743,-0.24131229305,-0.37328460255,-0.25636705705,-0.36944122405,-0.358120638,-0.289759317,-0.098709037,0.17296183,0.171092181,0.1029643995,-0.1403630925,-0.3206331025,0.00624989650000002,3084,"DG_s15",10.386,11.091,13.747,13.749,16,4,10,10,2.656,"Right",16,4,12,12,0,0,0,-12,0,-12,12,12,"Advent",6,-6,10,16,10,4
"106",4,"LIP3-LIP4",0.237371884,0.2185822,0.129250257,0.309077544,0.238387726,0.178818965,0.158888715,-0.050828422,-0.178874265,-0.29099595,-0.22088765,-0.089612492,0.095232553,0.265502093,0.427629963,3084,"DG_s15",10.386,11.091,13.747,13.749,16,4,10,10,2.656,"Right",16,4,12,12,0,0,0,-12,0,-12,12,12,"Advent",6,-6,10,16,10,4
"107",4,"LHB7-LHB8",0.58823085505,0.52099665955,0.5972982125,0.676511964,0.676985264,0.7373254245,0.591290031,0.269845581,-0.217213419,-0.431154624,-0.411123574,-0.584866424,-0.429571049,-0.195061699,-0.147825424,3084,"DG_s15",10.386,11.091,13.747,13.749,16,4,10,10,2.656,"Right",16,4,12,12,0,0,0,-12,0,-12,12,12,"Advent",6,-6,10,16,10,4
"108",4,"LHH6-LHH7",1.5164874514895,1.6787192794895,1.3150207294895,0.9541941294895,1.0386399294895,1.2198378294895,1.1639659204895,0.9574052454895,0.7410103034895,0.5720267034895,0.5595499254895,0.5069822004895,0.3958631424895,0.0782946424895,-0.1129667705105,3084,"DG_s15",10.386,11.091,13.747,13.749,16,4,10,10,2.656,"Right",16,4,12,12,0,0,0,-12,0,-12,12,12,"Advent",6,-6,10,16,10,4
"109",4,"LAM8-LAM9",0.2128952195,0.2144387705,0.3553829873,0.5679073288,0.5282050243,0.4538134693,0.6675258975,0.9022309475,1.026441452,1.1484144455,1.0176625455,0.567212446,0.357912061,0.082509256,-0.0409087625,3084,"DG_s15",10.386,11.091,13.747,13.749,16,4,10,10,2.656,"Right",16,4,12,12,0,0,0,-12,0,-12,12,12,"Advent",6,-6,10,16,10,4
"110",4,"LIP6-LIP7",-0.378055695,-0.361268045,-0.153743942,0.094893458,0.475708108,0.799465308,0.893525055,0.6473042165,0.4630995145,0.5014780645,0.4171687045,0.47285191329,0.33795676529,0.07557903029,-0.08666105971,3084,"DG_s15",10.386,11.091,13.747,13.749,16,4,10,10,2.656,"Right",16,4,12,12,0,0,0,-12,0,-12,12,12,"Advent",6,-6,10,16,10,4
"111",4,"LHB4-LHB5",-0.0890533155,-0.1475346655,0.001505068,0.245871829,0.206391229,0.173899579,0.181181979,0.051329079,0.050619029,0.117926479,0.092472679,-0.04591341555,-0.31816936555,-0.64558991555,-0.83854671555,3084,"DG_s15",10.386,11.091,13.747,13.749,16,4,10,10,2.656,"Right",16,4,12,12,0,0,0,-12,0,-12,12,12,"Advent",6,-6,10,16,10,4
"112",4,"LHH4-LHH5",0.384377773,0.825931328,0.814007428,1.116114353,1.3215764495,1.2629933995,1.140477887,0.795233487,0.435237006,0.376212206,0.5747838685,0.7121312385,0.5220798195,0.4101494495,0.4091805495,3084,"DG_s15",10.386,11.091,13.747,13.749,16,4,10,10,2.656,"Right",16,4,12,12,0,0,0,-12,0,-12,12,12,"Advent",6,-6,10,16,10,4
"113",4,"LIP8-LIP9",-0.379473971,-0.1406483715,0.0992979785,0.5612784785,0.7646002595,0.91039381,0.86267975,0.5412209815,0.5276275015,0.4075412465,0.1270943565,0.028705525,-0.171187095,-0.45751284,-0.49611789,3084,"DG_s15",10.386,11.091,13.747,13.749,16,4,10,10,2.656,"Right",16,4,12,12,0,0,0,-12,0,-12,12,12,"Advent",6,-6,10,16,10,4
"114",4,"LHH5-LHH6",0.941526238,1.476635938,1.543940988,1.617603288,1.686067288,1.525796838,1.080364598,0.7197051075,0.4135099575,0.2978541075,0.41746957695,0.36893294495,0.36068794495,0.15355209995,-0.0106628795,3084,"DG_s15",10.386,11.091,13.747,13.749,16,4,10,10,2.656,"Right",16,4,12,12,0,0,0,-12,0,-12,12,12,"Advent",6,-6,10,16,10,4
"115",4,"LAM9-LAM10",0.1661491605,0.6207351605,0.6756691555,0.7498350975,1.1378510125,1.6071072625,2.1635852175,2.4597568525,2.1422596525,1.45120792,0.96058907,0.647875978,0.376564888,0.4551670905,0.7326814405,3084,"DG_s15",10.386,11.091,13.747,13.749,16,4,10,10,2.656,"Right",16,4,12,12,0,0,0,-12,0,-12,12,12,"Advent",6,-6,10,16,10,4
"116",4,"LHB6-LHB7",0.4592669185,0.431632908,0.170643297,-0.104900533,-0.363780863,-0.573211255,-0.442591355,-0.42951299,-0.3767319255,-0.1540587805,-0.1444794322,-0.2735698197,0.0148785458,0.4674122008,0.6781254325,3084,"DG_s15",10.386,11.091,13.747,13.749,16,4,10,10,2.656,"Right",16,4,12,12,0,0,0,-12,0,-12,12,12,"Advent",6,-6,10,16,10,4
"117",5,"LIP8-LIP9",-0.0619108705,0.1803731945,0.2622241125,-0.057481826,-0.30151682,-0.34621427,-0.2464472865,-0.1588737365,-0.2268244925,-0.3479229675,-0.194900519,0.243340981,0.3500892735,0.533011474,0.708158224,3085,"DG_s15",14.75,15.456,17.897,17.899,10,10,6,6,2.441,"Right",6,6,0,0,0,0,0,0,0,0,0,0,"10-10",4,4,6,10,6,10
"118",5,"LHH7-LHH8",-0.0736229905,-0.0874661725,-0.1988669215,-0.0979942725,0.1516344775,0.3867542775,0.41186493,0.16341628,0.01965553,-0.22496677,-0.220058251,0.024655349,0.238938749,0.619882949,0.992858545,3085,"DG_s15",14.75,15.456,17.897,17.899,10,10,6,6,2.441,"Right",6,6,0,0,0,0,0,0,0,0,0,0,"10-10",4,4,6,10,6,10
"119",5,"LAM5-LAM6",1.09562256015,1.45307691015,1.43204157015,1.07387187015,0.71593292015,0.74495332015,0.78092027015,0.72309702015,0.79119937015,0.55581638515,0.25483923515,0.18327207015,0.43546717015,0.70180343515,0.84531036915,3085,"DG_s15",14.75,15.456,17.897,17.899,10,10,6,6,2.441,"Right",6,6,0,0,0,0,0,0,0,0,0,0,"10-10",4,4,6,10,6,10
"120",5,"LAM2-LAM3",-0.26889655,-0.41686915,-0.232941175,0.286661425,0.60461442,0.68050822,0.595200825,0.297445319,0.362958874,0.591929958,0.544111428,0.6008501375,0.6166663375,0.6501734745,1.2329557745,3085,"DG_s15",14.75,15.456,17.897,17.899,10,10,6,6,2.441,"Right",6,6,0,0,0,0,0,0,0,0,0,0,"10-10",4,4,6,10,6,10
"121",5,"LIP6-LIP7",-0.284393495,-0.429491386,-0.774288081,-0.892358081,-0.8386319835,-0.6922851425,-0.4161905975,-0.2415949975,0.0881038724999998,0.0541236654999999,-0.0505544230000001,0.131536577,-0.0720074730000001,-0.203146049,-0.309592657,3085,"DG_s15",14.75,15.456,17.897,17.899,10,10,6,6,2.441,"Right",6,6,0,0,0,0,0,0,0,0,0,0,"10-10",4,4,6,10,6,10
"122",5,"LAM9-LAM10",0.40647518075,0.5568674776,0.5792146408,0.5373159778,0.1769131778,-0.0916911222,-0.0478463004,-0.1157085504,-0.0771084004,0.0501783711,0.2209591861,0.3956471711,0.6816513711,0.9600380496,1.0354065996,3085,"DG_s15",14.75,15.456,17.897,17.899,10,10,6,6,2.441,"Right",6,6,0,0,0,0,0,0,0,0,0,0,"10-10",4,4,6,10,6,10
"123",5,"LIP4-LIP5",0.976987967,1.0148262855,0.712512553,0.126227463,0.073637252,-0.0487274285,-0.243246361,-0.419609571,-0.668790351,-0.579207591945,-0.491644048945,-0.521994998945,-0.331231962445,-0.2012764665,-0.150410383,3085,"DG_s15",14.75,15.456,17.897,17.899,10,10,6,6,2.441,"Right",6,6,0,0,0,0,0,0,0,0,0,0,"10-10",4,4,6,10,6,10
"124",5,"LHH6-LHH7",0.7071251985,0.5789027282,0.4203816982,-0.0638879018,-0.2140575778,-0.107812666,-0.064588743,0.005079107,-0.126055917,-0.2850472845,-0.0209042575,0.2790372425,0.341063791,0.296595201,0.205829461,3085,"DG_s15",14.75,15.456,17.897,17.899,10,10,6,6,2.441,"Right",6,6,0,0,0,0,0,0,0,0,0,0,"10-10",4,4,6,10,6,10
"125",5,"LIP7-LIP8",-0.117892608,0.016202842,-0.194675143,-0.0518928725000001,-0.0278167225,-0.0111186725000001,0.4575923575,0.6260674775,0.4231569275,0.2055133925,-0.205389826,-0.100432276,0.0402904239999999,0.289146859,0.5636020275,3085,"DG_s15",14.75,15.456,17.897,17.899,10,10,6,6,2.441,"Right",6,6,0,0,0,0,0,0,0,0,0,0,"10-10",4,4,6,10,6,10
"126",5,"LIP1-LIP2",-0.244239297,-0.4072911435,-0.265384567,-0.149816452,-0.295394775,0.050508575,0.125691418,0.046044803,0.459424483,0.246869513,0.0709967885,0.0225761379,-0.2376182212,-0.19948529005,-0.26746643555,3085,"DG_s15",14.75,15.456,17.897,17.899,10,10,6,6,2.441,"Right",6,6,0,0,0,0,0,0,0,0,0,0,"10-10",4,4,6,10,6,10
"127",5,"LAM1-LAM2",-0.30025229905,-0.24561629405,0.02683397645,0.15527593645,-0.03147850105,-0.22870215105,-0.49390021915,-0.64139824915,-0.70755719915,-0.85673349915,-1.11128728105,-0.94678533755,-0.43470798755,-0.28116477105,-0.08738430655,3085,"DG_s15",14.75,15.456,17.897,17.899,10,10,6,6,2.441,"Right",6,6,0,0,0,0,0,0,0,0,0,0,"10-10",4,4,6,10,6,10
"128",5,"LAM4-LAM5",0.437117943,0.4938363945,0.317286739,-0.116776061,-0.587827261,-0.798721521,-0.732934671,-0.734885871,-0.601740021,-0.440499096,-0.369532431,-0.369508931,-0.27520156214,-0.05824978714,0.39744594786,3085,"DG_s15",14.75,15.456,17.897,17.899,10,10,6,6,2.441,"Right",6,6,0,0,0,0,0,0,0,0,0,0,"10-10",4,4,6,10,6,10
"129",5,"LIP5-LIP6",0.716181508,0.90275909,0.94327314,0.72344569,0.3569599405,0.0863158405,-0.3614509445,-0.3510948445,0.044092605,0.1416212365,0.1206377715,-0.1994191785,-0.5863140285,-0.489787627,-0.151709727,3085,"DG_s15",14.75,15.456,17.897,17.899,10,10,6,6,2.441,"Right",6,6,0,0,0,0,0,0,0,0,0,0,"10-10",4,4,6,10,6,10
"130",5,"LIP2-LIP3",0.70377935915,0.41987694215,0.480474437,0.3590707225,0.3211062675,0.52593549,0.585651546,0.7355513605,1.1137216755,1.0468138495,0.96623186825,1.03664001825,0.92861391825,1.21773152175,1.095996948,3085,"DG_s15",14.75,15.456,17.897,17.899,10,10,6,6,2.441,"Right",6,6,0,0,0,0,0,0,0,0,0,0,"10-10",4,4,6,10,6,10
"131",5,"LAM7-LAM8",-0.2905518231,0.0633094769,0.5091873269,1.0001028269,1.4022575259,1.5563519259,1.3276879264,1.0250519964,0.6886783464,0.3383830164,0.2534359981,0.1727312881,0.1349474986,-0.0444265214,-0.2396162536,3085,"DG_s15",14.75,15.456,17.897,17.899,10,10,6,6,2.441,"Right",6,6,0,0,0,0,0,0,0,0,0,0,"10-10",4,4,6,10,6,10
"132",5,"LHB8-LHB9",-0.8080012,-0.620912671,-0.355861897,-0.215601402,-0.3543385794,-0.2883811034,-0.39330024155,-0.77691904155,-0.84934324415,-0.96567674415,-1.023734248,-0.677460998,-0.5844209545,-0.6326775645,-0.3745425965,3085,"DG_s15",14.75,15.456,17.897,17.899,10,10,6,6,2.441,"Right",6,6,0,0,0,0,0,0,0,0,0,0,"10-10",4,4,6,10,6,10
"133",5,"LHB4-LHB5",-1.0733784285,-1.1179822285,-1.0155471285,-0.9125299285,-0.726711683,-0.4897648565,-0.5377016065,-0.6146655365,-0.478064267,-0.1907085935,0.054152256,0.323636456,0.1755363595,-0.3075960905,-0.49164624,3085,"DG_s15",14.75,15.456,17.897,17.899,10,10,6,6,2.441,"Right",6,6,0,0,0,0,0,0,0,0,0,0,"10-10",4,4,6,10,6,10
"134",5,"LAM8-LAM9",0.686576266,0.790973441,0.950733126,0.652585307,0.470012572,0.5399918072,0.2821255967,0.2031208657,0.1730093207,0.1463969798,0.3414848613,0.8192495613,1.5126121913,1.882440572,2.0409678905,3085,"DG_s15",14.75,15.456,17.897,17.899,10,10,6,6,2.441,"Right",6,6,0,0,0,0,0,0,0,0,0,0,"10-10",4,4,6,10,6,10
"135",5,"LHB9-LHB10",0.3879154785,-0.0853958215,-0.038821239,0.188109611,0.367657211,0.608563586,0.487199671,0.212255171,-0.085190329,-0.336309754,-0.08070866,0.57638634,1.02182459,1.18499628905,1.20565076905,3085,"DG_s15",14.75,15.456,17.897,17.899,10,10,6,6,2.441,"Right",6,6,0,0,0,0,0,0,0,0,0,0,"10-10",4,4,6,10,6,10
"136",5,"LHB6-LHB7",-0.5801346075,-0.697758343,-0.8241756515,-0.8464888965,-0.8040360965,-0.7239679465,-0.7268350465,-0.7980610465,-0.7703044215,-0.6045934245,-0.1157948245,0.7074062255,1.3920039005,1.5660822035,1.3311314035,3085,"DG_s15",14.75,15.456,17.897,17.899,10,10,6,6,2.441,"Right",6,6,0,0,0,0,0,0,0,0,0,0,"10-10",4,4,6,10,6,10
"137",5,"LHB5-LHB6",-0.9265582662,-0.8666984922,-0.6317330472,-0.6781708472,-0.4668110182,-0.61580036085,-0.87310840585,-0.95569975585,-0.83596137635,-0.4120421927,0.1851567073,0.8346247573,0.9367263488,0.6190223138,0.2946748098,3085,"DG_s15",14.75,15.456,17.897,17.899,10,10,6,6,2.441,"Right",6,6,0,0,0,0,0,0,0,0,0,0,"10-10",4,4,6,10,6,10
"138",5,"LIP3-LIP4",-0.0728385625,-0.12791408755,-0.07797421355,-0.2520056907,-0.1724870657,-0.27968273415,-0.43744698315,-0.52061173195,-0.66855896695,-0.59214962595,-0.34720387595,-0.273375594,-0.414746109,-0.406404462,-0.311145712,3085,"DG_s15",14.75,15.456,17.897,17.899,10,10,6,6,2.441,"Right",6,6,0,0,0,0,0,0,0,0,0,0,"10-10",4,4,6,10,6,10
"139",5,"LAM6-LAM7",0.43284556765,0.38491501465,0.4974022435,0.1821201435,-0.1428933415,-0.2254586475,-0.2680044125,-0.1918379125,-0.0634815125,0.1089241125,0.249912809,0.149561374,0.401090474,0.612340099,0.9603817025,3085,"DG_s15",14.75,15.456,17.897,17.899,10,10,6,6,2.441,"Right",6,6,0,0,0,0,0,0,0,0,0,0,"10-10",4,4,6,10,6,10
"140",5,"LHH4-LHH5",-0.5014701865,-0.6162552343,-0.3520477093,-0.1275098093,-0.0463155823,-0.01135274851,-0.11523855286,-0.23556675836,-0.08000628536,0.18198622015,0.4376850245,0.82618298,0.780181505,0.400003505,0.034383905,3085,"DG_s15",14.75,15.456,17.897,17.899,10,10,6,6,2.441,"Right",6,6,0,0,0,0,0,0,0,0,0,0,"10-10",4,4,6,10,6,10
"141",5,"LHH5-LHH6",0.1001992875,-0.1885831935,-0.140564554,-0.385098071,-0.758373671,-0.86981186,-0.91792466,-0.88521316,-0.6649395525,-0.4189451025,-0.1939750025,0.000835697499999982,-0.100121587,-0.141806487,0.001651863,3085,"DG_s15",14.75,15.456,17.897,17.899,10,10,6,6,2.441,"Right",6,6,0,0,0,0,0,0,0,0,0,0,"10-10",4,4,6,10,6,10
"142",5,"LAM3-LAM4",-0.05036590155,0.18788566495,0.44729071495,0.63797997495,0.45421037795,0.03230852795,-0.15702746205,-0.2051678876,-0.0424453656,0.0907871294,0.0151605194,-0.13022316505,-0.36426221505,-0.39302582305,-0.15308272305,3085,"DG_s15",14.75,15.456,17.897,17.899,10,10,6,6,2.441,"Right",6,6,0,0,0,0,0,0,0,0,0,0,"10-10",4,4,6,10,6,10
"143",5,"LTT8-LTT9",-0.2054754395,-0.15412532,-0.027702537,-0.00660082200000001,0.1350746295,0.2139340295,0.14706348,0.3236687265,0.431962871,0.525427521,0.7213545725,0.6469575635,0.3289841635,-0.0115679865,-0.1575808715,3085,"DG_s15",14.75,15.456,17.897,17.899,10,10,6,6,2.441,"Right",6,6,0,0,0,0,0,0,0,0,0,0,"10-10",4,4,6,10,6,10
"144",5,"LHB7-LHB8",-0.3475741165,-0.3454542665,-0.1632920665,0.0833199635,0.1199020135,0.317895605,0.1636854705,-0.1599982095,-0.1516493595,-0.276649501,-0.326166448,0.112748902,0.555978902,0.834466652,1.3921206335,3085,"DG_s15",14.75,15.456,17.897,17.899,10,10,6,6,2.441,"Right",6,6,0,0,0,0,0,0,0,0,0,0,"10-10",4,4,6,10,6,10
"145",5,"LTT9-LTT10",0.6919126355,0.7889088655,0.7848539025,0.7418642525,0.4576925435,0.2064888135,0.0478941965,-0.1916605535,-0.2943118445,-0.2713889945,-0.3374440945,-0.4366309945,-0.267499704,0.140020396,0.505695711,3085,"DG_s15",14.75,15.456,17.897,17.899,10,10,6,6,2.441,"Right",6,6,0,0,0,0,0,0,0,0,0,0,"10-10",4,4,6,10,6,10
"146",6,"LTT9-LTT10",0.8558333425,1.2088499425,1.4167144325,1.59030275,1.4880687,1.145674045,0.803688345,0.5256882994,0.4249078314,0.3425188364,0.4408745054,0.691880001,0.905376269,1.167326319,1.3380739,3086,"DG_s15",18.9,19.605,22.571,22.573,10,10,8,11,2.966,"Right",8,11,3,0,3,3,3,0,0,0,-3,0,"10-10",2,-1,8,10,11,10
"147",6,"LHB6-LHB7",1.551816763,2.0106258595,2.26170859,2.43842055,2.135082,1.6408947925,1.2269671385,0.9234791595,0.5115651095,0.630518343,0.859188397,0.8810262795,0.9216245595,0.7157697335,0.5178178835,3086,"DG_s15",18.9,19.605,22.571,22.573,10,10,8,11,2.966,"Right",8,11,3,0,3,3,3,0,0,0,-3,0,"10-10",2,-1,8,10,11,10
"148",6,"LHB5-LHB6",1.20587623015,1.08760795595,0.55960210595,0.17062600595,-0.10430740605,-0.33491718185,-0.30665863185,-0.26811123185,-0.18606198185,0.12417663365,0.55139163365,0.63635135365,1.27480330365,1.71563303815,1.60934133815,3086,"DG_s15",18.9,19.605,22.571,22.573,10,10,8,11,2.966,"Right",8,11,3,0,3,3,3,0,0,0,-3,0,"10-10",2,-1,8,10,11,10
"149",6,"LIP1-LIP2",0.32331215655,0.08721375655,-0.11347879545,-0.03061454545,0.1212529125,0.21428545,0.184296602,-0.158645448,-0.4131168425,-0.32716958,-0.11154913,0.068111722,-0.0429274835,-0.0110668285,-0.0272543485,3086,"DG_s15",18.9,19.605,22.571,22.573,10,10,8,11,2.966,"Right",8,11,3,0,3,3,3,0,0,0,-3,0,"10-10",2,-1,8,10,11,10
"150",6,"LHH6-LHH7",0.77690763875,0.646215843,0.389245343,0.136925293,0.0669134,0.236399217,0.462568367,0.658056503,0.709430683,0.7422007385,0.7330171385,0.695228238,0.723048898,0.6582954755,0.5083956255,3086,"DG_s15",18.9,19.605,22.571,22.573,10,10,8,11,2.966,"Right",8,11,3,0,3,3,3,0,0,0,-3,0,"10-10",2,-1,8,10,11,10
"151",6,"LIP7-LIP8",1.42484717,1.5226362,1.5687144,1.6698323,1.896288,1.88827085,1.81578485,1.9865067,1.88242195,1.89824755,1.7018384655,1.1315662655,0.7611252155,0.4072988155,0.29780605,3086,"DG_s15",18.9,19.605,22.571,22.573,10,10,8,11,2.966,"Right",8,11,3,0,3,3,3,0,0,0,-3,0,"10-10",2,-1,8,10,11,10
"152",6,"LHH4-LHH5",-0.5762953855,-0.8277268855,-0.88873104685,-0.74883283935,-0.44302328935,-0.36393735285,-0.5870079715,-0.8894566215,-1.1567981715,-1.272496808,-1.0229478695,-0.5556681195,-0.1573107695,0.076750499,-0.0959291545,3086,"DG_s15",18.9,19.605,22.571,22.573,10,10,8,11,2.966,"Right",8,11,3,0,3,3,3,0,0,0,-3,0,"10-10",2,-1,8,10,11,10
"153",6,"LHB7-LHB8",1.1093567315,1.4493856015,1.8330895445,1.8934569445,1.5941744045,1.22786450475,1.15540865475,1.00891143875,0.73694546875,0.9347216185,1.0188350685,0.9796371845,1.3380100445,1.0070560645,0.5751202145,3086,"DG_s15",18.9,19.605,22.571,22.573,10,10,8,11,2.966,"Right",8,11,3,0,3,3,3,0,0,0,-3,0,"10-10",2,-1,8,10,11,10
"154",6,"LIP5-LIP6",-0.6544305935,-0.614599555,-0.823508858,-0.821278028,-0.410783928,-0.621544663,-0.543989938,-0.690366343,-0.8929813135,-0.675963792,-0.729568472,-0.933800322,-1.2592256015,-1.622578915,-1.68308085,3086,"DG_s15",18.9,19.605,22.571,22.573,10,10,8,11,2.966,"Right",8,11,3,0,3,3,3,0,0,0,-3,0,"10-10",2,-1,8,10,11,10
"155",6,"LTT8-LTT9",0.25860495735,-0.16865723215,-0.41525326715,-0.5818588885,-0.501433021,-0.3080362315,-0.2543938965,0.0443315155,0.1181091255,-0.0775218245,-0.3721138245,-0.60811123155,-0.52039807405,-0.12856972405,0.46500017595,3086,"DG_s15",18.9,19.605,22.571,22.573,10,10,8,11,2.966,"Right",8,11,3,0,3,3,3,0,0,0,-3,0,"10-10",2,-1,8,10,11,10
"156",6,"LIP8-LIP9",0.3492988035,0.1856182078,0.0750902078,0.3088236868,0.8370433868,1.1659670825,1.3872670325,1.2014451175,0.5962232675,0.0023452175,-0.3569967,-0.127653135,0.486692215,0.93749305,0.8818230185,3086,"DG_s15",18.9,19.605,22.571,22.573,10,10,8,11,2.966,"Right",8,11,3,0,3,3,3,0,0,0,-3,0,"10-10",2,-1,8,10,11,10
"157",6,"LAM6-LAM7",0.1340598,0.3258822,0.42537985,0.6112006905,0.7924677905,0.824258329,1.111526929,1.2489999385,0.9660312985,0.87322386,0.48228046,0.17042858,0.48020382,0.673578296,0.795136346,3086,"DG_s15",18.9,19.605,22.571,22.573,10,10,8,11,2.966,"Right",8,11,3,0,3,3,3,0,0,0,-3,0,"10-10",2,-1,8,10,11,10
"158",6,"LHB8-LHB9",0.9568334815,1.6183202815,2.0825583765,1.9690541765,1.40134349,0.972382471,0.983794421,1.065451921,1.03532744895,1.17198076795,1.22169731795,1.04275799595,1.2042722045,0.796371141,0.396255093,3086,"DG_s15",18.9,19.605,22.571,22.573,10,10,8,11,2.966,"Right",8,11,3,0,3,3,3,0,0,0,-3,0,"10-10",2,-1,8,10,11,10
"159",6,"LAM7-LAM8",0.7857373292,0.6994681322,0.9708576972,0.9297302472,0.7253370272,0.8468247592,1.0834550592,1.4836084092,1.6178505492,1.6312275392,1.4233615392,1.1521215392,1.2239202692,0.9785528927,0.4858774927,3086,"DG_s15",18.9,19.605,22.571,22.573,10,10,8,11,2.966,"Right",8,11,3,0,3,3,3,0,0,0,-3,0,"10-10",2,-1,8,10,11,10
"160",6,"LAM9-LAM10",0.3942652348,0.7545480348,0.8983674998,0.946477523,0.970611173,0.889206573,1.043698058,1.14960196,0.848243549,0.7258800155,0.6726827655,0.5876681905,0.7335583625,1.091747896,1.184646196,3086,"DG_s15",18.9,19.605,22.571,22.573,10,10,8,11,2.966,"Right",8,11,3,0,3,3,3,0,0,0,-3,0,"10-10",2,-1,8,10,11,10
"161",6,"LIP3-LIP4",-1.4575013043,-0.9919588043,-0.8062164728,-0.5987135783,-0.7548378233,-1.0623279703,-1.2542897018,-1.4478529813,-1.4877497578,-1.3493943858,-1.2361806453,-1.2824464953,-1.3008044393,-1.1984458143,-0.6730537548,3086,"DG_s15",18.9,19.605,22.571,22.573,10,10,8,11,2.966,"Right",8,11,3,0,3,3,3,0,0,0,-3,0,"10-10",2,-1,8,10,11,10
"162",6,"LHH7-LHH8",0.83681393,1.10150719,1.305204655,1.571605875,1.45980896,1.1748066915,1.203056215,1.154102315,0.933858128,1.0485182615,1.176030873,1.150213973,1.188590409,1.093496184,0.665353784,3086,"DG_s15",18.9,19.605,22.571,22.573,10,10,8,11,2.966,"Right",8,11,3,0,3,3,3,0,0,0,-3,0,"10-10",2,-1,8,10,11,10
"163",6,"LHB4-LHB5",0.6403571235,0.1902331235,-0.2247276765,-0.5509538765,-0.719744552,-0.5201629,-0.364894225,-0.380920825,-0.333223852,-0.163210649,0.114348776,0.602156776,1.426649353,1.730943748,1.671356698,3086,"DG_s15",18.9,19.605,22.571,22.573,10,10,8,11,2.966,"Right",8,11,3,0,3,3,3,0,0,0,-3,0,"10-10",2,-1,8,10,11,10
"164",6,"LHB9-LHB10",1.521381059,2.015785155,2.1346491,1.92608585,1.7355256,1.46794185,1.35069735,1.252533585,1.0574622705,1.0394570705,0.9810459705,0.9971913655,1.35848573,1.63294638,1.63719443,3086,"DG_s15",18.9,19.605,22.571,22.573,10,10,8,11,2.966,"Right",8,11,3,0,3,3,3,0,0,0,-3,0,"10-10",2,-1,8,10,11,10
"165",6,"LIP4-LIP5",-2.435677197,-1.930976797,-1.691997375,-1.46951775,-1.430479811,-1.993383061,-2.256673061,-2.383223161,-2.493373332,-2.3642901747,-2.4476807747,-2.4555223247,-2.5682332427,-2.578962584,-2.326188484,3086,"DG_s15",18.9,19.605,22.571,22.573,10,10,8,11,2.966,"Right",8,11,3,0,3,3,3,0,0,0,-3,0,"10-10",2,-1,8,10,11,10
"166",6,"LAM4-LAM5",0.9914446944,1.1968736154,1.2305819304,1.2084406804,1.0254129524,0.8159847424,0.7554935469,0.5581420544,0.3611853824,0.3744182424,0.1732328879,0.0847924589,0.4140981589,0.6509562589,0.7572065239,3086,"DG_s15",18.9,19.605,22.571,22.573,10,10,8,11,2.966,"Right",8,11,3,0,3,3,3,0,0,0,-3,0,"10-10",2,-1,8,10,11,10
"167",6,"LAM1-LAM2",-0.1080593038,-0.0792023005,-0.2019216505,-0.1897774455,-0.0989459582,0.0166886385,0.130609588,0.001483677,0.130536277,0.0561504705,0.12145022,0.327924723,0.06666971855,0.03084358105,0.00692458205,3086,"DG_s15",18.9,19.605,22.571,22.573,10,10,8,11,2.966,"Right",8,11,3,0,3,3,3,0,0,0,-3,0,"10-10",2,-1,8,10,11,10
"168",6,"LAM5-LAM6",0.51960020447,0.389661302,0.2114203815,0.0806437115,0.0736847878,0.20270024455,0.50560685455,0.72661963455,0.62134534675,0.44633524,0.28942453,0.1151548915,0.2398582565,0.5525413065,0.8309666065,3086,"DG_s15",18.9,19.605,22.571,22.573,10,10,8,11,2.966,"Right",8,11,3,0,3,3,3,0,0,0,-3,0,"10-10",2,-1,8,10,11,10
"169",6,"LAM3-LAM4",-1.1595755005,-0.878278835,-0.733123585,-0.762367935,-0.9234305035,-1.3004918035,-1.4357912765,-1.3079866265,-1.324697844,-1.358601444,-1.521421514,-1.457816464,-1.157437378,-0.583834978,-0.0218930350000002,3086,"DG_s15",18.9,19.605,22.571,22.573,10,10,8,11,2.966,"Right",8,11,3,0,3,3,3,0,0,0,-3,0,"10-10",2,-1,8,10,11,10
"170",6,"LIP2-LIP3",-0.643140881,-0.540110781,-0.4837903225,-0.3613296325,-0.27967969025,-0.02513329025,0.04366309725,-0.16390735975,-0.302130726,-0.353112776,-0.186731866,0.0974683995,0.0304452235,-0.091818996,-0.142510646,3086,"DG_s15",18.9,19.605,22.571,22.573,10,10,8,11,2.966,"Right",8,11,3,0,3,3,3,0,0,0,-3,0,"10-10",2,-1,8,10,11,10
"171",6,"LAM2-LAM3",-2.027364964,-2.2987855898,-2.4396814003,-2.1783892003,-2.3445889518,-2.457475981,-2.4589466305,-2.6396992305,-2.61563776,-2.5766488765,-2.2670997215,-1.5692825215,-0.6985083215,-0.427517212,-0.581252137,3086,"DG_s15",18.9,19.605,22.571,22.573,10,10,8,11,2.966,"Right",8,11,3,0,3,3,3,0,0,0,-3,0,"10-10",2,-1,8,10,11,10
"172",6,"LHH5-LHH6",1.040556092,0.932655873,0.8323701465,0.8299910965,0.64878482505,0.55580706205,0.50813629805,0.32701816305,0.3856839845,0.6152577695,0.60126429825,0.57513588925,0.67220398925,0.70155420425,0.823888266,3086,"DG_s15",18.9,19.605,22.571,22.573,10,10,8,11,2.966,"Right",8,11,3,0,3,3,3,0,0,0,-3,0,"10-10",2,-1,8,10,11,10
"173",6,"LIP6-LIP7",-0.35599762265,-0.10856767265,0.18383198735,0.41347977235,0.59119065735,0.44449412735,0.58468302445,0.94786428945,1.10771248945,1.38962326945,1.24563680735,0.76964629885,0.22672094885,-0.10944755115,-0.31111059615,3086,"DG_s15",18.9,19.605,22.571,22.573,10,10,8,11,2.966,"Right",8,11,3,0,3,3,3,0,0,0,-3,0,"10-10",2,-1,8,10,11,10
"174",6,"LAM8-LAM9",0.305598531,0.867920581,1.3947004075,1.6019143575,1.5305918755,1.251111027,1.240643027,1.304439527,1.352066563,1.1512451115,0.7192394765,0.331547035,0.521231981,0.6828732115,0.6962984695,3086,"DG_s15",18.9,19.605,22.571,22.573,10,10,8,11,2.966,"Right",8,11,3,0,3,3,3,0,0,0,-3,0,"10-10",2,-1,8,10,11,10
"175",7,"LTT9-LTT10",-0.2597733247,-0.3087022772,-0.5862061272,-0.9282054772,-1.1873909272,-1.2503437137,-1.1014483867,-0.7076466367,-0.4349974367,0.0187243133,0.4703158863,0.5054224863,0.6336072863,0.6661805363,0.6911580363,3087,"DG_s15",23.575,24.28,26.332,26.334,28,4,10,10,2.052,"Left",28,4,24,24,0,0,0,-24,0,-24,24,24,"Advent",18,-6,28,10,4,10
"176",7,"LAM7-LAM8",0.842644763,0.238149138,-0.2257083545,-0.443157029,-0.413336179,-0.419793577,-0.3626983195,0.0683729805,0.4361609805,0.374169549,0.200842034,-0.078760049,0.019115501,0.7269819555,1.04733883065,3087,"DG_s15",23.575,24.28,26.332,26.334,28,4,10,10,2.052,"Left",28,4,24,24,0,0,0,-24,0,-24,24,24,"Advent",18,-6,28,10,4,10
"177",7,"LIP6-LIP7",-0.012446977,0.018679563,0.292278458,0.410665108,0.271594101,0.191537161,-0.156888589,-0.495277589,-0.56487214,-0.52560684,-0.54881949,-0.519747875,-0.3417192965,-0.1900359065,-0.0488268715,3087,"DG_s15",23.575,24.28,26.332,26.334,28,4,10,10,2.052,"Left",28,4,24,24,0,0,0,-24,0,-24,24,24,"Advent",18,-6,28,10,4,10
"178",7,"LAM9-LAM10",0.102940495,-0.184961635,-0.37421056,-0.4539873385,-0.1551290385,-0.0478988085,-0.1108165185,0.2411508875,0.3400619875,0.6372375875,1.1274495725,1.1650274725,1.3955499725,1.5137149725,1.2319688725,3087,"DG_s15",23.575,24.28,26.332,26.334,28,4,10,10,2.052,"Left",28,4,24,24,0,0,0,-24,0,-24,24,24,"Advent",18,-6,28,10,4,10
"179",7,"LIP2-LIP3",1.291305498,0.901196933,0.361428833,-0.04097137135,-0.13777337035,0.05857206235,0.04315346235,0.0233294182,-0.01198114771,-0.18330891541,-0.12302661541,-0.06550972391,0.129593522,0.278191653,0.275704253,3087,"DG_s15",23.575,24.28,26.332,26.334,28,4,10,10,2.052,"Left",28,4,24,24,0,0,0,-24,0,-24,24,24,"Advent",18,-6,28,10,4,10
"180",7,"LAM4-LAM5",-0.173209244,-0.527923794,-0.821772394,-0.850020138,-0.528326788,-0.2243797,0.0780090605,0.387464805,0.475697705,0.733993117,0.9424384565,0.7574912015,0.483863842,0.373415842,0.361883942,3087,"DG_s15",23.575,24.28,26.332,26.334,28,4,10,10,2.052,"Left",28,4,24,24,0,0,0,-24,0,-24,24,24,"Advent",18,-6,28,10,4,10
"181",7,"LHH4-LHH5",-0.53640333165,-0.41778114765,-0.41674547942,-0.38460596942,-0.66515566192,-0.95872526192,-0.9112975614,-0.7004573264,-0.4765070564,-0.3391212559,-0.4438005185,-0.5653025195,-0.4818015895,-0.18989059,0.0792275099999999,3087,"DG_s15",23.575,24.28,26.332,26.334,28,4,10,10,2.052,"Left",28,4,24,24,0,0,0,-24,0,-24,24,24,"Advent",18,-6,28,10,4,10
"182",7,"LAM8-LAM9",-0.3856003456,-0.8595682456,-1.0796850171,-1.3834001876,-1.52299355,-1.437595806,-0.961678556,-0.582005911,-0.499106361,0.058408445,0.0410782949999999,0.35948805,0.7420937825,0.3931856375,0.4909538875,3087,"DG_s15",23.575,24.28,26.332,26.334,28,4,10,10,2.052,"Left",28,4,24,24,0,0,0,-24,0,-24,24,24,"Advent",18,-6,28,10,4,10
"183",7,"LAM2-LAM3",-0.2907338425,-0.176701004,-0.148490429,0.00105821049999999,-0.0414122545,-0.002107361,-0.00279618600000001,-0.372648159,-0.239998939,0.097633429,0.061453444,0.273277894,0.136405789,-0.042139661,0.192265424,3087,"DG_s15",23.575,24.28,26.332,26.334,28,4,10,10,2.052,"Left",28,4,24,24,0,0,0,-24,0,-24,24,24,"Advent",18,-6,28,10,4,10
"184",7,"LIP4-LIP5",-0.341041094,-0.267144694,-0.142445494,-0.190727865,-0.26435825,-0.6846829,-1.21093685,-1.21803454,-1.0170940595,-0.6386668595,-0.1798110095,0.1696155305,0.2600036,-0.0746320564999999,-0.5611298065,3087,"DG_s15",23.575,24.28,26.332,26.334,28,4,10,10,2.052,"Left",28,4,24,24,0,0,0,-24,0,-24,24,24,"Advent",18,-6,28,10,4,10
"185",7,"LTT8-LTT9",0.14653684685,0.44094405185,0.378245246,0.1799930605,-0.2308737395,-0.4955263254,-0.2591414104,0.2069116396,0.3935148496,0.5513382,0.413955092,0.069760507,0.197305747,0.0858839725,-0.0004960195,3087,"DG_s15",23.575,24.28,26.332,26.334,28,4,10,10,2.052,"Left",28,4,24,24,0,0,0,-24,0,-24,24,24,"Advent",18,-6,28,10,4,10
"186",7,"LHB4-LHB5",-0.4488261923225,-0.7945979423225,-0.9838274253725,-1.0350169268725,-1.21668898305,-1.51728313305,-1.69569675,-1.71093285,-1.6549358,-1.3954944925,-1.1126184925,-1.0541710685,-1.1148138685,-1.343168876,-1.569814376,3087,"DG_s15",23.575,24.28,26.332,26.334,28,4,10,10,2.052,"Left",28,4,24,24,0,0,0,-24,0,-24,24,24,"Advent",18,-6,28,10,4,10
"187",7,"LIP7-LIP8",0.38118399925,0.11144904925,0.15500205425,0.143834075,0.265674091,0.539122891,0.2112383459,0.4047035189,0.6321630029,0.7472864029,0.968828673,0.641972847,0.108521903,-0.041663797,0.053163078,3087,"DG_s15",23.575,24.28,26.332,26.334,28,4,10,10,2.052,"Left",28,4,24,24,0,0,0,-24,0,-24,24,24,"Advent",18,-6,28,10,4,10
"188",7,"LHB7-LHB8",-0.8064671165,-0.9448988125,-0.9158632125,-0.8385888175,-0.6775405875,-0.4507442375,-0.2829605375,-0.271295173,-0.0586683635,0.2479425365,0.3763164365,0.555913277,0.7430349875,0.5340143575,0.1529404925,3087,"DG_s15",23.575,24.28,26.332,26.334,28,4,10,10,2.052,"Left",28,4,24,24,0,0,0,-24,0,-24,24,24,"Advent",18,-6,28,10,4,10
"189",7,"LIP5-LIP6",0.166891053,0.27322400446,0.28226857911,0.18695824011,0.08436519911,-0.01783150235,-0.08184399385,-0.01116437985,0.20228211325,0.21869497325,-0.02445783525,-0.25333393525,-0.27910351735,-0.04940847735,0.1806292959,3087,"DG_s15",23.575,24.28,26.332,26.334,28,4,10,10,2.052,"Left",28,4,24,24,0,0,0,-24,0,-24,24,24,"Advent",18,-6,28,10,4,10
"190",7,"LIP3-LIP4",-0.3391651655,-0.1304563305,-0.0437825405,-0.1998148105,-0.1861818605,-0.4815792255,-0.8090635255,-0.9148939105,-0.8696641605,-0.6822070805,-0.5704378635,-0.43665405334,-0.23316001834,-0.39204056984,-0.58331478684,3087,"DG_s15",23.575,24.28,26.332,26.334,28,4,10,10,2.052,"Left",28,4,24,24,0,0,0,-24,0,-24,24,24,"Advent",18,-6,28,10,4,10
"191",7,"LHB5-LHB6",0.350450634,-0.0446176175,-0.5267197885,-0.689293903,-0.402463703,-0.47077413085,-0.4178926091,-0.1180485781,-0.0320670781,-0.04810545525,-0.0587168665,-0.1941649665,-0.2837202665,-0.241501752,-0.3558655915,3087,"DG_s15",23.575,24.28,26.332,26.334,28,4,10,10,2.052,"Left",28,4,24,24,0,0,0,-24,0,-24,24,24,"Advent",18,-6,28,10,4,10
"192",7,"LAM6-LAM7",-0.01226790515,-0.16298505515,-0.27233673865,-0.11288738115,0.28626261885,0.37976616485,0.60312479485,1.10754183735,1.34275383735,1.54170374135,1.61460651135,1.42165946135,1.17960446135,1.47369986135,1.59896746135,3087,"DG_s15",23.575,24.28,26.332,26.334,28,4,10,10,2.052,"Left",28,4,24,24,0,0,0,-24,0,-24,24,24,"Advent",18,-6,28,10,4,10
"193",7,"LHH5-LHH6",-0.3741311842,-0.0304321842,0.2138568593,0.3691768593,0.1955732325,0.0324697515,0.290253758,0.745742008,1.417821158,2.148360789,2.389645289,2.168226109,1.6815005165,1.3441357665,0.9484899865,3087,"DG_s15",23.575,24.28,26.332,26.334,28,4,10,10,2.052,"Left",28,4,24,24,0,0,0,-24,0,-24,24,24,"Advent",18,-6,28,10,4,10
"194",7,"LHH6-LHH7",-0.1395858435,0.4486749215,0.8092826195,0.979405293,0.9026651255,0.3564812155,-0.3032470345,-0.59886633,-0.4733564245,-0.1164766645,0.1449269635,0.112011459,-0.127961561,-0.468696511,-0.629520739,3087,"DG_s15",23.575,24.28,26.332,26.334,28,4,10,10,2.052,"Left",28,4,24,24,0,0,0,-24,0,-24,24,24,"Advent",18,-6,28,10,4,10
"195",7,"LAM3-LAM4",0.016297658,-0.302497042,-0.676981992,-0.748232836,-0.495258446,-0.4569563495,-0.5746251495,-0.6396699635,-0.817413758,-0.5903288045,-0.0112798045,0.29900324,0.3628785655,0.5607367655,0.5778798155,3087,"DG_s15",23.575,24.28,26.332,26.334,28,4,10,10,2.052,"Left",28,4,24,24,0,0,0,-24,0,-24,24,24,"Advent",18,-6,28,10,4,10
"196",7,"LHB6-LHB7",-0.75834912,-0.8957633055,-1.0268320055,-1.0902407505,-1.0760571505,-1.149910765,-1.410208465,-1.66281265,-1.245059455,-0.650005455,-0.324006903,-0.168242658,-0.188409353,-0.558862328,-0.79096167735,3087,"DG_s15",23.575,24.28,26.332,26.334,28,4,10,10,2.052,"Left",28,4,24,24,0,0,0,-24,0,-24,24,24,"Advent",18,-6,28,10,4,10
"197",7,"LIP8-LIP9",0.0380500055,0.019477165,0.013080365,-0.1819597595,-0.2886234025,-0.210505281,-0.552164031,-0.278395211,0.187199319,0.4754603875,0.6483627405,0.246841095,-0.245363398,-0.407087148,-0.410411666,3087,"DG_s15",23.575,24.28,26.332,26.334,28,4,10,10,2.052,"Left",28,4,24,24,0,0,0,-24,0,-24,24,24,"Advent",18,-6,28,10,4,10
"198",7,"LAM5-LAM6",0.548455416,0.627298741,0.5103132345,0.4126792245,0.470567095,0.527652315,0.413772455,0.44771535,0.6993871,0.86209053,0.986506246,0.902152203,0.958860803,0.863809386,0.727233465,3087,"DG_s15",23.575,24.28,26.332,26.334,28,4,10,10,2.052,"Left",28,4,24,24,0,0,0,-24,0,-24,24,24,"Advent",18,-6,28,10,4,10
"199",7,"LHB8-LHB9",-0.3819486115,-0.1658793165,0.2549247835,0.4095976135,0.522614315,0.67056192,0.68149352,0.623664394,0.787632607,0.952919507,1.062863857,1.564700003,2.0966794385,2.0000486235,1.7050944535,3087,"DG_s15",23.575,24.28,26.332,26.334,28,4,10,10,2.052,"Left",28,4,24,24,0,0,0,-24,0,-24,24,24,"Advent",18,-6,28,10,4,10
"200",7,"LAM1-LAM2",-0.64306257,-0.87183607,-1.04898597,-0.99131197,-0.77794667,-0.56899827,-0.39428262,-0.45401962,-0.4835200174,-0.3286845674,-0.2544705524,-0.1547290564,-0.0437608765,-0.0196294115,-0.2460930815,3087,"DG_s15",23.575,24.28,26.332,26.334,28,4,10,10,2.052,"Left",28,4,24,24,0,0,0,-24,0,-24,24,24,"Advent",18,-6,28,10,4,10
"201",7,"LIP1-LIP2",0.89312995925,0.69316940925,1.0188270435,0.7225866685,0.2065783185,-0.0192140815,-0.6199398815,-0.9289277065,-0.9221787065,-0.9930609065,-0.890216503,-0.637413753,-0.6919143595,-0.6348557875,-0.463561091,3087,"DG_s15",23.575,24.28,26.332,26.334,28,4,10,10,2.052,"Left",28,4,24,24,0,0,0,-24,0,-24,24,24,"Advent",18,-6,28,10,4,10
"202",7,"LHH7-LHH8",-0.107061125,-0.399501825,-0.749669525,-1.078468475,-1.09234255,-1.0337572,-1.00661315,-0.84485489,-0.7434499,-0.2795995,0.32699065,0.414871297,0.298322132,-0.1176751795,-0.7425644295,3087,"DG_s15",23.575,24.28,26.332,26.334,28,4,10,10,2.052,"Left",28,4,24,24,0,0,0,-24,0,-24,24,24,"Advent",18,-6,28,10,4,10
"203",7,"LHB9-LHB10",0.40937372075,0.43781990575,0.39256859625,0.21018861625,0.05505043125,0.03891687675,0.22885976425,0.73009781425,0.91203184925,1.07318681875,1.10563075625,0.93753250625,1.04309410625,0.93076446225,0.82154813035,3087,"DG_s15",23.575,24.28,26.332,26.334,28,4,10,10,2.052,"Left",28,4,24,24,0,0,0,-24,0,-24,24,24,"Advent",18,-6,28,10,4,10
"204",8,"LHH7-LHH8",0.7341552708,1.2557953208,1.54536799,1.70222809,1.64133179,1.44513809,1.34011824,1.22252819,1.17969719,1.015546573,0.88451577765,0.81702147765,0.77474842765,0.80590414365,0.626480889,3088,"DG_s15",27.335,28.041,30.293,30.295,10,10,11,7,2.252,"Left",11,7,4,0,4,-4,0,-4,0,0,4,0,"10-10",-1,3,10,11,10,7
"205",8,"LAM2-LAM3",-0.757430081,-1.102694732,-0.95154212,-0.61178308,-0.15658868,0.0425194915,-0.1032432755,-0.13815183825,-0.03260793825,0.20459759025,0.30814718675,0.1814313595,-0.1777325104,-0.5282169754,-0.7724781219,3088,"DG_s15",27.335,28.041,30.293,30.295,10,10,11,7,2.252,"Left",11,7,4,0,4,-4,0,-4,0,0,4,0,"10-10",-1,3,10,11,10,7
"206",8,"LAM9-LAM10",-0.06246834885,0.32648880115,0.67220041615,1.17017611615,1.5977557745,1.3904031605,0.9183911605,0.4921965455,0.11694782365,-0.15133926235,-0.01607367235,0.23742339265,0.2810907895,0.2691702895,0.2026134495,3088,"DG_s15",27.335,28.041,30.293,30.295,10,10,11,7,2.252,"Left",11,7,4,0,4,-4,0,-4,0,0,4,0,"10-10",-1,3,10,11,10,7
"207",8,"LAM8-LAM9",0.42462249705,0.40258677405,0.48604988405,0.41903798405,0.33925880555,0.12984911605,-0.26394653395,-0.66631697895,-0.55887638945,-0.30587613895,-0.33616768895,-0.16540229145,-0.26702166935,-0.24659872685,-0.01869344685,3088,"DG_s15",27.335,28.041,30.293,30.295,10,10,11,7,2.252,"Left",11,7,4,0,4,-4,0,-4,0,0,4,0,"10-10",-1,3,10,11,10,7
"208",8,"LIP7-LIP8",-0.24028031535,-0.30543455485,-0.46336700485,-0.559747815,-0.514279665,-0.613921415,-0.764456665,-0.657557805,-0.212405105,0.307548945,0.5841454375,0.4652586775,-0.0428571725,-0.5116702225,-0.722460215,3088,"DG_s15",27.335,28.041,30.293,30.295,10,10,11,7,2.252,"Left",11,7,4,0,4,-4,0,-4,0,0,4,0,"10-10",-1,3,10,11,10,7
"209",8,"LAM3-LAM4",0.066460759,0.30998258575,0.48890783575,0.59473564275,0.69046139125,0.8221204645,0.8563043795,0.9133133295,0.8410504545,0.5181860545,0.2400406545,-0.0324662955,-0.1949913705,-0.2384975205,-0.2815339705,3088,"DG_s15",27.335,28.041,30.293,30.295,10,10,11,7,2.252,"Left",11,7,4,0,4,-4,0,-4,0,0,4,0,"10-10",-1,3,10,11,10,7
"210",8,"LHH4-LHH5",0.259315832,0.460296506,0.317574296,-0.101083454,-0.334698086,-0.18396486,0.15609084,0.72214464,1.322079322,1.194077327,1.204590492,1.303309192,1.108722192,1.377613487,1.457868672,3088,"DG_s15",27.335,28.041,30.293,30.295,10,10,11,7,2.252,"Left",11,7,4,0,4,-4,0,-4,0,0,4,0,"10-10",-1,3,10,11,10,7
"211",8,"LTT8-LTT9",-0.4215008922796,-0.3912587972796,-0.538256005,-0.701229355,-1.084157755,-1.192996302,-1.158186061,-1.060416801,-0.552058501,-0.269095799,-0.229082535,-0.419355745,-0.966439745,-1.275801135,-1.219957737,3088,"DG_s15",27.335,28.041,30.293,30.295,10,10,11,7,2.252,"Left",11,7,4,0,4,-4,0,-4,0,0,4,0,"10-10",-1,3,10,11,10,7
"212",8,"LIP1-LIP2",-0.25383536,-0.55825421,-0.6784976935,-0.7833470935,-0.6696313935,-0.429022278,-0.083854778,0.476442422,0.878966272,1.0528614065,0.9887677065,0.7456267265,0.4240945375,0.0770907375,-0.1826974625,3088,"DG_s15",27.335,28.041,30.293,30.295,10,10,11,7,2.252,"Left",11,7,4,0,4,-4,0,-4,0,0,4,0,"10-10",-1,3,10,11,10,7
"213",8,"LHB8-LHB9",-0.026963791,0.290388459,0.459330091,0.426714887,0.266289312,-0.113303988,-0.28517197,-0.40710885,-0.525633825,-0.563078325,-0.507197375,-0.453512175,-0.28888780605,0.04398009395,0.29923024395,3088,"DG_s15",27.335,28.041,30.293,30.295,10,10,11,7,2.252,"Left",11,7,4,0,4,-4,0,-4,0,0,4,0,"10-10",-1,3,10,11,10,7
"214",8,"LIP5-LIP6",1.4034073265,1.5349533765,1.5396184265,1.3620280515,0.9365239825,0.4102727925,0.3573350625,0.4306227025,0.2004372815,0.2623301465,0.1591605085,-0.1642139065,-0.0948805165,0.0054902335,0.00438861149999997,3088,"DG_s15",27.335,28.041,30.293,30.295,10,10,11,7,2.252,"Left",11,7,4,0,4,-4,0,-4,0,0,4,0,"10-10",-1,3,10,11,10,7
"215",8,"LHH6-LHH7",0.329887239,0.379698169,0.558511153,0.354947551,0.101674121,-0.029799129,-0.065506708,0.256739292,0.854971822,1.039055772,1.549819412,1.970704862,2.143499362,2.994346362,3.498097362,3088,"DG_s15",27.335,28.041,30.293,30.295,10,10,11,7,2.252,"Left",11,7,4,0,4,-4,0,-4,0,0,4,0,"10-10",-1,3,10,11,10,7
"216",8,"LHH5-LHH6",-0.269392122,0.0378575495,0.4258199495,0.316227242,-0.127147758,-0.4566557395,-0.5807313495,-0.5277363491,-0.3057517956,-0.5010029141,-0.6070865496,-0.447516845,-0.1702435985,0.6083490015,1.341825797,3088,"DG_s15",27.335,28.041,30.293,30.295,10,10,11,7,2.252,"Left",11,7,4,0,4,-4,0,-4,0,0,4,0,"10-10",-1,3,10,11,10,7
"217",8,"LIP8-LIP9",0.0558093645,-0.002903697,-0.088832022,-0.00873241399999999,0.150360333,0.198352588,0.298411963,0.377360413,0.205374592,0.0871019285,-0.0917829627,-0.3754901677,-0.1785297537,0.0553557013,-0.04125795,3088,"DG_s15",27.335,28.041,30.293,30.295,10,10,11,7,2.252,"Left",11,7,4,0,4,-4,0,-4,0,0,4,0,"10-10",-1,3,10,11,10,7
"218",8,"LTT9-LTT10",-0.858191497,-0.561261497,-0.226641447,0.092739203,0.172251185,0.085607435,0.021426485,0.041074285,0.239841435,0.347195465,0.182035495,0.14205730765,-0.14276275395,-0.46679803395,-0.46526115395,3088,"DG_s15",27.335,28.041,30.293,30.295,10,10,11,7,2.252,"Left",11,7,4,0,4,-4,0,-4,0,0,4,0,"10-10",-1,3,10,11,10,7
"219",8,"LIP6-LIP7",0.7392404835,0.9865826435,1.277336318,1.226258949,0.776320999,0.453452604,0.572059454,0.921180547,1.0563266785,1.0428261335,0.7109123385,0.42911561205,0.4530239111,0.5815933561,0.6839520896,3088,"DG_s15",27.335,28.041,30.293,30.295,10,10,11,7,2.252,"Left",11,7,4,0,4,-4,0,-4,0,0,4,0,"10-10",-1,3,10,11,10,7
"220",8,"LIP3-LIP4",0.1489617633,0.5015333313,0.9127485763,0.9064273385,0.6239700385,0.1474813885,-0.2369941115,-0.359883984,-0.1988957425,-0.1050374723,-0.1000291723,-0.0813733023,-0.2522237938,-0.425496464,-0.418719164,3088,"DG_s15",27.335,28.041,30.293,30.295,10,10,11,7,2.252,"Left",11,7,4,0,4,-4,0,-4,0,0,4,0,"10-10",-1,3,10,11,10,7
"221",8,"LHB7-LHB8",0.164462568,0.489060418,0.652836379,0.785839829,0.635258961,0.393231061,0.2771545,0.2957547359,0.3875510334,0.3375597834,0.3874476334,0.2437137975,0.1596333,0.16536435,0.2297407495,3088,"DG_s15",27.335,28.041,30.293,30.295,10,10,11,7,2.252,"Left",11,7,4,0,4,-4,0,-4,0,0,4,0,"10-10",-1,3,10,11,10,7
"222",8,"LAM6-LAM7",-0.4047887925,0.00564215749999997,0.2815965575,0.4735082235,0.4065917235,0.085933662,-0.296459838,-0.260848743,-0.232130563,-0.4280277265,-0.1521259015,-0.2692497575,-0.6347862875,-0.3624452925,-0.2181135675,3088,"DG_s15",27.335,28.041,30.293,30.295,10,10,11,7,2.252,"Left",11,7,4,0,4,-4,0,-4,0,0,4,0,"10-10",-1,3,10,11,10,7
"223",8,"LIP2-LIP3",0.22708455605,0.051846392065,-0.130899547935,-0.026860931935,0.115799001065,0.17526436505,0.29029203955,0.03920011105,-0.12630238895,-0.23630872395,-0.34698011845,-0.30688401845,-0.29327281845,-0.37881608345,-0.42611732345,3088,"DG_s15",27.335,28.041,30.293,30.295,10,10,11,7,2.252,"Left",11,7,4,0,4,-4,0,-4,0,0,4,0,"10-10",-1,3,10,11,10,7
"224",8,"LHB6-LHB7",0.1154029525,0.5683583025,0.8537042025,1.1458055025,1.1371940725,0.844510359,0.594638909,0.376715909,0.211714459,0.0964725225,0.0393998725,0.025043517,0.291330267,0.556971676,0.606461686,3088,"DG_s15",27.335,28.041,30.293,30.295,10,10,11,7,2.252,"Left",11,7,4,0,4,-4,0,-4,0,0,4,0,"10-10",-1,3,10,11,10,7
"225",8,"LAM1-LAM2",-0.84177864885,-0.59491209435,-0.50736089935,-0.799969102,-1.079654452,-1.2980646065,-1.18137259495,-0.96059556945,-0.91404331945,-0.71095341805,-0.6848497781,-0.7614162086,-0.8742414586,-1.03617651,-1.2801490065,3088,"DG_s15",27.335,28.041,30.293,30.295,10,10,11,7,2.252,"Left",11,7,4,0,4,-4,0,-4,0,0,4,0,"10-10",-1,3,10,11,10,7
"226",8,"LHB5-LHB6",-0.1767271798,-0.33029762645,-0.2795263106,-0.3045061626,-0.4558032396,-0.43251633495,-0.3418010058,-0.2414196258,0.0440774742,0.0517565852,-0.10076671845,-0.1381587362,0.0922354138,0.6874251448,1.07130414845,3088,"DG_s15",27.335,28.041,30.293,30.295,10,10,11,7,2.252,"Left",11,7,4,0,4,-4,0,-4,0,0,4,0,"10-10",-1,3,10,11,10,7
"227",8,"LHB9-LHB10",0.1658559505,0.2504963055,0.1912140765,0.126714855,0.227430905,0.05440795,-0.014516,-0.04751375,-0.038254,0.1096722,0.2384834,0.2324754,0.1864833,0.2434050835,0.3863608335,3088,"DG_s15",27.335,28.041,30.293,30.295,10,10,11,7,2.252,"Left",11,7,4,0,4,-4,0,-4,0,0,4,0,"10-10",-1,3,10,11,10,7
"228",8,"LAM4-LAM5",0.22598125,0.393371595,0.607657795,0.668915909,0.5564025375,0.5364108875,0.418251713,0.454470959,0.6196259805,0.3490204165,0.323250391,0.166949211,-0.0444119065,0.1850577075,0.3278051075,3088,"DG_s15",27.335,28.041,30.293,30.295,10,10,11,7,2.252,"Left",11,7,4,0,4,-4,0,-4,0,0,4,0,"10-10",-1,3,10,11,10,7
"229",8,"LAM5-LAM6",0.7268258165,0.5267059295,-0.0349751705,-0.3385888205,-0.4504251975,-0.6275513605,-0.445132669,-0.300609993,-0.368541493,0.003740175295,0.249934883795,0.166330072795,0.217769722795,-0.1116269955,-0.3134686855,3088,"DG_s15",27.335,28.041,30.293,30.295,10,10,11,7,2.252,"Left",11,7,4,0,4,-4,0,-4,0,0,4,0,"10-10",-1,3,10,11,10,7
"230",8,"LHB4-LHB5",-0.731159829,-0.692840724,-0.53579702,-0.6074122005,-0.7266638285,-0.7968482285,-0.771909738,-0.830595838,-1.09134376,-1.2986440225,-1.199340097,-0.697450347,-0.0318835970000001,0.3680178155,0.274508507,3088,"DG_s15",27.335,28.041,30.293,30.295,10,10,11,7,2.252,"Left",11,7,4,0,4,-4,0,-4,0,0,4,0,"10-10",-1,3,10,11,10,7
"231",8,"LAM7-LAM8",0.371533329,0.283653259,0.364961007,0.319532607,0.181395657,0.293247407,0.0341591065,-0.1980020935,-0.4567885035,-0.35205455,0.24176165,0.7653764,0.99963464,0.703225398,0.499192298,3088,"DG_s15",27.335,28.041,30.293,30.295,10,10,11,7,2.252,"Left",11,7,4,0,4,-4,0,-4,0,0,4,0,"10-10",-1,3,10,11,10,7
"232",8,"LIP4-LIP5",0.780044896,0.602324153,0.49462144695,0.18829344845,0.09127603045,0.13871888045,-0.0845079635,-0.159753665,-0.206758215,-0.244084815,-0.126931015,-0.00392629450000004,0.1853421055,0.4558096055,0.5550638835,3088,"DG_s15",27.335,28.041,30.293,30.295,10,10,11,7,2.252,"Left",11,7,4,0,4,-4,0,-4,0,0,4,0,"10-10",-1,3,10,11,10,7
"233",9,"LIP6-LIP7",0.4233338875,0.637966417,0.2547860235,0.1235495235,0.0354240235,0.1670793735,0.447797517,0.463776867,0.205149297,-0.1044046135,-0.3838831365,-0.5847389365,-0.6830718218,-0.6900377283,-0.5816059553,3089,"DG_s15",31.296,32.001,34.315,34.318,6,22,10,10,2.314,"Left",6,22,16,16,0,0,16,0,16,0,-16,-16,"Disadvent",-4,12,6,10,22,10
"234",9,"LHH6-LHH7",0.444905610305,0.642559880305,0.662779865,0.6985376176,0.8511561521,0.7999067667,0.7176385172,0.7888401211,0.7376845211,0.62787834,0.54161129,0.6398771135,0.7343962635,0.7959437775,1.2315451775,3089,"DG_s15",31.296,32.001,34.315,34.318,6,22,10,10,2.314,"Left",6,22,16,16,0,0,16,0,16,0,-16,-16,"Disadvent",-4,12,6,10,22,10
"235",9,"LIP2-LIP3",0.306341234,0.489845699,0.5282632195,0.5644440195,0.4563725195,0.4296056895,0.519724959,0.328406909,0.084620459,-0.018115141,0.067546459,0.287943109,0.438349159,0.397802394,0.519431944,3089,"DG_s15",31.296,32.001,34.315,34.318,6,22,10,10,2.314,"Left",6,22,16,16,0,0,16,0,16,0,-16,-16,"Disadvent",-4,12,6,10,22,10
"236",9,"LAM8-LAM9",0.4999577697,0.5885403197,0.4752175397,0.3289211965,-0.1820104535,-0.45664111135,-0.43528778135,-0.36067493635,-0.16172413685,-0.148407846,-0.318386266,-0.380075061,-0.7216815605,-0.9340167435,-0.7834839435,3089,"DG_s15",31.296,32.001,34.315,34.318,6,22,10,10,2.314,"Left",6,22,16,16,0,0,16,0,16,0,-16,-16,"Disadvent",-4,12,6,10,22,10
"237",9,"LHH7-LHH8",-0.00336380399999991,-0.564034704,-1.035228354,-1.126318239,-0.732155089,-0.370217189,0.0763591610000001,0.405666711,0.300404486,-0.00997040099999991,-0.4882889615,-0.6242245615,-0.7722014735,-0.9672640865,-0.977787796,3089,"DG_s15",31.296,32.001,34.315,34.318,6,22,10,10,2.314,"Left",6,22,16,16,0,0,16,0,16,0,-16,-16,"Disadvent",-4,12,6,10,22,10
"238",9,"LHB4-LHB5",0.561899558645,0.373812668645,-0.066893796655,-0.252073296655,-0.125979492655,0.010837818345,-0.131549916355,-0.251754981855,-0.060973481855,0.088399394645,0.081351794645,0.237324378895,0.037103650895,-0.290505286605,-0.302931786605,3089,"DG_s15",31.296,32.001,34.315,34.318,6,22,10,10,2.314,"Left",6,22,16,16,0,0,16,0,16,0,-16,-16,"Disadvent",-4,12,6,10,22,10
"239",9,"LIP4-LIP5",-0.5489394213,-0.9255374463,-1.0698228615,-1.2744165005,-1.2380032505,-0.8559896255,-0.4684523755,-0.0975993045000001,-0.1321792045,-0.424965031,-0.7117074585,-0.9125010035,-0.9456619535,-0.776526677,-0.4455974995,3089,"DG_s15",31.296,32.001,34.315,34.318,6,22,10,10,2.314,"Left",6,22,16,16,0,0,16,0,16,0,-16,-16,"Disadvent",-4,12,6,10,22,10
"240",9,"LAM6-LAM7",0.2768106791,0.68768944115,0.62822400715,0.4218485038,0.00290930379999998,-0.3201005162,-0.27296535085,-0.3119845825,-0.39342833,-0.5275828835,-0.65836165635,-0.63379437135,-0.70931182385,-0.81387550035,-0.77251590035,3089,"DG_s15",31.296,32.001,34.315,34.318,6,22,10,10,2.314,"Left",6,22,16,16,0,0,16,0,16,0,-16,-16,"Disadvent",-4,12,6,10,22,10
"241",9,"LHB9-LHB10",-0.04029680655,-0.20434732045,-0.28546811045,-0.4872544714,-0.5885752314,-0.2974559675,0.1617503825,0.6965982325,0.7887486925,0.47639494,0.09037749,-0.23994585125,-0.4034616952,-0.3465226927,-0.3755026427,3089,"DG_s15",31.296,32.001,34.315,34.318,6,22,10,10,2.314,"Left",6,22,16,16,0,0,16,0,16,0,-16,-16,"Disadvent",-4,12,6,10,22,10
"242",9,"LAM7-LAM8",0.8370190775,0.54631995095,0.24989075945,0.15682325995,-0.19778146005,-0.3417151126,-0.1431464126,-0.2864251106,-0.4516621906,-0.5292786115,-0.6914212115,-0.737529449,-0.757510549,-0.827862149,-0.874862499,3089,"DG_s15",31.296,32.001,34.315,34.318,6,22,10,10,2.314,"Left",6,22,16,16,0,0,16,0,16,0,-16,-16,"Disadvent",-4,12,6,10,22,10
"243",9,"LHB5-LHB6",1.02918694,0.916624315,0.360092215,0.093604355,0.064394355,-0.000155094999999994,0.120757505,0.0608753049999999,0.22956318,0.56762933,0.625385645,0.562137695,0.51314897,0.22371392,0.0723425049999999,3089,"DG_s15",31.296,32.001,34.315,34.318,6,22,10,10,2.314,"Left",6,22,16,16,0,0,16,0,16,0,-16,-16,"Disadvent",-4,12,6,10,22,10
"244",9,"LIP3-LIP4",0.6890818118,0.7208293118,0.7904647368,1.0227746718,0.9230671218,0.8305301218,1.1064827968,0.9187548853,0.6834266303,0.2469924158,-0.3448133842,-0.4092816227,-0.3785740877,-0.2008897732,-0.0922994582,3089,"DG_s15",31.296,32.001,34.315,34.318,6,22,10,10,2.314,"Left",6,22,16,16,0,0,16,0,16,0,-16,-16,"Disadvent",-4,12,6,10,22,10
"245",9,"LHB8-LHB9",-0.404839979,-0.720914929,-0.851119325,-0.961814825,-0.953475073,-1.004855783,-0.871124218,-0.378520968,0.02407773,0.280191685,0.267313325,0.083494325,-0.185948575,-0.19345802,-0.260041338,3089,"DG_s15",31.296,32.001,34.315,34.318,6,22,10,10,2.314,"Left",6,22,16,16,0,0,16,0,16,0,-16,-16,"Disadvent",-4,12,6,10,22,10
"246",9,"LIP5-LIP6",0.0446131695,-0.1286049655,0.0667309894999999,-0.4285645555,-0.8322919105,-0.6335640205,-0.7185297905,-0.5912592955,-0.7372446745,-0.7654020795,-0.6108724895,-0.4382285895,-0.2159299555,-0.378733748,-0.612378453,3089,"DG_s15",31.296,32.001,34.315,34.318,6,22,10,10,2.314,"Left",6,22,16,16,0,0,16,0,16,0,-16,-16,"Disadvent",-4,12,6,10,22,10
"247",9,"LTT8-LTT9",-0.4100868615,-0.6703098115,-0.622024148,-0.438264048,-0.026536448,0.458644702,0.506554598,0.336561248,0.022128998,-0.372377907,-0.459166175,-0.31380484,0.05385776,0.411122465,0.59935943,3089,"DG_s15",31.296,32.001,34.315,34.318,6,22,10,10,2.314,"Left",6,22,16,16,0,0,16,0,16,0,-16,-16,"Disadvent",-4,12,6,10,22,10
"248",9,"LAM2-LAM3",0.1617159595,0.5486100095,0.5828875495,0.474506148,0.0267377718,-0.2099870482,-0.1595474547,-0.4225333447,-0.4432981485,-0.3708947285,-0.298192392,0.133459808,0.485337488,0.588421738,0.707684388,3089,"DG_s15",31.296,32.001,34.315,34.318,6,22,10,10,2.314,"Left",6,22,16,16,0,0,16,0,16,0,-16,-16,"Disadvent",-4,12,6,10,22,10
"249",9,"LAM1-LAM2",-1.396007406,-1.439385106,-1.748373106,-1.8201126425,-2.0975526175,-2.241315709,-1.880926159,-1.526517559,-1.135130459,-0.9493685425,-0.9739621125,-0.7772456125,-0.6671585125,-0.8055542675,-0.6648244975,3089,"DG_s15",31.296,32.001,34.315,34.318,6,22,10,10,2.314,"Left",6,22,16,16,0,0,16,0,16,0,-16,-16,"Disadvent",-4,12,6,10,22,10
"250",9,"LIP1-LIP2",0.9039886495,0.19979539,-0.3296473485,-0.7257401485,-0.600032613,-0.4551667535,-0.5131876435,-0.348813259,-0.149688519,-0.023603869,0.1798808095,0.210754175,0.02082742,-0.2883499125,-0.3543742245,3089,"DG_s15",31.296,32.001,34.315,34.318,6,22,10,10,2.314,"Left",6,22,16,16,0,0,16,0,16,0,-16,-16,"Disadvent",-4,12,6,10,22,10
"251",9,"LAM4-LAM5",-0.643251321,-0.715510921,-0.829566847,-0.937630937,-1.201667425,-1.422096945,-1.348795185,-1.178206785,-1.170627685,-1.262477115,-1.39186505,-1.36328765,-1.4412138,-1.4914426,-1.3112836005,3089,"DG_s15",31.296,32.001,34.315,34.318,6,22,10,10,2.314,"Left",6,22,16,16,0,0,16,0,16,0,-16,-16,"Disadvent",-4,12,6,10,22,10
"252",9,"LHH4-LHH5",1.313166946,1.250227746,0.900365222,0.466156172,0.036836522,-0.251835028,-0.369114754,-0.333079559,-0.181714184,-0.175855961,-0.194169361,-0.253386106,-0.2605353365,-0.0249299595,0.1835126895,3089,"DG_s15",31.296,32.001,34.315,34.318,6,22,10,10,2.314,"Left",6,22,16,16,0,0,16,0,16,0,-16,-16,"Disadvent",-4,12,6,10,22,10
"253",9,"LAM3-LAM4",-0.77899740725,-0.571341758,-0.686830173,-0.705409673,-1.045595823,-1.467529673,-1.5575102305,-1.458330955,-1.181542105,-0.9313159525,-0.753082581,-0.7007565115,-0.8022276515,-0.791005668,-0.9923410395,3089,"DG_s15",31.296,32.001,34.315,34.318,6,22,10,10,2.314,"Left",6,22,16,16,0,0,16,0,16,0,-16,-16,"Disadvent",-4,12,6,10,22,10
"254",9,"LIP7-LIP8",-0.521255211,-0.00534468399999999,0.0570069010000001,0.1844195945,0.0770536945000001,-0.1671107555,0.3376120345,0.732757352,0.909056352,0.9100901184,0.4081196184,0.0963461684000001,-0.2716084366,-0.4890931485,-0.3254193485,3089,"DG_s15",31.296,32.001,34.315,34.318,6,22,10,10,2.314,"Left",6,22,16,16,0,0,16,0,16,0,-16,-16,"Disadvent",-4,12,6,10,22,10
"255",9,"LTT9-LTT10",-0.457679747,-0.809212997,-1.058187497,-1.23788918,-1.20022318,-1.04852658,-1.07359428,-1.06758163,-1.05211723,-0.993267522,-0.748875382,-0.554939232415,-0.494237582415,-0.544070240415,-0.734811780415,3089,"DG_s15",31.296,32.001,34.315,34.318,6,22,10,10,2.314,"Left",6,22,16,16,0,0,16,0,16,0,-16,-16,"Disadvent",-4,12,6,10,22,10
"256",9,"LIP8-LIP9",-0.9596041945,-0.914524735,-0.97395189,-0.7211105505,-0.7503091185,-0.529750338,0.114353467,0.3819947775,0.5210857275,0.2240683375,-0.3833715625,-0.7149941885,-0.7511358575,-0.7497509575,-0.8055390075,3089,"DG_s15",31.296,32.001,34.315,34.318,6,22,10,10,2.314,"Left",6,22,16,16,0,0,16,0,16,0,-16,-16,"Disadvent",-4,12,6,10,22,10
"257",9,"LAM9-LAM10",-1.8524275105,-1.5395103405,-1.4843511305,-1.4825276005,-1.726566775,-1.841159925,-1.75018012,-1.67151592,-1.764538085,-2.091227185,-2.13260375,-2.09205485,-2.15269995,-2.0419319,-2.00799335,3089,"DG_s15",31.296,32.001,34.315,34.318,6,22,10,10,2.314,"Left",6,22,16,16,0,0,16,0,16,0,-16,-16,"Disadvent",-4,12,6,10,22,10
"258",9,"LAM5-LAM6",0.3535686805,0.38675207,0.09602222,-0.12008003,-0.39431168,-0.3826874265,-0.2211051375,-0.1720562925,-0.0207074695,0.153547757,0.090683707,0.143132107,0.415688884,0.204513509,-0.03774058,3089,"DG_s15",31.296,32.001,34.315,34.318,6,22,10,10,2.314,"Left",6,22,16,16,0,0,16,0,16,0,-16,-16,"Disadvent",-4,12,6,10,22,10
"259",9,"LHB6-LHB7",-0.9047572745,-1.045158029,-0.963579579,-1.0322622825,-1.1966058405,-1.073885405,-0.878193554,-1.0580392515,-0.9996697035,-1.044989818,-1.2624731357,-0.9907567407,-1.0491067302,-1.1719851052,-1.2543779885,3089,"DG_s15",31.296,32.001,34.315,34.318,6,22,10,10,2.314,"Left",6,22,16,16,0,0,16,0,16,0,-16,-16,"Disadvent",-4,12,6,10,22,10
"260",9,"LHH5-LHH6",0.763861908,0.841866758,0.891726127,0.815731222,0.640735641,0.5503396045,0.5126448735,0.5299020735,0.3565578545,0.204079341,0.255386261,0.229365011,0.199337161,0.114681961,-0.036745739,3089,"DG_s15",31.296,32.001,34.315,34.318,6,22,10,10,2.314,"Left",6,22,16,16,0,0,16,0,16,0,-16,-16,"Disadvent",-4,12,6,10,22,10
"261",9,"LHB7-LHB8",-0.7294160835,-0.8378620885,-0.8751197025,-1.10409316,-1.27430580035,-1.42676669535,-1.27420278335,-1.08202778335,-0.918991543,-0.6701958255,-0.7576877955,-0.7241062605,-0.8011807105,-0.8677200815,-0.9501402235,3089,"DG_s15",31.296,32.001,34.315,34.318,6,22,10,10,2.314,"Left",6,22,16,16,0,0,16,0,16,0,-16,-16,"Disadvent",-4,12,6,10,22,10
"262",10,"LTT8-LTT9",0.7694227865,0.954365988,0.549375638,0.1128066693,-0.3392696477,-0.3858961332,-0.1592271332,-0.238100914,-0.147586772,0.080921552,0.150831602,0.1070866605,0.0468853355,-0.3958765645,-0.6821876645,3090,"DG_s15",35.319,36.024,38.569,38.572,3,31,10,10,2.545,"Left",3,31,28,28,0,0,28,0,28,0,-28,-28,"Disadvent",-7,21,3,10,31,10
"263",10,"LIP7-LIP8",1.197120851,1.3724328,1.4539475,1.56476245,1.65932405,1.539350265,1.212806915,0.8656999845,0.7217282995,0.8247334845,0.9725656745,1.163268105,1.093804606,0.808762106,0.666251327,3090,"DG_s15",35.319,36.024,38.569,38.572,3,31,10,10,2.545,"Left",3,31,28,28,0,0,28,0,28,0,-28,-28,"Disadvent",-7,21,3,10,31,10
"264",10,"LIP5-LIP6",0.175928419,-0.067465981,-0.2101555025,-0.3600698775,-0.4997607875,-0.5574707375,-0.5650452375,-0.5323819875,-0.5632720875,-0.541535369,-0.380214774,-0.183987621,-0.027354121,-0.0041391895,0.0030682135,3090,"DG_s15",35.319,36.024,38.569,38.572,3,31,10,10,2.545,"Left",3,31,28,28,0,0,28,0,28,0,-28,-28,"Disadvent",-7,21,3,10,31,10
"265",10,"LIP8-LIP9",0.3392432955,0.464835003,0.192515443,0.23783136,0.1314134945,0.0247594965,0.2903378065,0.2189348775,0.1171549495,0.0598588775,-0.2027280725,-0.0586163845,0.2024666155,0.3012227605,0.462182861,3090,"DG_s15",35.319,36.024,38.569,38.572,3,31,10,10,2.545,"Left",3,31,28,28,0,0,28,0,28,0,-28,-28,"Disadvent",-7,21,3,10,31,10
"266",10,"LIP4-LIP5",0.284954411,0.02460989485,-0.18512860965,-0.20620577465,-0.03121952965,0.1272928365,0.063039615,0.025325065,-0.118912325,-0.429507825,-0.583222549,-0.530727899,-0.530360899,-0.571349299,-0.3185723445,3090,"DG_s15",35.319,36.024,38.569,38.572,3,31,10,10,2.545,"Left",3,31,28,28,0,0,28,0,28,0,-28,-28,"Disadvent",-7,21,3,10,31,10
"267",10,"LHB9-LHB10",-0.6782700535,-0.7160093965,-0.887278185,-1.072412335,-1.029087425,-1.125907575,-1.24896445,-1.2461567,-1.24005798,-1.1503760405,-0.8923591105,-0.972504458,-1.186514163,-1.12041581,-1.10000061,3090,"DG_s15",35.319,36.024,38.569,38.572,3,31,10,10,2.545,"Left",3,31,28,28,0,0,28,0,28,0,-28,-28,"Disadvent",-7,21,3,10,31,10
"268",10,"LAM5-LAM6",0.5118216995,0.1024491495,-0.5486559955,-0.706125714,-0.5004104145,-0.689299805,-0.77052311,-0.6953127215,-0.6811131215,-0.440545381,-0.3177326775,-0.5347014075,-0.7859023925,-0.7626601425,-0.715170281,3090,"DG_s15",35.319,36.024,38.569,38.572,3,31,10,10,2.545,"Left",3,31,28,28,0,0,28,0,28,0,-28,-28,"Disadvent",-7,21,3,10,31,10
"269",10,"LAM3-LAM4",-0.83668505815,-0.89545665415,-0.8503469255,-0.8537119505,-0.612044667,-0.387535452,-0.58122931,-0.614170411,-0.569567811,-0.5534721335,-0.5646419335,-0.7397003575,-0.90057511025,-0.84766385775,-0.60809476125,3090,"DG_s15",35.319,36.024,38.569,38.572,3,31,10,10,2.545,"Left",3,31,28,28,0,0,28,0,28,0,-28,-28,"Disadvent",-7,21,3,10,31,10
"270",10,"LIP3-LIP4",-0.403134799975,-0.783384649975,-0.811126137975,-0.563218299475,-0.155183899475,-0.158051067475,-0.157849516475,-0.078841404975,-0.145657004975,0.00964141802500001,0.020464839025,-0.297925960975,-0.577041760975,-0.695119965975,-0.861759937975,3090,"DG_s15",35.319,36.024,38.569,38.572,3,31,10,10,2.545,"Left",3,31,28,28,0,0,28,0,28,0,-28,-28,"Disadvent",-7,21,3,10,31,10
"271",10,"LTT9-LTT10",-0.4806759335,-0.6709842185,-0.7119055878,-0.6763692278,-0.5909931348,-0.6391594498,-0.7471277255,-0.9123063255,-0.866614239,-0.7416212805,-0.5229722135,-0.401654225,-0.406629121,-0.2736271795,-0.2892853965,3090,"DG_s15",35.319,36.024,38.569,38.572,3,31,10,10,2.545,"Left",3,31,28,28,0,0,28,0,28,0,-28,-28,"Disadvent",-7,21,3,10,31,10
"272",10,"LIP2-LIP3",-1.907193839,-2.087989,-1.974613882,-1.645576147,-1.382936637,-1.1415308785,-0.9135707465,-1.010713435,-1.094273595,-1.1554318804,-1.3508583754,-1.3987185719,-1.4673005719,-1.579449795,-1.402261715,3090,"DG_s15",35.319,36.024,38.569,38.572,3,31,10,10,2.545,"Left",3,31,28,28,0,0,28,0,28,0,-28,-28,"Disadvent",-7,21,3,10,31,10
"273",10,"LAM6-LAM7",-0.987869440305,-1.01330748045,-1.1615851895,-1.1609867645,-1.17315333688,-1.14410551288,-1.05100374368,-1.11300456868,-1.2138109788,-1.3253733738,-1.2656516075835,-1.2283684575835,-1.0548630720835,-0.7565233720835,-0.5581635575,3090,"DG_s15",35.319,36.024,38.569,38.572,3,31,10,10,2.545,"Left",3,31,28,28,0,0,28,0,28,0,-28,-28,"Disadvent",-7,21,3,10,31,10
"274",10,"LIP6-LIP7",0.5480643975,0.451173945,0.381563438,0.2783467985,0.2420326405,0.3552134455,0.351402028,0.274864928,0.271285661,0.292312201,0.2496984855,0.3557469355,0.269498962,0.259077987,0.74180452,3090,"DG_s15",35.319,36.024,38.569,38.572,3,31,10,10,2.545,"Left",3,31,28,28,0,0,28,0,28,0,-28,-28,"Disadvent",-7,21,3,10,31,10
"275",10,"LAM1-LAM2",0.2262720085,0.2310587965,0.1140247115,0.3134050365,0.285700786,0.119223238,0.166196288,0.00234985300000001,-0.00592124649999998,0.3178642685,0.6033070685,0.7905434235,0.7871963235,0.5942210525,0.2178137025,3090,"DG_s15",35.319,36.024,38.569,38.572,3,31,10,10,2.545,"Left",3,31,28,28,0,0,28,0,28,0,-28,-28,"Disadvent",-7,21,3,10,31,10
"276",10,"LAM4-LAM5",-1.189905665,-1.2237820535,-1.1149006105,-1.1243918605,-1.2468526605,-1.4879180855,-1.6933900435,-1.6243744385,-1.4927163885,-1.4589762885,-1.347744496,-1.312064111,-1.297324072,-0.849450072,-0.5163451145,3090,"DG_s15",35.319,36.024,38.569,38.572,3,31,10,10,2.545,"Left",3,31,28,28,0,0,28,0,28,0,-28,-28,"Disadvent",-7,21,3,10,31,10
"277",10,"LHB8-LHB9",0.279287045,0.3480314085,0.1726672085,-0.285069677,-0.344868347,-0.5585217855,-0.9355569355,-1.02207245,-0.93249807,-0.97084716,-0.96707011,-0.843433045,-0.740842883,-0.537828193,-0.503297468,3090,"DG_s15",35.319,36.024,38.569,38.572,3,31,10,10,2.545,"Left",3,31,28,28,0,0,28,0,28,0,-28,-28,"Disadvent",-7,21,3,10,31,10
"278",10,"LAM9-LAM10",-0.309972157,-0.248100257,-0.40539512285,-0.42649996285,-0.61381570785,-0.97282505785,-1.140371442,-1.391700402,-1.448828807,-1.333810407,-1.1863989595,-1.01481637575,-0.98120170225,-0.66014265225,-0.29894044975,3090,"DG_s15",35.319,36.024,38.569,38.572,3,31,10,10,2.545,"Left",3,31,28,28,0,0,28,0,28,0,-28,-28,"Disadvent",-7,21,3,10,31,10
"279",10,"LAM8-LAM9",0.636231141,0.861564126,1.010143996,1.095613762,1.022040912,0.579098962,0.227328362,0.13445549605,0.26021882455,0.39464317455,0.45501942455,0.3719476075,0.4458472115,0.6179063615,0.8580048615,3090,"DG_s15",35.319,36.024,38.569,38.572,3,31,10,10,2.545,"Left",3,31,28,28,0,0,28,0,28,0,-28,-28,"Disadvent",-7,21,3,10,31,10
"280",10,"LAM2-LAM3",0.263832056,0.3262035055,0.158343213,0.09228920105,-0.11786158545,-0.43182663645,-0.32255567845,-0.0715559915,0.256982545,0.747301095,1.137313437,1.229227587,0.8479519205,0.7033189655,0.6576388655,3090,"DG_s15",35.319,36.024,38.569,38.572,3,31,10,10,2.545,"Left",3,31,28,28,0,0,28,0,28,0,-28,-28,"Disadvent",-7,21,3,10,31,10
"281",10,"LHB4-LHB5",0.8722035088,0.9570424588,1.1510641588,1.1007335338,0.9666317338,0.7091285348,0.3873004348,0.0698951348,-0.3554484652,-0.4366353317,-0.1478303817,0.2199093183,0.5082902483,0.5749048638,0.6911556138,3090,"DG_s15",35.319,36.024,38.569,38.572,3,31,10,10,2.545,"Left",3,31,28,28,0,0,28,0,28,0,-28,-28,"Disadvent",-7,21,3,10,31,10
"282",10,"LHH7-LHH8",-0.27455395835,-0.05762015485,0.12236449015,-0.09499333985,-0.02379283985,-0.21760155485,-0.48661397485,-0.41833444485,-0.67156713735,-0.65256703735,-0.49926303735,-0.50167310085,-0.42103060785,-0.42179574285,-0.29826024285,3090,"DG_s15",35.319,36.024,38.569,38.572,3,31,10,10,2.545,"Left",3,31,28,28,0,0,28,0,28,0,-28,-28,"Disadvent",-7,21,3,10,31,10
"283",10,"LAM7-LAM8",-0.25938800585,0.22834964415,0.57214269415,0.77383555415,0.88826578385,0.63896193385,0.58759263385,0.65260145885,0.35249710885,0.06005835885,-0.26147969115,-0.39228617615,-0.25206287615,-0.05110531415,0.25590866085,3090,"DG_s15",35.319,36.024,38.569,38.572,3,31,10,10,2.545,"Left",3,31,28,28,0,0,28,0,28,0,-28,-28,"Disadvent",-7,21,3,10,31,10
"284",10,"LIP1-LIP2",0.90835846,0.6775095525,0.557403677,0.336972702,0.179606802,0.1953034695,0.135101045,0.18543916,0.33529031,0.37386261,0.33475656,0.16713397,0.34369644,0.60931074,0.84697874,3090,"DG_s15",35.319,36.024,38.569,38.572,3,31,10,10,2.545,"Left",3,31,28,28,0,0,28,0,28,0,-28,-28,"Disadvent",-7,21,3,10,31,10
"285",10,"LHH5-LHH6",0.06336357025,0.47794312025,0.57461047075,0.33624980325,-0.11696059675,-0.45244244675,-0.59760939725,-0.41112079225,-0.08767433375,0.35904761625,0.69824226625,0.77733964075,0.66673280725,0.29415340725,-0.06833859275,3090,"DG_s15",35.319,36.024,38.569,38.572,3,31,10,10,2.545,"Left",3,31,28,28,0,0,28,0,28,0,-28,-28,"Disadvent",-7,21,3,10,31,10
"286",10,"LHB5-LHB6",-0.7263057361,-0.81737113085,-0.72633613085,-0.69121513085,-0.67749200085,-0.79726080085,-0.90686790085,-1.01171260085,-1.18076108085,-1.14557638085,-0.97210579885,-0.83981051235,-0.75869126235,-0.75323506235,-0.81148025335,3090,"DG_s15",35.319,36.024,38.569,38.572,3,31,10,10,2.545,"Left",3,31,28,28,0,0,28,0,28,0,-28,-28,"Disadvent",-7,21,3,10,31,10
"287",10,"LHB6-LHB7",-0.881473798,-0.9065552545,-0.97134986,-1.120332945,-1.13722305,-1.1954590015,-1.3042952035,-1.1913881085,-1.2753799595,-1.3417348545,-1.2026243745,-1.232205988,-1.2374166745,-1.1004585075,-1.2457259875,3090,"DG_s15",35.319,36.024,38.569,38.572,3,31,10,10,2.545,"Left",3,31,28,28,0,0,28,0,28,0,-28,-28,"Disadvent",-7,21,3,10,31,10
"288",10,"LHH6-LHH7",0.343560865,0.49891832,0.492499145,0.60371731,0.490996915,0.4059423275,0.4907027605,0.3107171955,0.1651882205,0.092981128,0.12991100325,0.39160705325,0.57234019425,0.52319824925,0.4489446275,3090,"DG_s15",35.319,36.024,38.569,38.572,3,31,10,10,2.545,"Left",3,31,28,28,0,0,28,0,28,0,-28,-28,"Disadvent",-7,21,3,10,31,10
"289",10,"LHH4-LHH5",-0.4970106362,-0.1753306755,0.1447064745,0.2541536265,-0.00482265500000001,-0.534272705,-0.957886305,-1.184250457,-1.1373664905,-0.8185443905,-0.5369264955,-0.3518888505,-0.297143302,-0.471976802,-0.724228947,3090,"DG_s15",35.319,36.024,38.569,38.572,3,31,10,10,2.545,"Left",3,31,28,28,0,0,28,0,28,0,-28,-28,"Disadvent",-7,21,3,10,31,10
"290",10,"LHB7-LHB8",-0.215536601,-0.127011761,-0.213484766,-0.504335076,-0.523543315,-0.79618092,-1.148516015,-1.061849605,-1.046105955,-1.092411405,-1.049692805,-1.137718405,-1.1124999,-1.04534248,-0.9271923405,3090,"DG_s15",35.319,36.024,38.569,38.572,3,31,10,10,2.545,"Left",3,31,28,28,0,0,28,0,28,0,-28,-28,"Disadvent",-7,21,3,10,31,10
"291",11,"LAM2-LAM3",0.2212575545,0.1956049095,0.1918416245,0.0327305565,-0.2317330935,-0.1753910705,0.1039258645,0.5673806295,0.721744983,0.719960715,0.528634346,0.20542138367,0.25991723017,0.39551717017,0.34744992417,3091,"DG_s15",39.573,40.278,43.833,43.835,10,10,3,12,3.555,"Left",3,12,9,0,9,9,9,0,0,0,-9,0,"10-10",7,-2,10,3,10,12
"292",11,"LHB9-LHB10",-1.64387819745,-1.53662923795,-1.55190375795,-1.36292354995,-1.17939472845,-1.24494877295,-1.20014438795,-1.32614289095,-1.38124941245,-1.38709652745,-1.50136894245,-1.3163974184,-0.9427574184,-0.9140755534,-0.6717885134,3091,"DG_s15",39.573,40.278,43.833,43.835,10,10,3,12,3.555,"Left",3,12,9,0,9,9,9,0,0,0,-9,0,"10-10",7,-2,10,3,10,12
