"","trial","electrodes","pre_13","pre_12","pre_11","pre_10","pre_9","pre_8","pre_7","pre_6","pre_5","pre_4","pre_3","pre_2","pre_1","post_1","post_2","post_3","post_4","post_5","post_6","post_7","X","SID","newround_time","choice_time","buttonpress_time","reveal_time","self_payoff","other_payoff","self_foregone","other_foregone","RT","side_chosen","self_var_payoff","other_var_payoff","ineq_var_abs","ineq_choice_abs","ineq_foregone_abs","ineq_foregone","ineq_disadvent","ineq_advent","ineq_disadvent_choice","ineq_advent_choice","ineq_var","ineq_choice","chose_equality","self_diff","other_diff","L_self","R_self","L_other","R_other"
"1",1,"LAM1-LAM2",-0.915548508323232,-1.18299160832323,-1.26155478232323,-1.13666460732323,-0.614745807323232,-0.229714007323232,0.0848361926767677,0.263776567676768,0.129257167676768,-0.109242185823232,-0.268761535823232,-0.499445725823232,-0.696984197823232,-0.711529574323232,-0.782197868823232,-0.978822928823232,-1.16985885682323,-1.38348097682323,-1.46517328232323,-1.37348793232323,3081,"DG_s15",-0.702,0.00200000000007,2.082,2.084,10,10,6,6,2.08,"Left",6,6,0,0,0,0,0,0,0,0,0,0,"10-10",4,4,10,6,10,6
"2",1,"LHH5-LHH6",0.249161220858586,-0.0372042291414141,0.215419635858586,0.484424885858586,0.671649935858586,0.912560385858586,1.09997293585859,0.920255635858586,0.469631098358586,0.322309548358586,-0.125074841641414,-0.583491491641414,-0.785215804141414,-1.10846695414141,-1.34048631414141,-1.36516261414141,-1.25411646314141,-1.08711113814141,-0.859051888141414,-0.563063588141414,3081,"DG_s15",-0.702,0.00200000000007,2.082,2.084,10,10,6,6,2.08,"Left",6,6,0,0,0,0,0,0,0,0,0,0,"10-10",4,4,10,6,10,6
"3",1,"LAM6-LAM7",0.658653573989899,0.497933673989899,0.847219823989899,1.2145600739899,1.6224923239899,1.9874821739899,1.8905539239899,1.4990982739899,0.966584023989899,0.718905923989899,0.717560923989899,0.696695423989899,0.658497123989899,0.477606555489899,0.098434145489899,0.060511245489899,0.215892995489899,0.336459863989899,0.278541453989899,0.158972348989899,3081,"DG_s15",-0.702,0.00200000000007,2.082,2.084,10,10,6,6,2.08,"Left",6,6,0,0,0,0,0,0,0,0,0,0,"10-10",4,4,10,6,10,6
"4",1,"LAM7-LAM8",-0.179112395883838,-0.110539245883838,0.126563261616162,0.264251161616162,0.407623111616161,0.326571146616162,0.0587913446161615,-0.220163016883838,-0.656267857983838,-0.657653997983838,-0.456193245983838,-0.392834337483838,-0.411465251383838,-0.621910946383838,-0.918970096383838,-0.971821257883838,-0.926434797883838,-0.801850182883838,-0.785251382883838,-0.979153468383838,3081,"DG_s15",-0.702,0.00200000000007,2.082,2.084,10,10,6,6,2.08,"Left",6,6,0,0,0,0,0,0,0,0,0,0,"10-10",4,4,10,6,10,6
"5",1,"LAM2-LAM3",-0.212879408333333,0.0382932876666667,0.0675956326666667,-0.181539562333333,-0.447551362333333,-0.646739658333333,-0.394403887333333,-0.113843737333333,-0.133615454833333,-0.00701546483333333,0.198636964166667,0.136485199166667,0.0250876166666667,0.0282875309166667,-0.369941419083333,-0.344738681083333,0.242942518916667,0.504010164666667,0.658267039166667,0.432346441166667,3081,"DG_s15",-0.702,0.00200000000007,2.082,2.084,10,10,6,6,2.08,"Left",6,6,0,0,0,0,0,0,0,0,0,0,"10-10",4,4,10,6,10,6
"6",1,"LHH6-LHH7",-0.398825710651515,-0.567128021251515,-0.166411725751515,-0.0361443257515153,0.134406774248485,0.472230234848485,0.517958734848485,0.505559234848485,0.388070184848485,0.189464184848485,0.0228492348484848,-0.257975055151515,-0.550396010651515,-0.783559723651515,-1.17080382365152,-1.27941333365152,-1.30016940815152,-1.28853067465152,-1.27153771170152,-1.05260321170152,3081,"DG_s15",-0.702,0.00200000000007,2.082,2.084,10,10,6,6,2.08,"Left",6,6,0,0,0,0,0,0,0,0,0,0,"10-10",4,4,10,6,10,6
"7",1,"LAM3-LAM4",-0.0614029568080808,-0.186985640308081,-0.282886111508081,-0.439648521008081,-0.413419837008081,-0.523830288508081,-0.0942873583080808,0.450700873191919,0.603389499191919,0.850228034191919,0.536717970691919,-0.0608082793080808,-0.338856534308081,-0.580493084308081,-0.838154670808081,-0.765665725808081,-0.294061970808081,0.284877729191919,0.824124779191919,1.09075143419192,3081,"DG_s15",-0.702,0.00200000000007,2.082,2.084,10,10,6,6,2.08,"Left",6,6,0,0,0,0,0,0,0,0,0,0,"10-10",4,4,10,6,10,6
"8",1,"LHH7-LHH8",0.662654683333333,0.384746425833333,0.0398573358333333,0.000532228833333315,-0.184546271166667,-0.269327143916667,0.268648556083333,0.853486053083333,1.01333960308333,0.933639063333333,0.472068963333333,-0.283141886666667,-0.627478870666667,-0.612296195566667,-0.651577545566667,-0.536086815066667,-0.410681381066667,-0.232444136166667,0.196467313833333,0.539160783333333,3081,"DG_s15",-0.702,0.00200000000007,2.082,2.084,10,10,6,6,2.08,"Left",6,6,0,0,0,0,0,0,0,0,0,0,"10-10",4,4,10,6,10,6
"9",1,"LIP5-LIP6",0.273150653345454,0.0751390813454545,-0.249810116189545,0.0348295100104545,0.812178485010455,1.22649105701045,1.58056675454545,1.60508040454545,1.38382535454545,0.872814659545454,0.507570774545455,0.254612974545455,-0.252990175454545,-0.261843350454545,-0.278087125454546,-0.355219424454545,-0.0718372244545455,0.0654915575454545,-0.0442068924545455,-0.246135213454545,3081,"DG_s15",-0.702,0.00200000000007,2.082,2.084,10,10,6,6,2.08,"Left",6,6,0,0,0,0,0,0,0,0,0,0,"10-10",4,4,10,6,10,6
"10",1,"LAM4-LAM5",0.917202197863636,0.662147572863636,0.882222552863636,1.10867715286364,1.63714481136364,2.09012018636364,2.08217363636364,1.70728796006364,1.11087435601364,0.805652956013636,0.655403286013636,0.619688243813636,0.728689937863636,0.571981982863636,0.423088710363636,0.568075328863636,0.603625638863636,0.673486043863636,0.642431042363636,0.584353317363636,3081,"DG_s15",-0.702,0.00200000000007,2.082,2.084,10,10,6,6,2.08,"Left",6,6,0,0,0,0,0,0,0,0,0,0,"10-10",4,4,10,6,10,6
"11",1,"LIP1-LIP2",-0.11855381940404,0.0593947500959596,0.0266776000959596,0.10700195309596,0.12963939209596,0.20056734259596,0.29600105759596,0.24865310459596,0.19299908569596,0.27284251569596,0.50386664569596,0.44040099569596,0.50984475709596,0.66130835709596,0.59234706709596,0.57654201709596,0.41372451459596,0.14774645559596,0.21703690059596,0.35457404659596,3081,"DG_s15",-0.702,0.00200000000007,2.082,2.084,10,10,6,6,2.08,"Left",6,6,0,0,0,0,0,0,0,0,0,0,"10-10",4,4,10,6,10,6
"12",1,"LHB4-LHB5",0.663515371818182,0.411981606818182,0.297833966818182,-0.177689110681818,-0.562726917181818,-0.169519202181818,0.531868447818182,0.782779525318182,0.629390655818182,0.0556192058181818,-0.654276744181818,-0.958970664181818,-0.903867347681818,-0.815048992181818,-0.402361692181818,-0.0425203721818181,0.0667708073181819,0.194723111818182,0.211175011818182,0.351944811818182,3081,"DG_s15",-0.702,0.00200000000007,2.082,2.084,10,10,6,6,2.08,"Left",6,6,0,0,0,0,0,0,0,0,0,0,"10-10",4,4,10,6,10,6
"13",1,"LAM5-LAM6",0.00582995345454546,-0.0814942360454545,-0.155097014045455,-0.0530955440454545,0.555337055954545,1.20441730545455,1.35813523095455,1.26145120095455,0.358803895954545,-0.359318387545455,-0.379466638045455,-0.619474485045455,-0.408613880045455,-0.299563744045455,-0.447921219045455,-0.393162618545455,-0.487123505045455,-0.511121389045455,-0.318928592045455,-0.504823645545455,3081,"DG_s15",-0.702,0.00200000000007,2.082,2.084,10,10,6,6,2.08,"Left",6,6,0,0,0,0,0,0,0,0,0,0,"10-10",4,4,10,6,10,6
"14",1,"LIP2-LIP3",0.914606575116162,0.848263333616162,0.357637523616162,0.183788023616162,0.306900173616162,0.544010601616162,0.875876961616162,0.905312261616162,0.673902911616162,0.428267361616162,0.216852980966162,-0.00862571403383838,-0.300564714033838,-0.574630064033838,-0.591572263383838,-0.452601518383838,-0.403779123883838,-0.345634858883838,-0.318953362183838,-0.534418487183838,3081,"DG_s15",-0.702,0.00200000000007,2.082,2.084,10,10,6,6,2.08,"Left",6,6,0,0,0,0,0,0,0,0,0,0,"10-10",4,4,10,6,10,6
"15",1,"LHH4-LHH5",-0.613094746020202,-1.0533022580202,-1.1815055335202,-0.698392370520202,-0.487245170520202,-0.266958158520202,0.213582947979798,0.0177083959797979,-0.323608949020202,-0.305976549020202,-0.764112442520202,-1.0668655905202,-1.1900642455202,-1.4982176455202,-1.5369013520202,-1.5059424520202,-1.4637896020202,-1.4073957320202,-1.3053264830702,-1.1918712369547,3081,"DG_s15",-0.702,0.00200000000007,2.082,2.084,10,10,6,6,2.08,"Left",6,6,0,0,0,0,0,0,0,0,0,0,"10-10",4,4,10,6,10,6
"16",1,"LHB5-LHB6",1.16724735151515,0.646156837015152,0.271492130515151,0.376451130515151,0.0188682355151515,0.178670285015152,0.623927191515151,0.770299141515152,0.956978936515152,0.786631151515152,0.367477601515151,0.0633597015151515,-0.100036019984849,-0.380037219984849,-0.766000319984849,-1.01336151998485,-1.08585964848485,-0.830467390984849,-0.429656490984848,-0.0551226409848485,3081,"DG_s15",-0.702,0.00200000000007,2.082,2.084,10,10,6,6,2.08,"Left",6,6,0,0,0,0,0,0,0,0,0,0,"10-10",4,4,10,6,10,6
"17",1,"LHB6-LHB7",0.732126002282828,1.05862070228283,1.27968462378283,1.00683159978283,0.861948499782828,0.771294458132828,0.771104890682828,1.03336564068283,1.05081209068283,1.06462473233283,1.23279732828283,1.40575667828283,1.47398002828283,1.28797162378283,0.985532278782828,0.889787128782828,0.726614444282828,0.745521168782828,1.27322511378283,1.52589746378283,3081,"DG_s15",-0.702,0.00200000000007,2.082,2.084,10,10,6,6,2.08,"Left",6,6,0,0,0,0,0,0,0,0,0,0,"10-10",4,4,10,6,10,6
"18",1,"LIP4-LIP5",-0.281452641747475,-0.298485049747475,-0.613867199747475,-0.822054524747475,-0.720128734197475,-0.654148286697475,-0.700675336697475,-0.790361686697475,-0.967119527247475,-1.03975692474747,-0.886203229747475,-0.708625029747475,-0.536465529747475,-0.665530879747475,-0.696431062547475,-0.390927762547475,-0.00202541254747476,0.148444882452525,0.247002494752525,0.132980094752525,3081,"DG_s15",-0.702,0.00200000000007,2.082,2.084,10,10,6,6,2.08,"Left",6,6,0,0,0,0,0,0,0,0,0,0,"10-10",4,4,10,6,10,6
"19",1,"LAM9-LAM10",0.0388688882171717,0.197437738217172,0.421827871717172,0.526707471717172,0.689186471717172,0.707159371717172,0.334709281717172,-0.262593968282828,-0.913179968282828,-1.38417426828283,-1.26174445328283,-0.945196503282828,-0.656596053282828,-0.270489853282828,-0.0686306282828283,0.302549171717172,0.521130721717172,0.530764971717172,0.601398771717172,0.307078421717172,3081,"DG_s15",-0.702,0.00200000000007,2.082,2.084,10,10,6,6,2.08,"Left",6,6,0,0,0,0,0,0,0,0,0,0,"10-10",4,4,10,6,10,6
"20",1,"LHB7-LHB8",0.252303764646465,0.100698314646465,0.0603443146464647,-0.0396769353535353,0.104105064646465,0.291173814646465,0.179780839646465,-0.117779960353535,-0.496533160353535,-0.957014510353535,-1.20447763535354,-1.01096907535354,-0.994142875353535,-1.07672027535354,-0.804919755353535,-0.417901965353535,-0.185720090353535,-0.0614313363535353,0.0963463936464647,-0.308186872853535,3081,"DG_s15",-0.702,0.00200000000007,2.082,2.084,10,10,6,6,2.08,"Left",6,6,0,0,0,0,0,0,0,0,0,0,"10-10",4,4,10,6,10,6
"21",1,"LAM8-LAM9",0.179394728722222,-0.104538361277778,0.333878580222222,0.466676248222222,0.804775182222222,1.05914747222222,0.851156883222222,0.593980503222222,0.394924404722222,0.206493054722222,0.0848116517222222,0.0980406297222222,0.151269128222222,0.218440628222222,0.541335620222222,0.839195222222222,0.946965922222222,0.803784710222222,0.463696395222222,0.123375095222222,3081,"DG_s15",-0.702,0.00200000000007,2.082,2.084,10,10,6,6,2.08,"Left",6,6,0,0,0,0,0,0,0,0,0,0,"10-10",4,4,10,6,10,6
"22",1,"LIP7-LIP8",0.23469412020202,0.19176152020202,0.46692797020202,0.64976977020202,0.30410751020202,0.0789903482020202,-0.42941460679798,-0.99525873729798,-1.03258070529798,-1.14312009329798,-1.12792808829798,-1.07797094279798,-0.90127296479798,-0.75771732979798,-0.89065972979798,-0.97412539479798,-1.14251186218798,-1.20752864718798,-1.00496133543798,-0.69090703543798,3081,"DG_s15",-0.702,0.00200000000007,2.082,2.084,10,10,6,6,2.08,"Left",6,6,0,0,0,0,0,0,0,0,0,0,"10-10",4,4,10,6,10,6
"23",1,"LTT8-LTT9",0.637767083474748,0.400894472974747,0.493536405474747,0.690039776974747,0.933971936974747,0.994103589974747,0.995980408974747,1.06537745897475,0.823449860474748,0.757732869974747,0.476045200974747,0.274551913524748,0.245235774024747,0.221234361024747,0.400035196024747,0.339974707924747,0.266370480924747,0.365902961924747,0.369792562424747,0.259427537974747,3081,"DG_s15",-0.702,0.00200000000007,2.082,2.084,10,10,6,6,2.08,"Left",6,6,0,0,0,0,0,0,0,0,0,0,"10-10",4,4,10,6,10,6
"24",1,"LIP6-LIP7",0.673660727979798,0.548833177979798,0.286884697979798,0.086732157979798,0.321079307979798,0.541959457979798,1.0181858379798,1.7466317279798,1.7760025279798,1.3586714929798,0.920575103479798,0.340113303479798,0.00785160347979799,0.233911788479798,0.397608677979798,0.257605367979798,0.121574856979798,0.133869756979798,0.263377506979798,0.343910846979798,3081,"DG_s15",-0.702,0.00200000000007,2.082,2.084,10,10,6,6,2.08,"Left",6,6,0,0,0,0,0,0,0,0,0,0,"10-10",4,4,10,6,10,6
"25",1,"LIP8-LIP9",-0.919006610171717,-0.997441610171717,-0.709240555171717,-0.477621017171717,-0.678188751171717,-0.866827796171717,-1.07699340617172,-1.41158620617172,-1.48717007217172,-1.54193377717172,-1.43369305917172,-1.27463989917172,-1.19917924917172,-1.23500414917172,-1.49193745717172,-1.69654521717172,-1.77865191717172,-1.59345652017172,-1.26737497017172,-0.873533170171717,3081,"DG_s15",-0.702,0.00200000000007,2.082,2.084,10,10,6,6,2.08,"Left",6,6,0,0,0,0,0,0,0,0,0,0,"10-10",4,4,10,6,10,6
"26",1,"LTT9-LTT10",0.515702278035354,0.304436519435354,0.178422747935354,0.0925436869353535,0.228590229935354,0.474839238535354,0.485689668535354,0.598927308035354,0.433052513035354,0.0437956130353535,-0.0966523369646465,-0.341952941464646,-0.417172741464646,-0.390794691464646,-0.292658199964646,-0.101352979964646,0.104509465035354,0.842918415035353,1.63115657353535,1.70880913853535,3081,"DG_s15",-0.702,0.00200000000007,2.082,2.084,10,10,6,6,2.08,"Left",6,6,0,0,0,0,0,0,0,0,0,0,"10-10",4,4,10,6,10,6
"27",1,"LHB9-LHB10",0.557676637878788,0.436289037878788,0.372971237878788,0.455205437878788,0.554663787878788,0.225199274378788,0.154401002378788,-0.0954053711212121,-0.477105321121212,-0.393632897621212,-0.542499825621212,-0.621565202121212,-0.654142202121212,-0.835290412121212,-0.876082956621212,-0.530100106621212,-0.118623106621212,0.0984921188787879,0.00695231337878788,-0.258563451121212,3081,"DG_s15",-0.702,0.00200000000007,2.082,2.084,10,10,6,6,2.08,"Left",6,6,0,0,0,0,0,0,0,0,0,0,"10-10",4,4,10,6,10,6
"28",1,"LHB8-LHB9",-1.08861491732879,-0.936113015828788,-0.766361787878788,-0.789851287878788,-0.833407887878788,-0.956299462878788,-1.16085482137879,-1.33522592137879,-1.57721577137879,-1.81633024637879,-2.07059878787879,-2.09510048787879,-2.01059193787879,-2.01610513787879,-1.62127047787879,-1.12290882787879,-1.05930643287879,-0.850660142878788,-0.941921537878788,-1.44504789787879,3081,"DG_s15",-0.702,0.00200000000007,2.082,2.084,10,10,6,6,2.08,"Left",6,6,0,0,0,0,0,0,0,0,0,0,"10-10",4,4,10,6,10,6
"29",1,"LIP3-LIP4",-0.375471882717172,-0.568410047217172,-0.482156097217172,-0.850484890217172,-0.958899715217172,-0.966598394717172,-1.22027636971717,-1.19403427671717,-1.05591818021717,-0.903925611717172,-0.811010011717172,-0.851990461717172,-1.11677280821717,-1.32069427671717,-1.20178312471717,-0.970497234717172,-0.909327434717172,-0.802231039717172,-0.809521997217172,-0.986415472217172,3081,"DG_s15",-0.702,0.00200000000007,2.082,2.084,10,10,6,6,2.08,"Left",6,6,0,0,0,0,0,0,0,0,0,0,"10-10",4,4,10,6,10,6
"30",2,"LIP1-LIP2",-0.628006891919192,-0.586026091919192,-0.461814836919192,-0.222754387419192,0.185393412580808,0.612952812580808,0.860870707580808,0.687128980080808,0.294162080080808,-0.0520526699191919,-0.401012469919192,-0.629398341919192,-0.794386791919192,-0.859919691919192,-0.607707496919192,-0.268576846919192,0.0791846530808081,0.337079303080808,0.351747008080808,0.478468608080808,3082,"DG_s15",3.085,3.791,6.023,6.025,18,18,10,10,2.232,"Right",18,18,0,0,0,0,0,0,0,0,0,0,"Equal",8,8,10,18,10,18
"31",2,"LHH7-LHH8",-0.16479666010101,-0.11747586010101,0.00213473989898988,0.00742138989898988,0.0704091748989899,0.12415773139899,0.47727663139899,0.75504074334899,0.72338769284899,1.15167658634899,1.28078548634899,1.08559935039899,1.04380271589899,0.49658771589899,0.0287105658989899,-0.0645753291010101,0.12745676439899,0.14339723739899,0.53065138739899,1.02985935639899,3082,"DG_s15",3.085,3.791,6.023,6.025,18,18,10,10,2.232,"Right",18,18,0,0,0,0,0,0,0,0,0,0,"Equal",8,8,10,18,10,18
"32",2,"LIP4-LIP5",-0.554878807629293,-0.686484157629293,-0.832020157629293,-0.981561467929293,-0.772475240929293,-0.202393190929293,0.290804559070707,0.333316887570707,0.172178200570707,0.109734500570707,0.124215750570707,0.281279548570707,0.270931023570707,0.0620031260707071,-0.0768517769292929,-0.292249003429293,-0.482481653429293,-0.523925420929293,-0.450528217929293,-0.358448183429293,3082,"DG_s15",3.085,3.791,6.023,6.025,18,18,10,10,2.232,"Right",18,18,0,0,0,0,0,0,0,0,0,0,"Equal",8,8,10,18,10,18
"33",2,"LHH5-LHH6",0.254447565656566,0.206786415656566,0.0924681051565657,-0.0923382448434343,-0.194208396143434,-0.304780601143434,-0.385932223643434,-0.449654483643434,-0.231918182343434,-0.0792102273434343,0.0217632633565657,0.0469717883565657,-0.277350411643434,-0.562313561643434,-0.590717848343434,-0.471257689843434,-0.505523139843434,-0.417896057843434,-0.403050906343434,-0.410552429843434,3082,"DG_s15",3.085,3.791,6.023,6.025,18,18,10,10,2.232,"Right",18,18,0,0,0,0,0,0,0,0,0,0,"Equal",8,8,10,18,10,18
"34",2,"LAM1-LAM2",0.502043579578283,0.771576454578283,1.08921408282828,0.936713613328283,0.816121448328283,0.841389598328283,0.743918598328283,1.19891436782828,1.62816703282828,1.57375083282828,1.39459159582828,0.905377095828283,0.210460095828283,-0.0803026541717172,-0.142215967171717,-0.167372417171717,0.0644931223282829,0.0621293618282828,0.0160535718282828,0.181105837328283,3082,"DG_s15",3.085,3.791,6.023,6.025,18,18,10,10,2.232,"Right",18,18,0,0,0,0,0,0,0,0,0,0,"Equal",8,8,10,18,10,18
"35",2,"LIP7-LIP8",-0.134858903242424,-0.362442303242424,-0.448271884242424,-0.456657684242424,-0.499444984242424,-0.296380569742424,-0.244863645942424,-0.170387295942424,0.0465939215575758,0.0659025570575758,0.135089003257576,0.237022110507576,0.121747843007576,-0.0948054569924242,-0.228820426992424,-0.380407584242424,-0.349730584242424,-0.327454684242424,-0.368587934242424,-0.391177284242424,3082,"DG_s15",3.085,3.791,6.023,6.025,18,18,10,10,2.232,"Right",18,18,0,0,0,0,0,0,0,0,0,0,"Equal",8,8,10,18,10,18
"36",2,"LIP2-LIP3",1.33702853919192,1.50094833919192,1.33175021919192,1.05339820039192,0.597610187391919,0.119162737391919,0.130183408891919,0.184454662231919,0.221652835231919,0.356154187731919,0.530949586231919,0.643887601691919,0.632447561691919,0.641454119191919,0.569659739191919,0.304868457691919,0.294070864191919,0.468683604191919,0.424677914191919,0.485624545691919,3082,"DG_s15",3.085,3.791,6.023,6.025,18,18,10,10,2.232,"Right",18,18,0,0,0,0,0,0,0,0,0,0,"Equal",8,8,10,18,10,18
"37",2,"LAM7-LAM8",-0.12499902020202,-0.23262387520202,-0.21125814020202,-0.26123994020202,-0.19461754020202,-0.19703134020202,0.0196599847579798,0.50996763475798,0.57987733275798,0.95890183275798,1.01493077779798,0.83856387779798,1.16001637979798,1.16345272979798,0.93129425979798,0.62569105979798,0.23880221129798,0.15091661129798,0.19965137679798,0.17259092679798,3082,"DG_s15",3.085,3.791,6.023,6.025,18,18,10,10,2.232,"Right",18,18,0,0,0,0,0,0,0,0,0,0,"Equal",8,8,10,18,10,18
"38",2,"LAM8-LAM9",0.934844541537374,1.18427522373737,0.992976873737374,0.453769254237374,0.0629556742373737,-0.0684712257626263,-0.290118830762626,-0.360439561262626,-0.297984781262626,-0.550814581262626,-0.661292226262626,-0.465684405712626,-0.292946505712626,-0.241954388712626,-0.112995839712626,-0.178963925762626,-0.389274610762626,-0.210451196262626,-0.0236444952626263,0.140583070237374,3082,"DG_s15",3.085,3.791,6.023,6.025,18,18,10,10,2.232,"Right",18,18,0,0,0,0,0,0,0,0,0,0,"Equal",8,8,10,18,10,18
"39",2,"LTT9-LTT10",0.135385597929293,0.133514572929293,0.260289522929293,0.0310880434292929,-0.107454086570707,-0.135215136570707,-0.176745597570707,-0.191476068070707,-0.320925238070707,-0.556414338070707,-0.752435907070707,-0.700218289570707,-0.410639039570707,-0.118604939570707,0.0520835004292929,-0.0773155170707071,-0.296689605070707,-0.433131410070707,-0.145981400070707,0.310138299929293,3082,"DG_s15",3.085,3.791,6.023,6.025,18,18,10,10,2.232,"Right",18,18,0,0,0,0,0,0,0,0,0,0,"Equal",8,8,10,18,10,18
"40",2,"LTT8-LTT9",0.975422448540404,0.753485748540404,0.657723521790404,0.873639017790404,0.863643917790404,0.702364684290404,0.668533970540404,0.251789720540404,-0.112934729459596,-0.017147463959596,0.136237936040404,0.420448936040404,0.961154786040404,1.3312692040404,1.5092144040404,1.2552071790404,0.953089894040404,0.811581794040404,0.554181579040404,0.876946709040404,3082,"DG_s15",3.085,3.791,6.023,6.025,18,18,10,10,2.232,"Right",18,18,0,0,0,0,0,0,0,0,0,0,"Equal",8,8,10,18,10,18
"41",2,"LHB8-LHB9",-0.373250327333333,-0.580009958333333,-0.494686873333333,-0.171892523333333,0.150469076666667,0.328675337666667,0.150351402666667,-0.216739497333333,-0.603563597333333,-0.866403358333333,-0.873216208333333,-0.788829908333333,-0.718509358333333,-0.737516608333333,-0.765590958333333,-0.812587958333333,-0.707283308333333,-0.435103761333333,-0.136882611333333,0.111143647166667,3082,"DG_s15",3.085,3.791,6.023,6.025,18,18,10,10,2.232,"Right",18,18,0,0,0,0,0,0,0,0,0,0,"Equal",8,8,10,18,10,18
"42",2,"LHH4-LHH5",-0.251686711109091,-0.230494455499091,-0.253592255499091,-0.418636366799091,-0.467154831299091,-0.555012990909091,-0.549347190909091,-0.469399765909091,-0.148007515909091,0.151442284090909,0.245008682090909,0.155675207090909,-0.371070642909091,-0.806108492909091,-1.01691769090909,-0.878519774624091,-0.618429111624091,-0.567766561624091,-0.242057178124091,-0.0956694444090909,3082,"DG_s15",3.085,3.791,6.023,6.025,18,18,10,10,2.232,"Right",18,18,0,0,0,0,0,0,0,0,0,0,"Equal",8,8,10,18,10,18
"43",2,"LAM5-LAM6",1.72019363055556,1.29176265555556,1.02721020555556,0.740153355555556,0.761985180555556,0.756548989055555,0.275881289055556,-0.252793060944444,-0.695214860944444,-0.862556994444444,-0.727935994444444,-0.456898258194444,-0.174390812694444,0.116337704205556,0.373890804205556,0.394932696955556,0.472479472455556,0.462510690555556,0.261309840555556,0.0973208115555556,3082,"DG_s15",3.085,3.791,6.023,6.025,18,18,10,10,2.232,"Right",18,18,0,0,0,0,0,0,0,0,0,0,"Equal",8,8,10,18,10,18
"44",2,"LHB9-LHB10",-0.300179485484849,-0.620454110484848,-0.499665927984848,-0.338089630484848,-0.385694280984848,-0.458707205984848,-0.785565805984848,-1.04697836598485,-0.912888364984848,-0.644359114984848,-0.451849704984848,-0.423820904984848,-0.649814925984848,-0.785475677984848,-0.833423033484848,-0.728111058484848,-0.658629473484848,-0.768906821484848,-0.792720206484848,-0.753570906484848,3082,"DG_s15",3.085,3.791,6.023,6.025,18,18,10,10,2.232,"Right",18,18,0,0,0,0,0,0,0,0,0,0,"Equal",8,8,10,18,10,18
"45",2,"LHB4-LHB5",-0.285396011035354,-0.562272998535354,-0.435397553035354,-0.625406177535354,-0.828831433035353,-0.794934319685354,-0.747553975185353,-0.583849950185354,-0.328069040185354,-0.300410613035354,-0.516983408035353,-0.677501133035354,-0.837367893035354,-0.844400381035354,-0.835805181035354,-0.823363931035354,-0.660533316035353,-0.216286531035354,0.324117518964646,0.536666607464646,3082,"DG_s15",3.085,3.791,6.023,6.025,18,18,10,10,2.232,"Right",18,18,0,0,0,0,0,0,0,0,0,0,"Equal",8,8,10,18,10,18
"46",2,"LAM6-LAM7",0.408965268686869,0.322888618686869,0.411028418686869,0.139759120186869,-0.101463329813131,-0.389582728313131,-0.482100903313131,-0.376903889813131,-0.322472417813131,-0.333832419313131,-0.518818744313131,-0.761808909313131,-0.805934681313131,-0.696982218813131,-0.565998783813131,-0.504801257813131,-0.373542680313131,-0.239165092813131,-0.333080652313131,-0.223815882313131,3082,"DG_s15",3.085,3.791,6.023,6.025,18,18,10,10,2.232,"Right",18,18,0,0,0,0,0,0,0,0,0,0,"Equal",8,8,10,18,10,18
"47",2,"LHH6-LHH7",-0.157095910673232,-0.0893776606732323,-0.176943641973232,-0.372180826973232,-0.423260961623232,-0.562390047623232,-0.584919735823232,-0.610467046823232,-0.339091298823232,-0.292917798823232,-0.360107768323232,-0.341725406323232,-0.683939456323232,-0.803740870323232,-0.647960861323232,-0.613012440823232,-0.578418330823232,-0.395613030823232,-0.575684368823232,-0.438933985323232,3082,"DG_s15",3.085,3.791,6.023,6.025,18,18,10,10,2.232,"Right",18,18,0,0,0,0,0,0,0,0,0,0,"Equal",8,8,10,18,10,18
"48",2,"LAM2-LAM3",0.485744183622727,0.971406733622727,0.819836387272727,0.420934937272727,0.0576882172727272,-0.0411772827272728,0.0797724922727273,0.555811242272727,1.13490316227273,1.25569406227273,1.13831140227273,0.658361602272727,0.0629007022727272,-0.456154047727273,-0.359406087727273,-0.0291183877272728,0.0620465867727273,0.0459041367727273,-0.0423221875272727,-0.112174188027273,3082,"DG_s15",3.085,3.791,6.023,6.025,18,18,10,10,2.232,"Right",18,18,0,0,0,0,0,0,0,0,0,0,"Equal",8,8,10,18,10,18
"49",2,"LIP3-LIP4",1.1099277569899,0.667943866989899,0.532654016989899,0.433250774039899,0.517828861039899,0.619418885039899,0.555099305039899,0.527163292989899,0.571820369489899,0.343546935489899,0.123737965489899,-0.025583429510101,-0.189128551010101,-0.052893343010101,0.327120956989899,0.597452211989899,0.581281461989899,0.459172553989899,0.120870441489899,0.142295486489899,3082,"DG_s15",3.085,3.791,6.023,6.025,18,18,10,10,2.232,"Right",18,18,0,0,0,0,0,0,0,0,0,0,"Equal",8,8,10,18,10,18
"50",2,"LAM3-LAM4",-1.28293875177778,-0.921892201777778,-0.940843766777778,-0.895187612977778,-0.777409600477778,-1.00751430047778,-1.07081540747778,-1.13191049977778,-1.56499069977778,-1.82928281177778,-1.82899331977778,-1.82025814027778,-1.86499149027778,-2.05484392827778,-2.31866179827778,-2.45446067777778,-2.36488707777778,-2.34103272777778,-2.18253526277778,-1.97897323277778,3082,"DG_s15",3.085,3.791,6.023,6.025,18,18,10,10,2.232,"Right",18,18,0,0,0,0,0,0,0,0,0,0,"Equal",8,8,10,18,10,18
"51",2,"LHB5-LHB6",0.17926354520202,0.11075035520202,0.23548329520202,0.22248404520202,0.14678534545202,-0.0769559645479798,-0.14690468654798,-0.25997151104798,-0.0922029662979798,0.12719719970202,-0.13048837829798,-0.34163050379798,-0.58299280379798,-0.74836652979798,-0.59316510379798,-0.30744660379798,-0.27974054629798,-0.37956924629798,-0.49187952229798,-0.58295504829798,3082,"DG_s15",3.085,3.791,6.023,6.025,18,18,10,10,2.232,"Right",18,18,0,0,0,0,0,0,0,0,0,0,"Equal",8,8,10,18,10,18
"52",2,"LIP6-LIP7",1.00670529929798,0.56468909929798,0.18546104929798,0.13886027979798,0.0667142297979798,0.00861997979797979,0.0133867647979798,0.33444286479798,1.06348056479798,1.74029641479798,2.11031827979798,1.85624805729798,1.05852000729798,0.42054370729798,-0.0314589927020202,-0.23364267520202,0.13127572479798,0.47097027479798,0.93192982479798,1.18769810979798,3082,"DG_s15",3.085,3.791,6.023,6.025,18,18,10,10,2.232,"Right",18,18,0,0,0,0,0,0,0,0,0,0,"Equal",8,8,10,18,10,18
"53",2,"LAM4-LAM5",-0.35587029640404,-0.00740587540404047,-0.0695226759040405,-0.53674727590404,-0.672867798404041,-1.00958108940404,-1.29968135390404,-1.18552698040404,-1.27710002540404,-1.48672858440404,-1.23907389440404,-1.13801090290404,-1.13017678470404,-0.96806901470404,-1.08527290470404,-1.34861891970404,-1.42785163140404,-1.27791270140404,-1.07814905140404,-0.822880491404041,3082,"DG_s15",3.085,3.791,6.023,6.025,18,18,10,10,2.232,"Right",18,18,0,0,0,0,0,0,0,0,0,0,"Equal",8,8,10,18,10,18
"54",2,"LIP8-LIP9",0.359832699717172,0.0585726797171717,-0.107342121282828,-0.274513219282828,-0.300558819282828,-0.265094134282828,-0.381376183282828,-0.339789333282828,-0.393294883282828,-0.440637715782828,-0.296035117282828,-0.182995021282828,0.120209328717172,0.160424788717172,0.0203046402171717,-0.0342918557828283,-0.338812205782828,-0.564197598282828,-0.622661798282828,-0.629398548282828,3082,"DG_s15",3.085,3.791,6.023,6.025,18,18,10,10,2.232,"Right",18,18,0,0,0,0,0,0,0,0,0,0,"Equal",8,8,10,18,10,18
"55",2,"LIP5-LIP6",0.0554446371616162,-0.00954645233838384,-0.0400990523383838,0.0227348076616162,0.138447157661616,0.269071596661616,0.443539046661616,0.587211116161616,0.595424016161616,0.527135761161616,0.471616348161616,0.179623273161616,-0.149092276838384,-0.311618821838384,-0.372046068338384,-0.170551143338384,0.247706506661616,0.569711756661616,0.743181416161616,0.746311466161616,3082,"DG_s15",3.085,3.791,6.023,6.025,18,18,10,10,2.232,"Right",18,18,0,0,0,0,0,0,0,0,0,0,"Equal",8,8,10,18,10,18
"56",2,"LHB6-LHB7",-1.43875361363636,-1.43679346363636,-1.55280211363636,-1.50537362227636,-1.40081078832636,-1.24583245832636,-0.944472958326364,-0.857431174186364,-0.967074123136364,-0.905236118136364,-1.03601458013636,-1.22472630563636,-1.24614279063636,-1.40478024213636,-1.34490152013636,-1.36578370113636,-1.33608195113636,-1.46122003463636,-1.37197585463636,-0.703862523636364,3082,"DG_s15",3.085,3.791,6.023,6.025,18,18,10,10,2.232,"Right",18,18,0,0,0,0,0,0,0,0,0,0,"Equal",8,8,10,18,10,18
"57",2,"LAM9-LAM10",0.00423440368181818,-0.221461584818182,-0.238440134818182,-0.317284915318182,-0.337033365318182,-0.487153326818182,-0.736220726818182,-0.695861776818182,-0.623350706818182,-0.591275706818182,-0.544297106818182,-0.545307361818182,-0.709039081818182,-0.630134446318182,-0.468374241318182,-0.451386226818182,-0.257055683123182,-0.205559425123182,-0.212841455123182,-0.0334741696231818,3082,"DG_s15",3.085,3.791,6.023,6.025,18,18,10,10,2.232,"Right",18,18,0,0,0,0,0,0,0,0,0,0,"Equal",8,8,10,18,10,18
"58",2,"LHB7-LHB8",-0.0118742083434343,-0.275297908343434,-0.468568908343434,-0.418080784343434,-0.274562334343434,-0.210739634343434,-0.166298914343434,-0.0595037774934343,-0.130950227493434,-0.0382462814934343,-0.0168560884934343,-0.0646666953434343,0.158833464656566,0.276145868656566,0.257725700656566,0.307433845156566,0.231712015156566,-0.0806702348434343,0.0501176351565657,0.315632210656566,3082,"DG_s15",3.085,3.791,6.023,6.025,18,18,10,10,2.232,"Right",18,18,0,0,0,0,0,0,0,0,0,0,"Equal",8,8,10,18,10,18
"59",3,"LAM2-LAM3",-0.870552488589899,-0.582496793589899,-0.488637506589899,-0.456650650589899,-0.171527264489899,-0.095928814489899,-0.218311614489899,-0.405068693989899,-0.763378688989899,-1.0468795314899,-0.990146756489899,-0.870404723989899,-0.922567623989899,-1.1598363314899,-1.3992811664899,-1.3544146489899,-1.1634821989899,-1.0136228489899,-1.0775775489899,-1.2547633489899,3083,"DG_s15",7.026,7.731,9.383,9.385,10,26,10,10,1.652,"Right",10,26,16,16,0,0,16,0,16,0,-16,-16,"Disadvent",0,16,10,10,10,26
"60",3,"LHB8-LHB9",0.156922270555556,-0.113896859444444,-0.151196017444444,0.0334584170555556,0.183448527055556,0.667176877055556,0.503988845055556,0.587732651555556,0.966522941555556,0.588488316555556,0.547887406555556,0.287661705555556,-0.111351944444444,-0.0193522194444444,-0.00331111944444445,-0.0450522194444444,-0.0333519694444445,-0.169494019444444,-0.185628069444444,-0.0761706824444445,3083,"DG_s15",7.026,7.731,9.383,9.385,10,26,10,10,1.652,"Right",10,26,16,16,0,0,16,0,16,0,-16,-16,"Disadvent",0,16,10,10,10,26
"61",3,"LAM7-LAM8",0.527997697525252,0.568418097525253,0.343160147525253,-0.185065352474747,-0.531360347474747,-0.413913189424747,-0.177312739424747,0.121414886075253,0.235320376075253,0.290485130775253,0.0294974307752525,-0.0756258267247475,-0.0791516767247475,-0.118015204474747,-0.0426899779747475,-0.135067945974747,-0.134361535974747,-0.204571190974747,0.103059832525253,0.457443782525253,3083,"DG_s15",7.026,7.731,9.383,9.385,10,26,10,10,1.652,"Right",10,26,16,16,0,0,16,0,16,0,-16,-16,"Disadvent",0,16,10,10,10,26
"62",3,"LAM4-LAM5",0.848823943323232,0.669084883323232,0.791317283323232,0.728214619323232,0.856573428323232,0.914790230823232,0.810044577323232,0.913437351323232,0.618029071323232,0.357316378823232,0.260336966823232,0.0743009213232323,0.00806173132323229,0.166184364823232,0.309945830323232,0.336003801323232,0.439911101323232,0.262032867823232,-0.0883051321767677,-0.171752067676768,3083,"DG_s15",7.026,7.731,9.383,9.385,10,26,10,10,1.652,"Right",10,26,16,16,0,0,16,0,16,0,-16,-16,"Disadvent",0,16,10,10,10,26
"63",3,"LHB9-LHB10",0.497151697710505,0.832054807710505,1.25945100505051,1.1066952765505,0.898583909050505,0.802815159050505,0.438556422050505,0.574905575550505,0.885131993050505,0.727399343050505,0.792150975050505,0.456276698050505,0.112465188050505,-0.0426826169494949,-0.379777761949495,-0.340545350949495,-0.101904240949495,0.0321790650505051,0.063086315050505,0.106061158240505,3083,"DG_s15",7.026,7.731,9.383,9.385,10,26,10,10,1.652,"Right",10,26,16,16,0,0,16,0,16,0,-16,-16,"Disadvent",0,16,10,10,10,26
"64",3,"LHH4-LHH5",1.32132392777778,1.49394982777778,1.68859972777778,1.84997752777778,1.66024387327778,1.05680712327778,0.570551973277778,0.277485323277778,0.130608227777778,0.125172927777778,0.227010479777778,0.219111672156778,0.0787922721567778,0.105193122156778,0.115808750156778,0.162061772777778,0.223645472777778,0.294725872777778,0.285561978977778,0.244614001477778,3083,"DG_s15",7.026,7.731,9.383,9.385,10,26,10,10,1.652,"Right",10,26,16,16,0,0,16,0,16,0,-16,-16,"Disadvent",0,16,10,10,10,26
"65",3,"LHH7-LHH8",0.844419115338384,0.882979484338384,1.25652205083838,1.28003543383838,1.01348668383838,1.22078918383838,1.09657715383838,0.785512178838384,0.815978658338384,0.750330508338384,0.828694738338384,1.08129900883838,0.857197184338384,0.640973179338384,0.242265079338384,0.0183032238383838,0.149730596088384,0.297591801088384,0.638043001088384,0.769278991088384,3083,"DG_s15",7.026,7.731,9.383,9.385,10,26,10,10,1.652,"Right",10,26,16,16,0,0,16,0,16,0,-16,-16,"Disadvent",0,16,10,10,10,26
"66",3,"LIP4-LIP5",-0.228064975555556,-0.205780025555556,-0.401137205555556,-0.615799315555556,-0.810428865555555,-0.916633665555555,-0.706709552855555,-0.479796635855556,-0.200059050855556,0.350205449144444,0.756228486444445,0.868577949444444,0.678137764444445,0.227306149794444,-0.110266088455556,-0.262436068455556,-0.295327368455556,-0.296619018305556,0.00363426994444445,0.454090819944444,3083,"DG_s15",7.026,7.731,9.383,9.385,10,26,10,10,1.652,"Right",10,26,16,16,0,0,16,0,16,0,-16,-16,"Disadvent",0,16,10,10,10,26
"67",3,"LAM9-LAM10",0.627663383010101,0.480964126010101,0.560692776010101,0.588813022510101,0.688755956510101,0.704327947160101,0.299039447160101,0.282418465160101,0.343701729160101,0.330002880510101,0.311012580510101,0.090575136010101,-0.233251163989899,-0.336495148989899,-0.217512848989899,-0.106184819489899,0.262125930510101,0.316811944510101,0.213843244510101,0.305229014010101,3083,"DG_s15",7.026,7.731,9.383,9.385,10,26,10,10,1.652,"Right",10,26,16,16,0,0,16,0,16,0,-16,-16,"Disadvent",0,16,10,10,10,26
"68",3,"LAM3-LAM4",0.960641963808081,0.374262063808081,0.219728777308081,0.548611977308081,0.901993677308081,1.06400213830808,1.27301586380808,1.35979226380808,0.984620718808081,0.860448492808081,0.806710640808081,0.812865390808081,0.902678593808081,0.877237858808081,0.667837988808081,0.403515583808081,0.317024135808081,0.260321585808081,0.369276418308081,0.452477953808081,3083,"DG_s15",7.026,7.731,9.383,9.385,10,26,10,10,1.652,"Right",10,26,16,16,0,0,16,0,16,0,-16,-16,"Disadvent",0,16,10,10,10,26
"69",3,"LHB4-LHB5",0.564889965378788,0.402424142378788,0.235265257378788,0.179010797878788,0.197508447878788,0.263324297878788,0.254800747878788,0.0605253378787878,-0.0610522621212122,-0.184404512121212,-0.157074808471212,0.0440795330287879,0.211517183028788,0.357482483028788,0.369019229378788,0.345775537878788,0.352964687878788,0.287659337878788,0.102983387878788,-0.0540002121212122,3083,"DG_s15",7.026,7.731,9.383,9.385,10,26,10,10,1.652,"Right",10,26,16,16,0,0,16,0,16,0,-16,-16,"Disadvent",0,16,10,10,10,26
"70",3,"LIP7-LIP8",0.469998827777778,0.382515657777778,0.772142657777778,1.11274410777778,1.17077023027778,0.984556650277778,0.654042500277778,0.367863600277778,0.506192902777778,0.879270252777778,0.998698396777778,0.987790646777778,0.747596471777778,0.573508678327778,0.481710214827778,0.824560144827778,1.41847344482778,1.46321180477778,1.62493404527778,1.49934663527778,3083,"DG_s15",7.026,7.731,9.383,9.385,10,26,10,10,1.652,"Right",10,26,16,16,0,0,16,0,16,0,-16,-16,"Disadvent",0,16,10,10,10,26
"71",3,"LAM1-LAM2",0.231146180949495,0.365283860949495,0.575777317449495,0.418448851449495,0.326842843449495,0.294595793449495,0.350572586949495,0.448805435949495,0.248268243949495,0.140905860299495,0.103447010299495,0.219267861299495,0.615630261299495,0.867235294949495,0.996758344949495,0.975939434449495,0.761845384449495,0.419048234449495,-0.00552926555050509,-0.214960005050505,3083,"DG_s15",7.026,7.731,9.383,9.385,10,26,10,10,1.652,"Right",10,26,16,16,0,0,16,0,16,0,-16,-16,"Disadvent",0,16,10,10,10,26
"72",3,"LIP1-LIP2",-0.106436988338384,-0.144821637338384,-0.209407317838384,-0.178300632838384,-0.259098565838384,-0.163179966838384,0.185147683161616,0.478275477661616,0.213228180661616,0.162464895161616,0.0710055331616161,-0.310272261338384,-0.253384221338384,-0.282054214338384,-0.169879652338384,0.184860897661616,0.226075947661616,-0.0660553738383838,-0.334116403838384,-0.399655893838384,3083,"DG_s15",7.026,7.731,9.383,9.385,10,26,10,10,1.652,"Right",10,26,16,16,0,0,16,0,16,0,-16,-16,"Disadvent",0,16,10,10,10,26
"73",3,"LAM6-LAM7",0.867862087409091,0.581821799909091,0.228911419409091,0.0326769994090909,0.332107549409091,0.336263571909091,0.334469634909091,0.545084958409091,0.330850693409091,0.124996508409091,-0.0734522240909091,-0.252103679090909,-0.327181964090909,-0.0604540090909091,0.239352940909091,0.154878165909091,0.349999697909091,0.243760682909091,-0.00164195209090909,0.0852989529090909,3083,"DG_s15",7.026,7.731,9.383,9.385,10,26,10,10,1.652,"Right",10,26,16,16,0,0,16,0,16,0,-16,-16,"Disadvent",0,16,10,10,10,26
"74",3,"LHB6-LHB7",-0.352624361330808,-0.330661548330808,-0.0956690243308081,0.289849653919192,0.0188393603191919,0.152315997319192,0.0459505633191919,-0.178151368180808,-0.0495972793808081,-0.231270204380808,-0.379982644380808,-0.498132017880808,-0.491162455280808,-0.465455280280808,-0.377460780280808,-0.429697275280808,-0.335827748080808,-0.100148073080808,0.104485376919192,0.310406869719192,3083,"DG_s15",7.026,7.731,9.383,9.385,10,26,10,10,1.652,"Right",10,26,16,16,0,0,16,0,16,0,-16,-16,"Disadvent",0,16,10,10,10,26
"75",3,"LTT8-LTT9",-0.574473993391919,-0.328955074391919,-0.238071604391919,-0.206674693891919,-0.0191335096919192,-0.0580316596919192,-0.0100031886919192,-0.0449393441919192,-0.283032944191919,-0.488342844191919,-0.618112684191919,-0.642933729191919,-0.511272096541919,-0.248562046541919,-0.136780453041919,-0.0943102380419192,-0.176552435191919,-0.330144722691919,-0.582623256191919,-0.570066526191919,3083,"DG_s15",7.026,7.731,9.383,9.385,10,26,10,10,1.652,"Right",10,26,16,16,0,0,16,0,16,0,-16,-16,"Disadvent",0,16,10,10,10,26
"76",3,"LHH5-LHH6",1.03607286111111,1.02892951111111,0.711533672611111,0.352968422611111,0.169701609611111,-0.0286141513888889,-0.00713740388888889,0.139502779611111,0.0535734426111111,-0.149446596388889,-0.187863237388889,-0.206571155888889,-0.290808455888889,-0.297712505888889,-0.409425223888889,-0.610446138888889,-0.476158053888889,-0.364642453888889,-0.455959503888889,-0.499809153888889,3083,"DG_s15",7.026,7.731,9.383,9.385,10,26,10,10,1.652,"Right",10,26,16,16,0,0,16,0,16,0,-16,-16,"Disadvent",0,16,10,10,10,26
"77",3,"LHB7-LHB8",-0.247785969116162,-0.249594619116162,0.0619071603838384,0.542929360383838,0.530909101383838,0.914644101383838,0.695033688883838,0.480291318883838,0.557953075383838,0.218394580383838,0.217098540383838,0.0507482603838384,-0.0398806966161616,0.0331224683838384,-0.110071558616162,-0.294041108616162,-0.250388951616162,-0.129220576616162,-0.126476506616162,-0.0398404066161616,3083,"DG_s15",7.026,7.731,9.383,9.385,10,26,10,10,1.652,"Right",10,26,16,16,0,0,16,0,16,0,-16,-16,"Disadvent",0,16,10,10,10,26
"78",3,"LTT9-LTT10",0.584719710467677,0.428669235467677,0.585510509967677,0.618027155467677,0.842484796767677,0.978452386767677,1.02304933676768,1.13089548676768,0.840579032267677,0.555923422267677,0.234058772267677,-0.0752024777323233,-0.172394323232323,-0.0324379232323233,-0.0871429232323233,-0.0110791307323233,0.107266997767677,-0.00696680223232327,-0.0565902022323233,-0.294752044732323,3083,"DG_s15",7.026,7.731,9.383,9.385,10,26,10,10,1.652,"Right",10,26,16,16,0,0,16,0,16,0,-16,-16,"Disadvent",0,16,10,10,10,26
"79",3,"LAM8-LAM9",0.317653138939394,0.537604993939394,0.667309593939394,0.432982543939394,0.325461828939394,0.0788515289393939,-0.320994871060606,-0.208530424060606,-0.251184499060606,-0.365534627060606,-0.237058707060606,-0.367955054060606,-0.398989529560606,-0.445028001060606,-0.612741021060606,-0.406622446560606,-0.491754581060606,-0.351933092560606,-0.253113911560606,-0.587755486060606,3083,"DG_s15",7.026,7.731,9.383,9.385,10,26,10,10,1.652,"Right",10,26,16,16,0,0,16,0,16,0,-16,-16,"Disadvent",0,16,10,10,10,26
"80",3,"LIP5-LIP6",-0.372858916587879,-0.367767971087879,-0.536954760587879,-0.699282833787879,-0.845763478787879,-0.819132678787879,-0.693754836787879,-0.328910236787879,-0.131081140787879,-0.0635108072878788,0.115947300712121,0.0724412907121212,-0.128515555287879,-0.114415803787879,-0.240725206787879,-0.378088983287879,-0.355520483287879,-0.622717068287879,-0.799950015287879,-0.943975128787879,3083,"DG_s15",7.026,7.731,9.383,9.385,10,26,10,10,1.652,"Right",10,26,16,16,0,0,16,0,16,0,-16,-16,"Disadvent",0,16,10,10,10,26
"81",3,"LIP6-LIP7",-0.26142525269697,-0.31540691364697,-0.15913597114697,0.00795274985303029,0.11945508660303,0.0049293805530303,-0.14662901194697,-0.0868243082969697,-0.0679650500469697,0.22520899995303,0.53225215445303,0.34102637980303,0.0866914848030303,-0.11065859119697,-0.25394836319697,-0.31203721319697,-0.26213806319697,-0.42598253719697,-0.57118816969697,-0.51649211969697,3083,"DG_s15",7.026,7.731,9.383,9.385,10,26,10,10,1.652,"Right",10,26,16,16,0,0,16,0,16,0,-16,-16,"Disadvent",0,16,10,10,10,26
"82",3,"LIP3-LIP4",-0.0357858721464646,0.201166177853535,0.281334635353535,0.361976185353535,0.273253140353535,0.242469840353535,0.355582840353535,0.318533863353535,0.127341658353535,0.0609268783535354,0.186702478353535,0.363156705353535,0.478197156853535,0.501058653853535,0.379450103853535,0.205254653853535,0.473224352353535,0.864676585353535,1.08782803535354,1.06320093535354,3083,"DG_s15",7.026,7.731,9.383,9.385,10,26,10,10,1.652,"Right",10,26,16,16,0,0,16,0,16,0,-16,-16,"Disadvent",0,16,10,10,10,26
"83",3,"LAM5-LAM6",0.473625305801515,0.730359255801515,0.387113330801515,0.195498475901515,0.0982447432515151,-0.255374251748485,-0.0724643667484849,0.0325490961515151,0.193409360651515,0.787536510651515,0.987233850651515,0.847173682651515,0.591269235651515,0.215667036651515,-0.00433196334848485,0.109693481151515,0.196855713151515,0.0800325121515151,-0.0243679378484849,-0.177174452848485,3083,"DG_s15",7.026,7.731,9.383,9.385,10,26,10,10,1.652,"Right",10,26,16,16,0,0,16,0,16,0,-16,-16,"Disadvent",0,16,10,10,10,26
"84",3,"LIP2-LIP3",-0.313902951464646,-0.416119496464646,-0.394390546464646,-0.480262396464646,-0.423214408464646,-0.204253008464646,-0.169826118464646,-0.0927993334646465,0.0456436735353535,-0.189926166464646,-0.173026556464646,-0.195022141464646,-0.458904986464646,-0.219537369464646,-0.0260068419646464,-0.0913034869646465,0.120914477535354,0.328740200535354,0.631610573035354,1.10293896803535,3083,"DG_s15",7.026,7.731,9.383,9.385,10,26,10,10,1.652,"Right",10,26,16,16,0,0,16,0,16,0,-16,-16,"Disadvent",0,16,10,10,10,26
"85",3,"LIP8-LIP9",-0.412385544252525,-0.598524789752525,-0.335175270752525,-0.0476317872525253,-0.00155263725252525,-0.0940103917525252,-0.289843009252525,-0.324345905252525,-0.293799355252525,-0.230617891602525,-0.302506489102525,-0.129445298602525,0.302354301397475,0.412112839247475,0.435554058747475,0.449943085747475,0.498273585747475,0.467756961247475,0.596638425247475,0.455597773247475,3083,"DG_s15",7.026,7.731,9.383,9.385,10,26,10,10,1.652,"Right",10,26,16,16,0,0,16,0,16,0,-16,-16,"Disadvent",0,16,10,10,10,26
"86",3,"LHH6-LHH7",-0.024927218989899,-0.469261768989899,-1.0798237189899,-1.4802954989899,-1.4267654489899,-1.2965308937899,-1.1582320777899,-1.1013985777899,-1.1848376777899,-1.3798891829899,-1.4486393489899,-1.3605628489899,-1.3127585489899,-1.1107105089899,-0.919570131489899,-1.0137498764899,-0.823515574989899,-0.690674364989899,-0.610177092489899,-0.366804397489899,3083,"DG_s15",7.026,7.731,9.383,9.385,10,26,10,10,1.652,"Right",10,26,16,16,0,0,16,0,16,0,-16,-16,"Disadvent",0,16,10,10,10,26
"87",3,"LHB5-LHB6",0.913936157050505,0.563887057050505,0.315626593050505,0.354050133050505,0.516053319950505,0.504771109950505,0.249487123950505,-0.100558726049495,-0.394844004949495,-0.361331734949495,-0.157638556949495,-0.171657506949495,-0.078117006949495,-0.128887916949495,-0.252977844949495,-0.270194744949495,-0.273465194949495,-0.269075444949495,-0.227397644949495,-0.173395394949495,3083,"DG_s15",7.026,7.731,9.383,9.385,10,26,10,10,1.652,"Right",10,26,16,16,0,0,16,0,16,0,-16,-16,"Disadvent",0,16,10,10,10,26
"88",4,"LHB9-LHB10",-0.261910495119192,-0.415326116919192,-0.382251966919192,-0.484153950419192,-0.324432276919192,0.0992384730808081,0.300865320330808,0.254656455330808,-0.212169494669192,-0.605548544669192,-0.769846991919192,-0.689074941919192,-0.574323891919192,-0.533494541919192,-0.409349136919192,-0.429261986919192,-0.523107336919192,-0.564816986919192,-0.486143887419192,-0.289132925919192,3084,"DG_s15",10.386,11.091,13.747,13.749,16,4,10,10,2.656,"Right",16,4,12,12,0,0,0,-12,0,-12,12,12,"Advent",6,-6,10,16,10,4
"89",4,"LHH5-LHH6",0.00696203577777776,0.0978840212777778,0.0474683017777778,0.0488905017777778,-0.227065486722222,-0.396803347222222,-0.409861522222222,-0.291295768722222,0.0726274312777778,0.413798031277778,0.669277431277778,0.579521057777778,0.323964357777778,-0.0715703922222222,-0.317627267722222,-0.199556477222222,-0.204496227222222,-0.117713622222222,0.199661303277778,0.432192082777778,3084,"DG_s15",10.386,11.091,13.747,13.749,16,4,10,10,2.656,"Right",16,4,12,12,0,0,0,-12,0,-12,12,12,"Advent",6,-6,10,16,10,4
"90",4,"LHH4-LHH5",0.44583593030303,0.10238529030303,-0.0457234581969697,-0.34010231719697,-0.60203400969697,-0.49260867009697,-0.28183384829697,-0.17553269829697,-0.17574539829697,-0.31920099789697,-0.44802401969697,-0.38054886969697,-0.23488823469697,-0.0451683321969697,0.0861269828030303,0.11648351280303,0.17002276230303,0.0705965498030303,0.32920892480303,0.86593524480303,3084,"DG_s15",10.386,11.091,13.747,13.749,16,4,10,10,2.656,"Right",16,4,12,12,0,0,0,-12,0,-12,12,12,"Advent",6,-6,10,16,10,4
"91",4,"LAM2-LAM3",1.8558965530303,1.7981958530303,1.4801855030303,1.0659947030303,0.880897303030303,0.914066653030303,0.730349829030303,0.485406129030303,0.273853429030303,0.0311422290303031,0.126589463030303,0.285567553030303,0.312817303030303,0.303749753030303,0.235401643030303,0.297946261530303,0.454905195030303,0.543652982530303,0.817032832530303,0.766115724030303,3084,"DG_s15",10.386,11.091,13.747,13.749,16,4,10,10,2.656,"Right",16,4,12,12,0,0,0,-12,0,-12,12,12,"Advent",6,-6,10,16,10,4
"92",4,"LAM3-LAM4",0.184391798929293,0.313382953429293,0.275634964429293,0.00782068642929296,0.494315586429293,1.01283746842929,1.42973444792929,1.77951539292929,1.44839555692929,1.08523040192929,0.948258601929293,0.699931845929293,0.634026931929293,0.522343539929293,0.454965989929293,0.498655592429293,0.535639792429293,0.336841439429293,0.028090119429293,0.0798167214292929,3084,"DG_s15",10.386,11.091,13.747,13.749,16,4,10,10,2.656,"Right",16,4,12,12,0,0,0,-12,0,-12,12,12,"Advent",6,-6,10,16,10,4
"93",4,"LAM8-LAM9",0.998746316949495,0.749516014449495,0.424661813449495,0.037910838449495,0.304301966449495,0.502963218949495,0.538337872949495,0.539426247949495,0.345327297949495,-0.051581852050505,-0.328107805050505,-0.237634943050505,-0.0451637930505051,0.095446542449495,0.0806008924494949,0.028102530449495,-0.269348169550505,-0.400844515050505,-0.0296163910505051,0.361264708949495,3084,"DG_s15",10.386,11.091,13.747,13.749,16,4,10,10,2.656,"Right",16,4,12,12,0,0,0,-12,0,-12,12,12,"Advent",6,-6,10,16,10,4
"94",4,"LAM4-LAM5",0.273956597713687,0.102317697713687,0.0555850373686869,-0.168879579631313,-0.362375887131313,-0.410264586131313,-0.400995185381313,-0.163162203881313,0.124537746118687,0.395963095118687,0.540414043368687,0.328831811868687,0.181849336868687,-0.248375663131313,-0.522191188131313,-0.456149338131313,-0.599268713131313,-0.616038863131313,-0.393728908131313,-0.0271469081313131,3084,"DG_s15",10.386,11.091,13.747,13.749,16,4,10,10,2.656,"Right",16,4,12,12,0,0,0,-12,0,-12,12,12,"Advent",6,-6,10,16,10,4
"95",4,"LIP1-LIP2",-0.195774913636364,-0.113376214136364,0.318675485863636,0.827982035863636,1.02141976686364,0.835212067363636,0.572117667363636,0.753013167363636,1.15975808636364,1.47197535386364,1.37178855386364,0.841747953863636,0.308165003863636,0.0526856223636363,0.313272772363636,0.514990753863636,0.609236907863636,0.843031286863636,0.826908186863636,0.800721933228636,3084,"DG_s15",10.386,11.091,13.747,13.749,16,4,10,10,2.656,"Right",16,4,12,12,0,0,0,-12,0,-12,12,12,"Advent",6,-6,10,16,10,4
"96",4,"LHB8-LHB9",-0.917774800782828,-1.13966460078283,-1.17387995078283,-1.06441420078283,-1.11389457828283,-1.04309375678283,-1.18736487428283,-1.43043336928283,-1.13287691428283,-1.15783765578283,-1.34654373828283,-1.36753608028283,-1.54881468028283,-1.47243681528283,-1.33677444528283,-1.32730824778283,-1.22229754778283,-1.22975322628283,-1.37788149628283,-1.32271885728283,3084,"DG_s15",10.386,11.091,13.747,13.749,16,4,10,10,2.656,"Right",16,4,12,12,0,0,0,-12,0,-12,12,12,"Advent",6,-6,10,16,10,4
"97",4,"LHB4-LHB5",-0.0227209415808081,0.114737241919192,0.147696391919192,0.0621861509191919,-0.180260549080808,-0.288942961080808,-0.432209998080808,-0.708680257080808,-0.701133407080808,-0.896125745080808,-0.853669118080808,-0.466621618080808,-0.290814835080808,-0.201634635080808,-0.428015125080808,-0.730940267580808,-0.570013500580808,-0.514705035580808,-0.380362819080808,-0.213335947080808,3084,"DG_s15",10.386,11.091,13.747,13.749,16,4,10,10,2.656,"Right",16,4,12,12,0,0,0,-12,0,-12,12,12,"Advent",6,-6,10,16,10,4
"98",4,"LAM1-LAM2",1.49899948383838,1.24302683333838,0.933099848338384,0.456900098338384,0.135516898338384,-0.0362997011616161,-0.117435254661616,0.196477495338384,0.334818850338384,0.299977550338384,0.565961283838384,0.651704138838384,0.464510478838384,0.839108578838384,0.762386338838384,0.358580783838384,0.308760688838384,-0.0135147111616161,-0.196105566161616,-0.0430959591616161,3084,"DG_s15",10.386,11.091,13.747,13.749,16,4,10,10,2.656,"Right",16,4,12,12,0,0,0,-12,0,-12,12,12,"Advent",6,-6,10,16,10,4
"99",4,"LIP2-LIP3",0.526027450914141,0.477314606414141,0.587447726414141,0.658204561414141,0.778701805414141,0.609011080414141,0.161643930414141,-0.125681919585859,-0.0331653005858586,0.395308349414141,0.785622749414141,0.801877163414141,0.555216955414141,0.379442345414141,0.395964895414141,0.593112711414141,0.693651044414141,0.444530604414141,0.193406865914141,0.100244990414141,3084,"DG_s15",10.386,11.091,13.747,13.749,16,4,10,10,2.656,"Right",16,4,12,12,0,0,0,-12,0,-12,12,12,"Advent",6,-6,10,16,10,4
"100",4,"LHB7-LHB8",0.509706662626263,0.548393929626263,0.406163134126263,0.278009429126263,0.0964077451262626,0.199903294626263,0.305139270626263,0.245251195626263,0.450187229626263,0.210501951626263,-0.00028017887373738,0.0141417236262626,-0.166689422473737,-0.0840855109737374,-0.106766310973737,-0.237873233473737,-0.216366049873737,-0.151400934373737,-0.179825928873737,0.111381171126263,3084,"DG_s15",10.386,11.091,13.747,13.749,16,4,10,10,2.656,"Right",16,4,12,12,0,0,0,-12,0,-12,12,12,"Advent",6,-6,10,16,10,4
"101",4,"LAM7-LAM8",0.223499954808081,-0.0296551451919192,-0.354118065191919,-0.273442795691919,0.126198004308081,0.300555744308081,0.185948564308081,0.0834686948080808,-0.334712605191919,-0.367309535191919,0.0286833648080808,0.0751697808080808,0.103568080808081,-0.0529234791919192,-0.359396379191919,-0.606449369191919,-0.405139124691919,-0.218326874691919,-0.204227269691919,-0.0367742036919192,3084,"DG_s15",10.386,11.091,13.747,13.749,16,4,10,10,2.656,"Right",16,4,12,12,0,0,0,-12,0,-12,12,12,"Advent",6,-6,10,16,10,4
"102",4,"LIP4-LIP5",0.280096558080808,0.321763503080808,0.387659013080808,0.197978489430808,-0.000583574469191939,0.209876875530808,0.347133014030808,0.211347387680808,0.0331044515808081,0.0124255280808081,0.301204229580808,0.759151879580808,0.894197993580808,0.702254922080808,0.387835414580808,0.105361514580808,0.321397100580808,0.646361000580808,0.714459808080808,0.819262108080808,3084,"DG_s15",10.386,11.091,13.747,13.749,16,4,10,10,2.656,"Right",16,4,12,12,0,0,0,-12,0,-12,12,12,"Advent",6,-6,10,16,10,4
"103",4,"LIP3-LIP4",0.16643801309596,0.36756719159596,0.70273430659596,0.69807678959596,0.48677668959596,0.29087566109596,0.33565229609596,0.62800748109596,0.81407459109596,0.72785870709596,0.33560000709596,0.13495556804596,0.25297155804596,0.60693552054596,1.11361517054596,1.40708925959596,1.37408060959596,1.16256330959596,1.09357935959596,1.03405195959596,3084,"DG_s15",10.386,11.091,13.747,13.749,16,4,10,10,2.656,"Right",16,4,12,12,0,0,0,-12,0,-12,12,12,"Advent",6,-6,10,16,10,4
"104",4,"LIP6-LIP7",-0.138767562323232,-0.0641360335732323,-0.126804988573232,-0.274326813573232,-0.221812463573232,-0.324909642323232,-0.292676647323232,-0.124289237323232,-0.0451421423232323,0.100111384176768,0.0971562841767677,0.213123293176768,0.411942348176768,0.574331121676768,0.669957975691768,0.652894690691768,0.515064100191768,0.355608668691768,0.697774729676768,0.977322945676768,3084,"DG_s15",10.386,11.091,13.747,13.749,16,4,10,10,2.656,"Right",16,4,12,12,0,0,0,-12,0,-12,12,12,"Advent",6,-6,10,16,10,4
"105",4,"LHH7-LHH8",0.900709551964646,0.331015051964646,0.0329763519646465,-0.0715832135353535,-0.0534316235353535,0.0955484337646465,0.158587208764646,0.315314728264646,0.517306343264647,0.573092560964646,0.603730101964646,0.673831422464646,0.690933022464646,0.689825579464646,0.551529288464646,0.270133648464646,0.0622911569646465,0.216227824964646,0.384829045964646,0.535906018464646,3084,"DG_s15",10.386,11.091,13.747,13.749,16,4,10,10,2.656,"Right",16,4,12,12,0,0,0,-12,0,-12,12,12,"Advent",6,-6,10,16,10,4
"106",4,"LHB6-LHB7",0.179438571954545,0.140313910954545,0.0408550994545455,-0.199309800545455,-0.435341890545455,-0.358262295045455,-0.256263814045455,-0.233137419045455,-0.180291159045455,-0.121274684545455,-0.0507336155454545,0.0375014634545454,-0.0835368965454545,-0.116952211045455,-0.222999484545455,-0.342936658545455,-0.150089084045455,0.0904686964545454,0.0613591899545455,0.0933766899545455,3084,"DG_s15",10.386,11.091,13.747,13.749,16,4,10,10,2.656,"Right",16,4,12,12,0,0,0,-12,0,-12,12,12,"Advent",6,-6,10,16,10,4
"107",4,"LAM9-LAM10",0.766236357474747,0.515850972474747,0.534705802474747,0.359365840974747,0.293332685974747,0.645506410974747,1.22818111097475,1.55268764247475,1.33464722747475,1.11172286447475,0.909249114474747,0.603481270474747,0.602718290474747,0.418088803474747,-0.0200657965252525,-0.191906052525253,-0.345382652525253,-0.458104602525253,-0.288054924525252,-0.119172952025253,3084,"DG_s15",10.386,11.091,13.747,13.749,16,4,10,10,2.656,"Right",16,4,12,12,0,0,0,-12,0,-12,12,12,"Advent",6,-6,10,16,10,4
"108",4,"LIP8-LIP9",-0.362865907575758,-0.328843507575758,-0.363363107575758,-0.203943975575758,0.263807674424242,0.575740374424242,0.756931824424242,1.00257994242424,0.963836542424242,0.804135919924242,0.571480619924242,0.348211720924242,0.212048300424242,-0.0656300270757576,-0.00537527707575758,-0.182628328075758,-0.149776104575758,0.438525595424242,0.745642945424242,0.978562745424242,3084,"DG_s15",10.386,11.091,13.747,13.749,16,4,10,10,2.656,"Right",16,4,12,12,0,0,0,-12,0,-12,12,12,"Advent",6,-6,10,16,10,4
"109",4,"LHH6-LHH7",0.090405085690404,0.035576856090404,-0.120666029909596,-0.177545439909596,-0.219291839909596,-0.276233239909596,-0.332196489909596,-0.252346029909596,-0.019244507909596,0.483459592090404,1.0028852420904,1.1370271065904,0.880521234590404,0.373150284590404,0.155062968090404,0.284972243590404,0.635495093590404,1.0162879935904,1.0490539100904,0.819240444090404,3084,"DG_s15",10.386,11.091,13.747,13.749,16,4,10,10,2.656,"Right",16,4,12,12,0,0,0,-12,0,-12,12,12,"Advent",6,-6,10,16,10,4
"110",4,"LTT9-LTT10",2.08750976777778,2.37788558277778,2.29400817777778,1.71531427777778,1.32441885777778,1.22809709777778,1.22313309777778,1.10326152727778,1.09939094377778,1.01240885377778,0.800748453777778,0.717153402277778,0.776272955577778,0.720329475577778,0.428394425577778,0.191222147577778,0.103351262777778,0.116543734777778,0.114328049777778,0.363775602277778,3084,"DG_s15",10.386,11.091,13.747,13.749,16,4,10,10,2.656,"Right",16,4,12,12,0,0,0,-12,0,-12,12,12,"Advent",6,-6,10,16,10,4
"111",4,"LAM5-LAM6",0.493282474545454,0.285512169545455,0.171504179545455,-0.0150784754545455,-0.132669420954545,0.303451220545455,0.946197120545454,0.933062670545455,1.09893188954545,0.849350975045455,0.429059033045455,0.607251088045455,0.448397863545455,0.180472136545455,-0.171255521454545,-0.458809215454545,-0.397799401954545,-0.356309651954545,-0.0653555589545455,0.0848208340454545,3084,"DG_s15",10.386,11.091,13.747,13.749,16,4,10,10,2.656,"Right",16,4,12,12,0,0,0,-12,0,-12,12,12,"Advent",6,-6,10,16,10,4
"112",4,"LIP5-LIP6",0.45350393579798,0.23334236979798,0.25444241979798,0.0946935647979798,-0.22415237020202,-0.15025177020202,-0.26802047020202,-0.16754265290202,0.25859379709798,0.47534295259798,0.76340917009798,0.89430356279798,0.55567656279798,0.37356037229798,0.38288202929798,0.55441286929798,1.04019166929798,1.33687880429798,1.32472552979798,1.12677068979798,3084,"DG_s15",10.386,11.091,13.747,13.749,16,4,10,10,2.656,"Right",16,4,12,12,0,0,0,-12,0,-12,12,12,"Advent",6,-6,10,16,10,4
"113",4,"LHB5-LHB6",0.398178108585859,0.0538024305858586,-0.210728069414141,-0.361403519414141,-0.663818569414141,-0.679160365914141,-0.460661815914141,-0.462805686414141,-0.451334386414141,-0.438572344914141,-0.412587744914141,-0.208353104414141,-0.142453487914141,-0.0906430444141414,-0.0382080444141414,-0.0715830644141414,0.112630674085859,0.0593275595858586,-0.143508399914141,-0.125363949914141,3084,"DG_s15",10.386,11.091,13.747,13.749,16,4,10,10,2.656,"Right",16,4,12,12,0,0,0,-12,0,-12,12,12,"Advent",6,-6,10,16,10,4
"114",4,"LTT8-LTT9",0.453400469439394,0.0197945194393939,-0.142779802560606,-0.218746302560606,-0.340122292560606,-0.395402592560606,-0.387722792560606,-0.413995692560606,-0.341890892560606,-0.244386942560606,-0.324158692560606,-0.280604942560606,-0.209874432560606,-0.131087803310606,-0.00539399331060605,-0.0572557433106061,0.0610868041893939,0.257707924939394,0.369387779939394,0.328553829939394,3084,"DG_s15",10.386,11.091,13.747,13.749,16,4,10,10,2.656,"Right",16,4,12,12,0,0,0,-12,0,-12,12,12,"Advent",6,-6,10,16,10,4
"115",4,"LIP7-LIP8",0.603702700164646,0.635430329664646,0.881775747214646,0.890459731564646,1.05865796156465,1.23064323806465,1.26956412051465,1.47656199646465,1.45524752646465,1.12580848246465,0.971864510964646,0.969588260964646,1.17757313096465,1.43583138996465,1.49649310946465,1.27986587420965,0.863196789209646,0.813265526209646,1.00359277820965,1.15564326346465,3084,"DG_s15",10.386,11.091,13.747,13.749,16,4,10,10,2.656,"Right",16,4,12,12,0,0,0,-12,0,-12,12,12,"Advent",6,-6,10,16,10,4
"116",4,"LAM6-LAM7",0.844759992828283,0.902411882828283,0.771112959878283,0.470571109878283,0.242236293628283,0.214704872628283,0.0815426105782828,0.144240165178283,0.393715931428283,0.810226952428283,1.27614533742828,1.22675431782828,1.10874556782828,0.626828477328283,0.322026847828283,0.477870792828283,0.421512191528283,0.452925657028283,0.423087336528283,0.279638606528283,3084,"DG_s15",10.386,11.091,13.747,13.749,16,4,10,10,2.656,"Right",16,4,12,12,0,0,0,-12,0,-12,12,12,"Advent",6,-6,10,16,10,4
"117",5,"LHB8-LHB9",-0.683513080424242,-0.419938360424242,-0.278910525424242,-0.414398818924242,-0.295865248974242,-0.535610668974242,-0.817835763974242,-0.905597790474242,-1.02063251742424,-0.952060597824242,-0.941915647824242,-0.909247823824242,-0.684586373824242,-0.544089618424242,-0.263748118424242,-0.0992983924242423,-0.134968942424242,-0.219934828424242,-0.445102623424242,-0.784037023424242,3085,"DG_s15",14.75,15.456,17.897,17.899,10,10,6,6,2.441,"Right",6,6,0,0,0,0,0,0,0,0,0,0,"10-10",4,4,6,10,6,10
"118",5,"LAM4-LAM5",0.672867736413131,0.936046481313131,1.05831918131313,0.890521431313131,0.637054162813131,0.261925962813131,-0.197859337186869,-0.409319347686869,-0.234893129186869,-0.249522725686869,-0.326429175686869,-0.282151890686869,-0.136613690686869,0.0875143888131313,0.205422871313131,0.150659257853131,-0.298212492146869,-0.514052925146869,-0.575580307646869,-0.638451733686869,3085,"DG_s15",14.75,15.456,17.897,17.899,10,10,6,6,2.441,"Right",6,6,0,0,0,0,0,0,0,0,0,0,"10-10",4,4,6,10,6,10
"119",5,"LIP1-LIP2",-0.269718261272727,-0.0781406262727273,0.136843000727273,0.306715050727273,0.384035222727273,0.584125322727273,0.964688072727273,1.30485667272727,1.30443382272727,1.01111502272727,0.303630427727273,0.131399282727273,0.692749682727273,1.12824448272727,1.63624657772727,1.51121733072727,0.781606606727273,0.203367604227273,-0.197722887772727,-0.421157545772727,3085,"DG_s15",14.75,15.456,17.897,17.899,10,10,6,6,2.441,"Right",6,6,0,0,0,0,0,0,0,0,0,0,"10-10",4,4,6,10,6,10
"120",5,"LAM3-LAM4",-0.0576036388939394,-0.132909638893939,-0.189299368893939,-0.360760943893939,-0.464595484393939,-0.360997534393939,-0.400116409393939,-0.454951384393939,-0.411890934393939,-0.433820734393939,-0.419234434393939,-0.456813404393939,-0.107251704393939,0.210712895606061,0.285355612106061,0.327996482106061,0.0933675631060606,0.0909142631060606,0.396827996606061,0.985196846606061,3085,"DG_s15",14.75,15.456,17.897,17.899,10,10,6,6,2.441,"Right",6,6,0,0,0,0,0,0,0,0,0,0,"10-10",4,4,6,10,6,10
"121",5,"LAM1-LAM2",-0.19145072459596,-0.20830170209596,0.17364804790404,0.26980467190404,0.0512409719040404,-0.10635706109596,-0.14408426109596,-0.0493895425959596,0.18427120740404,0.33735989040404,0.38888724040404,0.34572749040404,0.50823864040404,0.79563484040404,0.67232262540404,0.30976762540404,0.0433959014040404,-0.27155334859596,-0.42096582359596,-0.44878762359596,3085,"DG_s15",14.75,15.456,17.897,17.899,10,10,6,6,2.441,"Right",6,6,0,0,0,0,0,0,0,0,0,0,"10-10",4,4,6,10,6,10
"122",5,"LIP5-LIP6",0.293249706813131,0.380333242813131,0.196566642813131,-0.139621607186869,-0.313703033686869,-0.139022645186869,0.0353581038631313,0.306957102363131,0.624138578863131,0.539888453863131,0.284967854813131,0.291694499813131,0.387441499813131,0.889426274813131,1.32543042481313,1.38452733131313,1.04309608131313,0.458581896313131,0.400862846313131,0.376116446313131,3085,"DG_s15",14.75,15.456,17.897,17.899,10,10,6,6,2.441,"Right",6,6,0,0,0,0,0,0,0,0,0,0,"10-10",4,4,6,10,6,10
"123",5,"LAM9-LAM10",1.11319785868687,1.23341555868687,1.23632215868687,1.11323114318687,0.854253093186869,0.387659043186869,0.0746366496868687,0.102150055186869,0.0996308889368687,0.115118938936869,0.0876714824368687,-0.146954807563131,-0.189037241313131,-0.0837454413131313,-0.0831368913131313,-0.0599553413131313,-0.0087334513131313,0.00532946368686871,0.00410596368686872,-0.0482182863131313,3085,"DG_s15",14.75,15.456,17.897,17.899,10,10,6,6,2.441,"Right",6,6,0,0,0,0,0,0,0,0,0,0,"10-10",4,4,6,10,6,10
"124",5,"LHB9-LHB10",1.12625853332828,1.12765170282828,1.31672821382828,1.31104976382828,0.910574023828283,0.821536976328283,0.674031308828283,0.234866873828283,0.164831617828283,0.130820010278283,-0.0932039722217172,0.0650842956282828,0.189566701628283,0.255765750678283,0.585154650678283,0.654531197328283,0.486698337328283,0.206820212328283,-0.149103737671717,-0.386813467171717,3085,"DG_s15",14.75,15.456,17.897,17.899,10,10,6,6,2.441,"Right",6,6,0,0,0,0,0,0,0,0,0,0,"10-10",4,4,6,10,6,10
"125",5,"LAM8-LAM9",2.0291525459596,1.4353459359596,1.3298611459596,1.2742205609596,0.707101660959596,0.633512970959596,0.392153610959596,-0.00942555404040402,-0.114822104040404,-0.163347744040404,0.011107068459596,0.0971597798595959,0.268817751859596,0.343314866359596,0.201329103859596,0.322177400959596,0.263219378959596,0.188905894459596,0.300242405959596,0.297772474959596,3085,"DG_s15",14.75,15.456,17.897,17.899,10,10,6,6,2.441,"Right",6,6,0,0,0,0,0,0,0,0,0,0,"10-10",4,4,6,10,6,10
"126",5,"LIP2-LIP3",0.822501019151515,0.630305583151515,0.378243108151515,0.318697829151515,0.188576269151515,0.530150805151515,0.724677125151515,0.635920025151515,0.507720835151515,0.158994672201515,-0.0767724727984848,0.00941797720151516,0.0817392772015152,-0.0533957598484848,0.0715899601515151,0.312049110151515,0.370435906651515,0.583079451651515,0.671245656651515,0.495050834601515,3085,"DG_s15",14.75,15.456,17.897,17.899,10,10,6,6,2.441,"Right",6,6,0,0,0,0,0,0,0,0,0,0,"10-10",4,4,6,10,6,10
"127",5,"LHH5-LHH6",0.0830397451515151,0.464338745151515,0.527078165151515,0.516397615151515,0.363467033151515,-0.0434187168484848,-0.423275816848485,-0.467492521348485,-0.165348739348485,0.112452465651515,0.160451287151515,0.202745101651515,0.201055601651515,0.152906018651515,0.256018755151515,0.260478845151515,-0.107845611348485,-0.375693133348485,-0.453697241348485,-0.750242791348485,3085,"DG_s15",14.75,15.456,17.897,17.899,10,10,6,6,2.441,"Right",6,6,0,0,0,0,0,0,0,0,0,0,"10-10",4,4,6,10,6,10
"128",5,"LAM5-LAM6",0.956849419767677,0.837344919767677,1.10413741826768,1.21854856176768,1.06838130176768,0.698503971767677,0.772951521767677,0.755128671767677,0.571759796767677,0.625760853267677,0.117447253267677,0.0693690377676768,0.306411027267677,0.183637890767677,0.249169183267677,0.339128498767677,0.428129144267677,0.493406684267677,0.374570291767677,-0.0717748582323233,3085,"DG_s15",14.75,15.456,17.897,17.899,10,10,6,6,2.441,"Right",6,6,0,0,0,0,0,0,0,0,0,0,"10-10",4,4,6,10,6,10
"129",5,"LHH4-LHH5",-0.623570140752525,-0.659285975252525,-0.589315075252525,-0.581566625252525,-0.645216594752525,-0.515987354752525,-0.337601554752525,0.0199657452474748,0.399757214747475,0.334823687247475,0.380610887247475,0.268040387247475,0.000413667247474769,-0.196082310252525,-0.194766889752525,-0.0885451397525252,-0.0576800597525252,-0.126735444752525,-0.414376665252525,-0.609591764252525,3085,"DG_s15",14.75,15.456,17.897,17.899,10,10,6,6,2.441,"Right",6,6,0,0,0,0,0,0,0,0,0,0,"10-10",4,4,6,10,6,10
"130",5,"LIP4-LIP5",0.550058297535354,0.699027997535353,0.581159719035354,0.607057261035354,0.346385211035354,0.123422421035354,0.506689331035354,0.471937293535354,0.208830450035354,0.108239674535354,-0.225020790464646,-0.0670048704646465,0.0848166840353535,0.196217549535354,0.292306530535354,-0.0776237194646465,-0.0542500019646465,-0.150069163464646,-0.267974131964646,0.0629468180353535,3085,"DG_s15",14.75,15.456,17.897,17.899,10,10,6,6,2.441,"Right",6,6,0,0,0,0,0,0,0,0,0,0,"10-10",4,4,6,10,6,10
"131",5,"LAM2-LAM3",1.78509097334798,1.73643150079798,1.48296357579798,1.07130972579798,0.59918959579798,0.94391264979798,1.30059609979798,1.16369365729798,1.42139858729798,1.03457568069798,0.98507815069798,1.38546844319798,1.15593005819798,1.17785025429798,1.00039708429798,0.57881666779798,0.49115015279798,0.33768421329798,0.25140288974798,0.16298267124798,3085,"DG_s15",14.75,15.456,17.897,17.899,10,10,6,6,2.441,"Right",6,6,0,0,0,0,0,0,0,0,0,0,"10-10",4,4,6,10,6,10
"132",5,"LHB7-LHB8",1.31981341969697,1.35963271969697,1.56118201969697,1.49474251969697,1.39820881969697,1.06458873819697,0.60566093669697,0.31356888669697,0.17423520469697,0.0133147361969697,-0.0577215123030303,-0.0847778263030303,0.0953853056969697,0.40958490569697,0.50852784219697,0.42417295619697,0.15241990619697,-0.12195944380303,-0.32411133030303,-0.38072313030303,3085,"DG_s15",14.75,15.456,17.897,17.899,10,10,6,6,2.441,"Right",6,6,0,0,0,0,0,0,0,0,0,0,"10-10",4,4,6,10,6,10
"133",5,"LAM7-LAM8",-0.349169518818182,-0.365634771818182,-0.229841621818182,-0.187849571818182,-0.238975121818182,-0.273124271818182,-0.112166542318182,0.289091057681818,0.529468407681818,0.594182879681818,0.530381321181818,0.185482171181818,0.0811986481818182,0.0728504941818182,-0.140690676818182,-0.0312739668181818,-0.0177444879681818,-0.0190732499181818,0.106191350081818,-0.00736600991818182,3085,"DG_s15",14.75,15.456,17.897,17.899,10,10,6,6,2.441,"Right",6,6,0,0,0,0,0,0,0,0,0,0,"10-10",4,4,6,10,6,10
"134",5,"LIP7-LIP8",0.00340951324141414,-0.0768986367585858,-0.324673386758586,-0.346757059158586,-0.478474823758586,-0.786049223758586,-1.03961452375859,-1.31023645585859,-1.34250978585859,-1.15039074085859,-0.931475607358586,-0.622550107358586,-0.499491286858586,-0.557578031858586,-0.718104765358586,-1.01935736535859,-1.11846898585859,-1.05690288585859,-1.12885173585859,-1.14937598585859,3085,"DG_s15",14.75,15.456,17.897,17.899,10,10,6,6,2.441,"Right",6,6,0,0,0,0,0,0,0,0,0,0,"10-10",4,4,6,10,6,10
"135",5,"LTT8-LTT9",-0.143255816666667,-0.115981916666667,-0.233353966666667,-0.272621066666667,-0.293333816666667,-0.215796268666667,0.0797490313333333,0.112347638333333,-0.0122944116666667,-0.0686245096666667,-0.162715010166667,0.234144982833333,0.929081782833333,1.13301774483333,1.07867586533333,0.631911460333333,0.0320925453333333,-0.0652357871666667,0.0880951428333333,0.591032497833333,3085,"DG_s15",14.75,15.456,17.897,17.899,10,10,6,6,2.441,"Right",6,6,0,0,0,0,0,0,0,0,0,0,"10-10",4,4,6,10,6,10
"136",5,"LIP3-LIP4",-0.0693300919191919,0.0326164435808081,-0.236098806419192,-0.621334456419192,-0.882184206419192,-0.602314941919192,-0.143392191919192,0.0395893840808081,0.00602168408080811,-0.302405615919192,-0.709067815919192,-0.666731071419192,-0.438299906419192,-0.355460912419192,-0.260858795919192,-0.151865466419192,0.0350438685808081,0.250664474580808,0.204659951580808,0.0431527715808081,3085,"DG_s15",14.75,15.456,17.897,17.899,10,10,6,6,2.441,"Right",6,6,0,0,0,0,0,0,0,0,0,0,"10-10",4,4,6,10,6,10
"137",5,"LHH7-LHH8",1.01523282626263,0.871662421762626,0.472356751262626,0.398620251262626,0.403501001262626,0.312660440762626,0.157600311262626,-0.143368938737374,-0.375039738737374,-0.448368923737374,-0.166109616237374,0.0221647837626262,0.131481233762626,0.308788624262626,0.194857966762626,0.0624696667626262,-0.133016633237374,-0.272696273737374,-0.330425723737374,-0.487644773737374,3085,"DG_s15",14.75,15.456,17.897,17.899,10,10,6,6,2.441,"Right",6,6,0,0,0,0,0,0,0,0,0,0,"10-10",4,4,6,10,6,10
"138",5,"LHB6-LHB7",0.488663045282828,-0.0293672647171717,0.0729842352828283,0.436705135282828,0.709806168282828,0.837522524782828,0.553753877782828,0.264699577782828,0.241330727782828,0.257195721782828,0.300892381782828,0.323019781782828,0.0680807877828283,-0.219475202717172,-0.336547565717172,-0.549210967067172,-0.637452278067172,-0.581299678067172,-0.640646928067172,-0.746602876717172,3085,"DG_s15",14.75,15.456,17.897,17.899,10,10,6,6,2.441,"Right",6,6,0,0,0,0,0,0,0,0,0,0,"10-10",4,4,6,10,6,10
"139",5,"LAM6-LAM7",1.37881126565657,1.41503921565657,1.36109511565657,0.961728549156566,0.714069299156566,0.308184949156566,-0.156510650843434,-0.339539184343434,-0.395937534343434,-0.350849984343434,-0.203350559343434,-0.0503254193434344,-0.00488046934343436,-0.100035269343434,-0.181742694343434,-0.292393334343434,-0.354793634343434,-0.140515491843434,-0.0163852008434344,0.0311266991565657,3085,"DG_s15",14.75,15.456,17.897,17.899,10,10,6,6,2.441,"Right",6,6,0,0,0,0,0,0,0,0,0,0,"10-10",4,4,6,10,6,10
"140",5,"LHB5-LHB6",-0.525472684025253,-0.595707622025253,-0.713290405525253,-0.845220024025253,-0.923915924025253,-1.08517368102525,-1.02882445252525,-0.524068502525252,0.205962597474747,0.451657387974747,0.386311614474747,0.320094314474747,0.0147582144747475,-0.146372679525253,-0.200359523025253,-0.291901673025253,-0.345584273025253,-0.181845219525253,-0.0563930970252525,-0.410690197025253,3085,"DG_s15",14.75,15.456,17.897,17.899,10,10,6,6,2.441,"Right",6,6,0,0,0,0,0,0,0,0,0,0,"10-10",4,4,6,10,6,10
"141",5,"LHB4-LHB5",-0.820210303065657,-0.919732256565657,-0.751001646565657,-0.488595796565657,-0.365793121115657,-0.177854051115657,-0.178490340615657,-0.200592840615657,0.0314747839343434,0.166062610434343,0.0411182684343434,0.107009268434343,0.0367238684343434,-0.0987901495656566,-0.0677453590656566,-0.109035559065657,-0.0198767090656566,0.155269902434343,0.160146560934343,-0.0583606890656566,3085,"DG_s15",14.75,15.456,17.897,17.899,10,10,6,6,2.441,"Right",6,6,0,0,0,0,0,0,0,0,0,0,"10-10",4,4,6,10,6,10
"142",5,"LTT9-LTT10",0.809413320290909,1.01313863409091,0.808272346590909,0.877358320590909,0.805831426390909,0.412017926390909,0.312489013890909,0.113809736890909,-0.0947977409090909,0.0150166920909091,0.0850819225909091,0.167483820540909,0.746156370540909,1.06173878754091,0.978534792040909,0.797161594090909,0.212198944090909,-0.272664005909091,-0.283908540909091,-0.186641440909091,3085,"DG_s15",14.75,15.456,17.897,17.899,10,10,6,6,2.441,"Right",6,6,0,0,0,0,0,0,0,0,0,0,"10-10",4,4,6,10,6,10
"143",5,"LHH6-LHH7",0.131649564578788,0.468174999578788,0.649808102878788,0.561285876478788,0.367929261478788,-0.0467140385212121,-0.417430188521212,-0.265986867121212,0.284190232878788,0.602424512878788,0.843214883378788,1.07128718837879,0.806922238378788,0.834166608378788,0.950676137878788,0.630889550878788,0.353884865878788,0.241139210378788,0.160691660378788,0.0674047183787879,3085,"DG_s15",14.75,15.456,17.897,17.899,10,10,6,6,2.441,"Right",6,6,0,0,0,0,0,0,0,0,0,0,"10-10",4,4,6,10,6,10
"144",5,"LIP6-LIP7",-1.02293177140404,-0.99024385910404,-1.03686320110404,-0.78013638260404,-0.77526873010404,-0.99002811240404,-1.10115557240404,-1.23751136440404,-1.11915173440404,-0.92460504640404,-0.88621649940404,-1.06814735740404,-1.21796069040404,-1.28715626840404,-1.47332431340404,-1.42334591340404,-1.57214673040404,-1.61848916290404,-1.37585446290404,-1.39278061490404,3085,"DG_s15",14.75,15.456,17.897,17.899,10,10,6,6,2.441,"Right",6,6,0,0,0,0,0,0,0,0,0,0,"10-10",4,4,6,10,6,10
"145",5,"LIP8-LIP9",0.468647128429293,0.342121676429293,0.262445126429293,0.187818726429293,0.238604401524293,0.191415836524293,-0.203027763475707,-0.559421763475707,-0.561211724070707,-0.0965940240707071,0.549672775929293,1.10495672592929,1.15178541442929,0.778319264429293,0.255709664429293,-0.386164285570707,-0.746548657070707,-0.807856307070707,-0.922673407070707,-0.856377757070707,3085,"DG_s15",14.75,15.456,17.897,17.899,10,10,6,6,2.441,"Right",6,6,0,0,0,0,0,0,0,0,0,0,"10-10",4,4,6,10,6,10
"146",6,"LAM8-LAM9",0.749336799242424,0.593281911242424,0.450540011242424,0.279848719242424,0.295522794242424,0.143572782242424,-0.0443706487575757,-0.0273586997575758,0.0154312892424243,0.315265114242424,0.332138070242424,0.0719015132424243,-0.0780373257575758,-0.0132698547575757,0.556670470242424,1.07701937024242,1.22678269174242,0.938154395742424,0.252585145742424,-0.0920301567575758,3086,"DG_s15",18.9,19.605,22.571,22.573,10,10,8,11,2.966,"Right",8,11,3,0,3,3,3,0,0,0,-3,0,"10-10",2,-1,8,10,11,10
"147",6,"LHB9-LHB10",0.291652531191414,0.394134578691414,0.675632363691414,0.665358513691414,0.781900068141414,0.953912968141414,1.26459673314141,1.72129553314141,2.19097756414141,2.36787291414141,2.14060605914141,1.76131519414141,1.11369904414141,0.439883544141414,0.165226099141414,0.160199664141414,0.219134989141414,0.552579089641414,0.898212289641414,1.03692322914141,3086,"DG_s15",18.9,19.605,22.571,22.573,10,10,8,11,2.966,"Right",8,11,3,0,3,3,3,0,0,0,-3,0,"10-10",2,-1,8,10,11,10
"148",6,"LHH4-LHH5",-0.424772713989899,-0.280483188989899,-0.140374357489899,-0.029221692489899,-0.177481342489899,-0.236877366339899,-0.347386247839899,-0.437961960339899,-0.466640335839899,-0.572531836989899,-0.527792236989899,-0.635138024489899,-0.756198548989899,-0.813739848989899,-0.919196198989899,-0.807095367489899,-0.488819817489899,-0.227199687489899,0.010013437510101,0.205542806010101,3086,"DG_s15",18.9,19.605,22.571,22.573,10,10,8,11,2.966,"Right",8,11,3,0,3,3,3,0,0,0,-3,0,"10-10",2,-1,8,10,11,10
"149",6,"LAM1-LAM2",0.00295600220404041,0.13432310120404,0.69837351970404,0.78233887540404,1.04371775890404,1.20032218890404,0.99375663890404,1.00011303890404,0.88104580440404,0.41270326540404,0.11197017990404,-0.21493677009596,-0.0950053125959596,0.36718722640404,0.55805441690404,0.60272685540404,0.61316819890404,0.21809499740404,-0.11717130759596,0.0156179184040404,3086,"DG_s15",18.9,19.605,22.571,22.573,10,10,8,11,2.966,"Right",8,11,3,0,3,3,3,0,0,0,-3,0,"10-10",2,-1,8,10,11,10
"150",6,"LHB8-LHB9",0.0335268559090909,0.466924205909091,0.661060155909091,0.753764290909091,0.740368017409091,0.493032320409091,0.188736875409091,0.394272156909091,0.439833085409091,0.436163471409091,0.602085485409091,0.352351068909091,0.00432377390909094,-0.242459615090909,-0.419622509090909,-0.269706648090909,0.147031651909091,0.610766451909091,0.877278859909091,0.795218618909091,3086,"DG_s15",18.9,19.605,22.571,22.573,10,10,8,11,2.966,"Right",8,11,3,0,3,3,3,0,0,0,-3,0,"10-10",2,-1,8,10,11,10
"151",6,"LAM3-LAM4",-0.422010872707071,-0.509405229707071,-0.640373469207071,-0.653844744207071,-1.09750154420707,-1.09482913720707,-0.905785320707071,-0.682779370707071,-0.508536370707071,-0.705712065707071,-0.976605815707071,-1.45797731570707,-1.68179264920707,-1.69021879420707,-1.60886302220707,-1.16840892220707,-1.19359061620707,-1.43686937620707,-1.52298442770707,-1.73984186270707,3086,"DG_s15",18.9,19.605,22.571,22.573,10,10,8,11,2.966,"Right",8,11,3,0,3,3,3,0,0,0,-3,0,"10-10",2,-1,8,10,11,10
"152",6,"LIP4-LIP5",-2.85215050050505,-2.68194139050505,-2.46346650500505,-2.35572020500505,-2.24907773570505,-2.27576116405505,-2.39012494955505,-2.35946429955505,-2.40785836685505,-2.26563134850505,-2.28260258450505,-2.40487693450505,-2.51084358650505,-2.68137746450505,-2.66706441200505,-2.60685477200505,-2.34964733650505,-2.34675563750505,-2.24124964200505,-1.74629578200505,3086,"DG_s15",18.9,19.605,22.571,22.573,10,10,8,11,2.966,"Right",8,11,3,0,3,3,3,0,0,0,-3,0,"10-10",2,-1,8,10,11,10
"153",6,"LIP5-LIP6",-1.15751270694444,-0.928776621944444,-0.815664563994444,-0.915735113994444,-0.990797951494444,-1.07122927149444,-1.00882685444444,-0.854687429444444,-0.661897163444444,-0.410221478444444,-0.325899953444444,-0.0734422284444445,-0.222362895394444,-0.357249730394444,-0.447693835394444,-0.735681790394444,-0.683243972944444,-0.988926387944444,-0.856737284444444,-0.366180579444444,3086,"DG_s15",18.9,19.605,22.571,22.573,10,10,8,11,2.966,"Right",8,11,3,0,3,3,3,0,0,0,-3,0,"10-10",2,-1,8,10,11,10
"154",6,"LHH5-LHH6",1.23105669658586,1.52782425858586,1.54831310858586,1.34760431408586,0.917453464085859,0.619278361585859,0.454850379835859,0.302540524335859,0.215382724335859,0.127135948835859,0.167025980585859,0.211441991585859,0.183446191585859,-0.00132303041414139,-0.145126180414141,-0.117743541414141,0.0394122585858586,0.275037008585859,0.324251058585859,0.237625258585859,3086,"DG_s15",18.9,19.605,22.571,22.573,10,10,8,11,2.966,"Right",8,11,3,0,3,3,3,0,0,0,-3,0,"10-10",2,-1,8,10,11,10
"155",6,"LHB4-LHB5",0.226610513994949,0.238030504494949,0.153115124994949,0.178309924994949,0.101331935994949,0.0783602954949495,0.0888380164949495,-0.157598833005051,-0.29629765550505,-0.10938930550505,-0.0894593065050505,-0.186970107005051,-0.278386445505051,-0.50418515550505,-0.474337226505051,-0.39084070300505,-0.42128390300505,-0.38895999300505,-0.47047822700505,-0.43543439550505,3086,"DG_s15",18.9,19.605,22.571,22.573,10,10,8,11,2.966,"Right",8,11,3,0,3,3,3,0,0,0,-3,0,"10-10",2,-1,8,10,11,10
"156",6,"LHH7-LHH8",1.73087755707071,1.56794185437071,1.40056465737071,0.918031962370707,0.803319798370707,0.910262776070707,0.949788608070707,1.06641678657071,0.862644700570707,0.801339113570707,0.824881668570707,0.695069541570707,0.643418541570707,0.508489903570707,0.594835608570707,0.980260752070707,1.10194245207071,1.25639893457071,1.39099328957071,1.28342653957071,3086,"DG_s15",18.9,19.605,22.571,22.573,10,10,8,11,2.966,"Right",8,11,3,0,3,3,3,0,0,0,-3,0,"10-10",2,-1,8,10,11,10
"157",6,"LAM5-LAM6",1.06296772369697,0.96054201979697,0.60251127324697,0.20596677324697,0.32663070674697,0.28921050064697,0.24570773569697,0.37158697019697,0.24359017669697,0.18099510269697,0.17484856419697,0.00851042969696969,-0.10343003030303,0.12485876569697,0.48579241569697,0.86393381569697,1.21734691569697,1.10624278219697,0.61876988219697,0.39488596519697,3086,"DG_s15",18.9,19.605,22.571,22.573,10,10,8,11,2.966,"Right",8,11,3,0,3,3,3,0,0,0,-3,0,"10-10",2,-1,8,10,11,10
"158",6,"LAM2-LAM3",-2.63707109976263,-2.84832320876263,-2.68960185876263,-2.83174349576263,-2.85722587126263,-2.56328208626263,-2.41506563626263,-2.19123468626263,-2.02469974126263,-1.93953682626263,-1.82230007626263,-1.72645857626263,-1.87778921826263,-2.07147589726263,-2.16464394726263,-2.33675914976263,-2.20260936126263,-2.08715899726263,-2.26593926226263,-2.44949615976263,3086,"DG_s15",18.9,19.605,22.571,22.573,10,10,8,11,2.966,"Right",8,11,3,0,3,3,3,0,0,0,-3,0,"10-10",2,-1,8,10,11,10
"159",6,"LHB7-LHB8",1.35253637121212,1.39598432121212,1.13817652115712,1.00568627915712,0.962926379157121,0.867413829157121,1.05071412921212,1.19723022121212,1.03816562121212,0.987849771212121,0.743518460712121,0.298271210712121,0.0259681107121212,-0.153501289287879,-0.0980032987878788,0.174788184662121,0.564729834662121,0.969551884662121,1.19312375466212,1.24679322121212,3086,"DG_s15",18.9,19.605,22.571,22.573,10,10,8,11,2.966,"Right",8,11,3,0,3,3,3,0,0,0,-3,0,"10-10",2,-1,8,10,11,10
"160",6,"LIP7-LIP8",0.969516391071717,0.969856041071717,0.866640420571717,0.893466270571717,0.833583320171717,0.844944920171717,0.996584738171717,1.22018949587172,1.32197959937172,1.47155014937172,1.38247659937172,1.27833622467172,1.18477436898172,0.750711368981717,0.949873508981717,1.53671687598172,1.92647665717172,2.30599545717172,2.31878686717172,1.97736676717172,3086,"DG_s15",18.9,19.605,22.571,22.573,10,10,8,11,2.966,"Right",8,11,3,0,3,3,3,0,0,0,-3,0,"10-10",2,-1,8,10,11,10
"161",6,"LHB6-LHB7",1.55494672777778,1.40327147777778,1.22230011777778,1.06542571777778,0.904980927777778,0.757666018277778,0.687264922277778,0.980540072277778,1.12352141227778,1.24853108677778,1.18008747377778,0.890483823777778,0.677756473777778,0.545100870777778,0.744123514777778,0.980854214777778,1.17425711477778,1.42349610277778,1.58413832777778,1.80787972777778,3086,"DG_s15",18.9,19.605,22.571,22.573,10,10,8,11,2.966,"Right",8,11,3,0,3,3,3,0,0,0,-3,0,"10-10",2,-1,8,10,11,10
"162",6,"LIP3-LIP4",-1.42934907449495,-1.13041207449495,-1.21779389599495,-1.07406825299495,-1.15594445569495,-1.00406785569495,-0.72467816669495,-0.85104147119495,-0.93914373899495,-1.36409823899495,-1.65571387749495,-1.51771418799495,-1.40504908799495,-1.38572538799495,-1.57306499949495,-1.85836296949495,-1.82724511949495,-1.77925231949495,-1.84537421949495,-1.88587471949495,3086,"DG_s15",18.9,19.605,22.571,22.573,10,10,8,11,2.966,"Right",8,11,3,0,3,3,3,0,0,0,-3,0,"10-10",2,-1,8,10,11,10
"163",6,"LIP2-LIP3",-0.182584706313131,-0.693523606313131,-1.00468923131313,-0.806288062313131,-0.642684337313131,-0.682146237313131,-0.731085087313131,-0.834954271313131,-0.947170281313131,-0.715737429313131,-0.461752719313131,-0.461324699313131,0.127314985686869,0.587000233686869,0.643348373686869,0.625084639686869,-0.0686763603131313,-0.669421360313131,-0.978797460313131,-1.16371318131313,3086,"DG_s15",18.9,19.605,22.571,22.573,10,10,8,11,2.966,"Right",8,11,3,0,3,3,3,0,0,0,-3,0,"10-10",2,-1,8,10,11,10
"164",6,"LTT9-LTT10",2.17735403383838,2.10508378383838,1.78238203383838,1.45143643383838,1.49428763383838,1.23786768383838,1.02348633383838,0.903484782838384,0.592188932838384,0.443731082838384,0.289767782838384,0.0864136838383839,-0.00449941616161609,-0.103624316161616,-0.0534166811616161,0.203560968838384,0.417941430338384,0.528013159338384,0.786579574338384,1.19975557433838,3086,"DG_s15",18.9,19.605,22.571,22.573,10,10,8,11,2.966,"Right",8,11,3,0,3,3,3,0,0,0,-3,0,"10-10",2,-1,8,10,11,10
"165",6,"LAM4-LAM5",1.92932974787879,1.82863199787879,1.69078584787879,1.56892754787879,1.44678829787879,1.43897439787879,1.31820342637879,0.984073676378788,0.763018401378788,0.386487101378788,0.139254972878788,0.229696074378788,0.396592999378788,0.615191399378788,0.908534849378788,1.20554059787879,1.14383117787879,0.971814077878788,0.815532770028788,0.587784470028788,3086,"DG_s15",18.9,19.605,22.571,22.573,10,10,8,11,2.966,"Right",8,11,3,0,3,3,3,0,0,0,-3,0,"10-10",2,-1,8,10,11,10
"166",6,"LAM9-LAM10",1.42039641496465,1.57821629646465,1.38774494646465,1.07627046516465,0.859909615164646,0.493468865164646,0.159418915164646,0.0235782264646465,0.131062857464646,0.175634657464646,0.163341057464646,0.153756527464646,0.287380506464646,0.807427556464646,1.32801905646465,1.82629630646465,2.11122714646465,1.90038124646465,1.74039934646465,1.43326812646465,3086,"DG_s15",18.9,19.605,22.571,22.573,10,10,8,11,2.966,"Right",8,11,3,0,3,3,3,0,0,0,-3,0,"10-10",2,-1,8,10,11,10
"167",6,"LAM6-LAM7",2.11771468837879,2.35497203787879,2.02697003787879,1.44775214737879,1.35730224737879,1.30048789737879,1.03735355287879,1.19322332887879,1.18313799887879,0.856022838878788,0.953099724878788,0.785951644828788,0.849574124828788,1.16802878482879,1.32847879332879,1.57128723787879,1.36479084737879,0.999327797378788,0.801308082378788,0.533387535378788,3086,"DG_s15",18.9,19.605,22.571,22.573,10,10,8,11,2.966,"Right",8,11,3,0,3,3,3,0,0,0,-3,0,"10-10",2,-1,8,10,11,10
"168",6,"LIP1-LIP2",-0.218757681287879,0.0567182572121212,0.115944107212121,0.527639692712121,1.26108362121212,1.33003404871212,1.01629114871212,0.393415298712121,-0.325860151287879,-0.581148418787879,-0.249355718787879,-0.0544778137878788,-0.00588092378787879,0.212417266212121,0.313611366212121,0.460548111212121,0.364164691212121,-0.0572824087878788,-0.473902858787879,-0.770205008787879,3086,"DG_s15",18.9,19.605,22.571,22.573,10,10,8,11,2.966,"Right",8,11,3,0,3,3,3,0,0,0,-3,0,"10-10",2,-1,8,10,11,10
"169",6,"LIP6-LIP7",-0.0757486236464646,0.0893571878535354,0.0462136828535354,0.203400182853535,0.300011106853535,0.451547395353535,0.869801950353535,0.899650770353535,0.937832800353535,1.10663760035354,0.951818445353535,1.12752277535354,1.09851869035354,0.735738638353535,0.938906893353535,1.12653394335354,1.35947259835354,1.77242915035354,2.10944430035354,2.23268780035354,3086,"DG_s15",18.9,19.605,22.571,22.573,10,10,8,11,2.966,"Right",8,11,3,0,3,3,3,0,0,0,-3,0,"10-10",2,-1,8,10,11,10
"170",6,"LAM7-LAM8",1.26936237856566,0.732956028565657,-0.0441050714343434,-0.531056721434343,-0.542513563434343,-0.434370013434343,-0.354570963434343,-0.238060713434343,-0.275377913434343,-0.184678276934343,-0.102731277984343,0.0404166720156566,0.190333706015657,0.0402531195156566,-0.0411078594343434,-0.161726264434343,-0.416887048434343,-0.444395148434343,-0.349253851434343,-0.0928907964343434,3086,"DG_s15",18.9,19.605,22.571,22.573,10,10,8,11,2.966,"Right",8,11,3,0,3,3,3,0,0,0,-3,0,"10-10",2,-1,8,10,11,10
"171",6,"LIP8-LIP9",0.877393006717172,0.500964906717172,0.341465246717172,0.506579406717172,0.316412452667172,0.140613619167172,0.129934695167172,0.0108299451671717,0.0351778292171717,0.0151899502171717,0.233292974217172,0.555578524217172,0.487981277217172,0.494598439717172,0.238915441717172,0.104611691717172,0.326437923717172,0.731624073717172,0.995291971717172,1.12643022171717,3086,"DG_s15",18.9,19.605,22.571,22.573,10,10,8,11,2.966,"Right",8,11,3,0,3,3,3,0,0,0,-3,0,"10-10",2,-1,8,10,11,10
"172",6,"LHH6-LHH7",0.40263204349495,0.49319644349495,0.46122579849495,0.20781294349495,0.24011363399495,0.48086343349495,0.451532933494949,0.61604725849495,0.50346228549495,0.61906498599495,1.03636443599495,1.12482303549495,1.11050922399495,0.82321252849495,0.77474582849495,0.83677602654495,0.78704672654495,0.71834347204495,0.49480833204495,0.38272908859495,3086,"DG_s15",18.9,19.605,22.571,22.573,10,10,8,11,2.966,"Right",8,11,3,0,3,3,3,0,0,0,-3,0,"10-10",2,-1,8,10,11,10
"173",6,"LHB5-LHB6",0.89642439109596,0.956907376595959,0.94328469159596,0.71670054509596,0.63392886609596,0.38152247459596,0.36804983829596,0.37448377379596,0.26580838779596,0.32052163779596,0.24134593359596,0.19390497104596,0.46881447104596,0.77911400104596,0.91146571954596,1.07160764309596,0.82074905159596,0.43584422159596,0.19451085309596,-0.11130464690404,3086,"DG_s15",18.9,19.605,22.571,22.573,10,10,8,11,2.966,"Right",8,11,3,0,3,3,3,0,0,0,-3,0,"10-10",2,-1,8,10,11,10
"174",6,"LTT8-LTT9",0.360319001449495,0.130775501449495,-0.118565548550505,0.079513509949495,0.253339294949495,0.367782944949495,0.349061979949495,0.149398862899495,-0.110569487100505,-0.543023937100505,-0.739606522100505,-0.716709594400505,-0.654035534800505,-0.643033484800505,-0.658806684800505,-0.781799535450505,-0.641964913550505,-0.340049513550505,-0.025553863550505,0.558673576449495,3086,"DG_s15",18.9,19.605,22.571,22.573,10,10,8,11,2.966,"Right",8,11,3,0,3,3,3,0,0,0,-3,0,"10-10",2,-1,8,10,11,10
"175",7,"LHB7-LHB8",0.530000478787879,0.568615878787879,0.254047091287879,-0.0576280087121213,-0.494056408712121,-0.831961228712121,-0.731117041212121,-0.515640362212121,-0.508954462212121,-0.666323642212121,-0.955848842212121,-1.09317137121212,-1.01609322121212,-0.964869971212121,-0.974207521212121,-0.978760621212121,-0.921505471212121,-0.840956121212121,-0.783933221212121,-0.824916521212121,3087,"DG_s15",23.575,24.28,26.332,26.334,28,4,10,10,2.052,"Left",28,4,24,24,0,0,0,-24,0,-24,24,24,"Advent",18,-6,28,10,4,10
"176",7,"LHH7-LHH8",0.326630383388889,0.142897826388889,-0.390386818611111,-0.910484168611111,-1.02826138811111,-1.23662755611111,-1.43390971111111,-1.39642136111111,-1.43727976111111,-1.43413331111111,-1.38818741111111,-1.38910946111111,-1.39575831111111,-1.13488570861111,-0.885427652161111,-0.514665702161111,-0.0232068021611112,0.0712979953388889,0.119134538888889,-0.0234652111111111,3087,"DG_s15",23.575,24.28,26.332,26.334,28,4,10,10,2.052,"Left",28,4,24,24,0,0,0,-24,0,-24,24,24,"Advent",18,-6,28,10,4,10
"177",7,"LHB8-LHB9",1.76961943686869,2.05852828686869,1.77970057186869,1.57252108186869,1.02189965936869,0.343881094368687,0.330203539368687,0.328086888368687,0.118785060868687,-0.0149609241313131,-0.331196104131313,-0.607742513131313,-0.691942063131313,-0.633043163131313,-0.554407563131313,-0.505218763131313,-0.397134713131313,-0.280546452631313,-0.0307728026313131,0.217234967368687,3087,"DG_s15",23.575,24.28,26.332,26.334,28,4,10,10,2.052,"Left",28,4,24,24,0,0,0,-24,0,-24,24,24,"Advent",18,-6,28,10,4,10
"178",7,"LHB9-LHB10",0.942680754292929,1.02515020429293,0.819373079792929,0.828906839792929,0.704155689792929,0.469712589792929,0.381476702792929,0.135031042792929,-0.185252957207071,-0.406332007207071,-0.531586695707071,-0.558174995707071,-0.440812220707071,-0.266773269707071,-0.0274197197070707,0.262940830292929,0.430855505292929,0.466142159292929,0.389684305792929,0.139954105792929,3087,"DG_s15",23.575,24.28,26.332,26.334,28,4,10,10,2.052,"Left",28,4,24,24,0,0,0,-24,0,-24,24,24,"Advent",18,-6,28,10,4,10
"179",7,"LAM4-LAM5",0.590502523186869,0.366801859186869,0.322139059186869,0.273498324186869,0.116739209686869,0.0193891736868687,-0.406945126313131,-0.811628241313131,-0.916534031313131,-1.04830943131313,-1.06994948131313,-1.08731683131313,-1.05655203131313,-0.955230831313131,-0.816078531313131,-0.741020681313131,-0.725476581313131,-0.563719503813131,-0.439630174813131,-0.387340924813131,3087,"DG_s15",23.575,24.28,26.332,26.334,28,4,10,10,2.052,"Left",28,4,24,24,0,0,0,-24,0,-24,24,24,"Advent",18,-6,28,10,4,10
"180",7,"LIP7-LIP8",0.475056319873737,0.0646954608737374,0.0471253608737374,0.154823809373737,0.146693909373737,0.0402595283737374,-0.213202731626263,-0.309855272626263,-0.144547872626263,-0.112373682626263,-0.171912722626263,-0.180666262626263,-0.203231612626263,-0.253127012626263,-0.231062827626263,-0.266041332626263,-0.374422382626263,-0.460868282626263,-0.385749262126263,-0.327675218626263,3087,"DG_s15",23.575,24.28,26.332,26.334,28,4,10,10,2.052,"Left",28,4,24,24,0,0,0,-24,0,-24,24,24,"Advent",18,-6,28,10,4,10
"181",7,"LHH6-LHH7",0.0304858378989899,-0.29239451210101,-0.60393896210101,-0.65230501010101,-0.58424566010101,-0.57090226010101,-0.62043351010101,-0.48198243660101,-0.32406943660101,-0.15822957260101,-0.20175514760101,-0.33771207110101,-0.54362942110101,-0.79892783510101,-0.81574346010101,-0.60708967010101,-0.19157622010101,0.18852332989899,0.26982005989899,0.0515630848989899,3087,"DG_s15",23.575,24.28,26.332,26.334,28,4,10,10,2.052,"Left",28,4,24,24,0,0,0,-24,0,-24,24,24,"Advent",18,-6,28,10,4,10
"182",7,"LAM3-LAM4",0.269326083770202,0.371866722020202,0.544739972020202,0.401143586020202,0.244557336020202,0.147887506570202,-0.485619693429798,-0.748876687929798,-0.543060497929798,-0.585114092479798,-0.511186092479798,-0.545511361979798,-0.786741371979798,-0.955933597979798,-1.0511953479798,-1.1531400979798,-1.1616773479798,-1.1803376979798,-1.0796779979798,-1.0263188479798,3087,"DG_s15",23.575,24.28,26.332,26.334,28,4,10,10,2.052,"Left",28,4,24,24,0,0,0,-24,0,-24,24,24,"Advent",18,-6,28,10,4,10
"183",7,"LTT9-LTT10",0.481977355353535,0.592472305353535,0.605146305353535,0.625005155353535,0.458795654853535,0.330410670353535,0.0710194703535354,-0.377826610146465,-0.560979609646465,-0.724260775146465,-1.00728822514646,-1.10843134464646,-0.987298744646465,-1.01049059464646,-1.00368684464646,-1.03457654464646,-1.16080959464646,-1.09526656464646,-1.13926981464646,-1.04689326464646,3087,"DG_s15",23.575,24.28,26.332,26.334,28,4,10,10,2.052,"Left",28,4,24,24,0,0,0,-24,0,-24,24,24,"Advent",18,-6,28,10,4,10
"184",7,"LAM2-LAM3",0.28421472950505,0.0244440795050505,0.0287249035050505,0.23094285350505,0.251453568505051,0.34620216850505,0.14136766000505,-0.12526256299495,-0.39645525799495,-0.746991357994949,-0.57778664449495,-0.14598334449495,0.0222174760050505,-0.0293397239949495,-0.334552928994949,-0.70331492899495,-0.970501349494949,-0.785987347494949,-0.48047489749495,-0.361006052494949,3087,"DG_s15",23.575,24.28,26.332,26.334,28,4,10,10,2.052,"Left",28,4,24,24,0,0,0,-24,0,-24,24,24,"Advent",18,-6,28,10,4,10
"185",7,"LAM1-LAM2",-0.122920521713636,-0.0348230507136364,-0.0923059412136364,-0.283707492363636,0.0260367891363636,0.366109229136364,0.500417431636364,0.617555764636364,0.359448556636364,-0.253814793363636,-0.243241590863636,-0.0903638148636364,-0.332761706863636,-0.357309556863636,-0.585720994363636,-0.552010354363636,-0.387406632363636,-0.331795816863636,-0.158932598863636,-0.382681523863636,3087,"DG_s15",23.575,24.28,26.332,26.334,28,4,10,10,2.052,"Left",28,4,24,24,0,0,0,-24,0,-24,24,24,"Advent",18,-6,28,10,4,10
"186",7,"LAM7-LAM8",-0.127313828550505,0.231874219949495,0.896103869949495,0.935770924949495,1.0260396149495,0.731618064949495,0.318101814949495,0.392390603179495,0.287400355679495,0.158379605679495,-0.00670408582050505,-0.182195779050505,-0.217732896550505,-0.309830696550505,-0.247709985050505,-0.137516345050505,-0.259165095050505,-0.301280635050505,-0.356155870050505,-0.367513785050505,3087,"DG_s15",23.575,24.28,26.332,26.334,28,4,10,10,2.052,"Left",28,4,24,24,0,0,0,-24,0,-24,24,24,"Advent",18,-6,28,10,4,10
"187",7,"LAM8-LAM9",0.647272240050505,0.554264545050505,0.415076178050505,0.353024477005505,-0.339894232994495,-0.350567922994495,-0.680407380994495,-1.17138697994949,-1.18824526994949,-1.29038523894949,-1.13096490394949,-0.647443953949495,-0.335198946949495,-0.273537904449495,0.067180285550505,0.072442885550505,-0.0242992964494949,0.0296424800505051,-0.499904233949495,-0.772770535949495,3087,"DG_s15",23.575,24.28,26.332,26.334,28,4,10,10,2.052,"Left",28,4,24,24,0,0,0,-24,0,-24,24,24,"Advent",18,-6,28,10,4,10
"188",7,"LAM9-LAM10",1.18698761767677,1.45534011767677,1.38519701767677,1.11332130267677,0.956024452676768,0.563607252676768,0.158779266176768,-0.0540438688232323,-0.236796634823232,-0.267568884823232,-0.0762394983232323,0.0187893496767677,-0.0355922248232323,-0.0724410248232323,-0.0829746748232323,0.0170047421767677,0.184869482676768,0.165166728176768,-0.106144621823232,-0.0842441746232323,3087,"DG_s15",23.575,24.28,26.332,26.334,28,4,10,10,2.052,"Left",28,4,24,24,0,0,0,-24,0,-24,24,24,"Advent",18,-6,28,10,4,10
"189",7,"LIP1-LIP2",-0.631457134126263,-0.752468984126263,-0.551865534676263,-0.523367627676263,-0.555594636841263,-0.326916046841263,-0.327417281291263,-0.295430574391263,-0.104600665726263,-0.0574580692262626,-0.210216084226263,-0.514057576126263,-0.839311826126263,-1.09936316262626,-1.13594621262626,-1.08123691262626,-1.12676921262626,-1.01575056262626,-0.894969312626263,-0.937291962626263,3087,"DG_s15",23.575,24.28,26.332,26.334,28,4,10,10,2.052,"Left",28,4,24,24,0,0,0,-24,0,-24,24,24,"Advent",18,-6,28,10,4,10
"190",7,"LIP5-LIP6",-0.265946432474747,-0.182240291974748,0.0943217030252525,0.228326862775252,0.239737427275253,0.101678622275253,0.00496615227525249,0.0494369425252525,0.0267584125252525,-0.0974164874747475,-0.219935862474748,-0.161246743974747,0.0068069560252525,0.0979685995252525,0.131537749525253,0.0910210860252525,-0.0658319139747475,-0.152765507474747,-0.223829857474747,-0.280107562474748,3087,"DG_s15",23.575,24.28,26.332,26.334,28,4,10,10,2.052,"Left",28,4,24,24,0,0,0,-24,0,-24,24,24,"Advent",18,-6,28,10,4,10
"191",7,"LHH5-LHH6",1.89420418237374,1.45820998737374,1.14673278737374,0.678988262373737,0.759417517373737,0.921292212373737,0.659990160873737,0.703134535873737,0.453734135873737,0.150239941373737,0.161382432873737,0.151347846873737,0.0634596468737374,-0.122145908626263,-0.184244173626263,-0.120583781626263,-0.0172095316262626,0.174785124373737,0.395439149373737,0.563177254873737,3087,"DG_s15",23.575,24.28,26.332,26.334,28,4,10,10,2.052,"Left",28,4,24,24,0,0,0,-24,0,-24,24,24,"Advent",18,-6,28,10,4,10
"192",7,"LAM5-LAM6",0.893975402787879,0.938797552787879,0.766338672787879,0.732106513787879,0.756511898787879,0.695959198787879,0.808334963787879,0.796234865287879,0.581161291287879,0.535942741287879,0.335911631287879,0.672545549787879,0.878164688787879,0.831007194527879,1.37120111952788,1.44188106952788,1.20936773402788,0.975209993787879,0.619220462287879,0.187307462287879,3087,"DG_s15",23.575,24.28,26.332,26.334,28,4,10,10,2.052,"Left",28,4,24,24,0,0,0,-24,0,-24,24,24,"Advent",18,-6,28,10,4,10
"193",7,"LHB6-LHB7",-0.275153417292929,-0.443257167292929,-0.802711598292929,-0.913371814792929,-1.09537626029293,-1.21701270929293,-1.10983612829293,-0.994759881292929,-1.08173238129293,-1.30454838229293,-1.51292228229293,-1.52284547929293,-1.27812833979293,-1.06940769479293,-0.938852399792929,-0.848275649792929,-0.796011149292929,-0.890026400542929,-1.01549279554293,-1.01067682604293,3087,"DG_s15",23.575,24.28,26.332,26.334,28,4,10,10,2.052,"Left",28,4,24,24,0,0,0,-24,0,-24,24,24,"Advent",18,-6,28,10,4,10
"194",7,"LHH4-LHH5",-0.535957651944444,-0.372793826944445,-0.0549565679444445,0.0810820870555555,-0.0584071329444444,-0.291534822944444,-0.640437322944444,-0.876123054444444,-0.893980384444444,-0.876130889444445,-0.901531139444445,-0.892879839444444,-0.913291789444445,-0.844850102844445,-0.567052552844444,-0.250900352844445,0.0665247471555556,0.320967155555556,0.450922355555556,0.327676591555556,3087,"DG_s15",23.575,24.28,26.332,26.334,28,4,10,10,2.052,"Left",28,4,24,24,0,0,0,-24,0,-24,24,24,"Advent",18,-6,28,10,4,10
"195",7,"LAM6-LAM7",1.18292691954545,1.13734141954545,1.48004381954545,1.37037911954545,1.20639446954545,0.832312639545455,0.0938338395454545,-0.275317560454545,-0.431022501954546,-0.317106891954545,-0.152067836454545,-0.0675166364545454,-0.0615946949545454,-0.344273074954546,-0.316346780454545,-0.322309930454545,-0.485917180454545,-0.500763530454545,-0.594305430454546,-0.615170530454546,3087,"DG_s15",23.575,24.28,26.332,26.334,28,4,10,10,2.052,"Left",28,4,24,24,0,0,0,-24,0,-24,24,24,"Advent",18,-6,28,10,4,10
"196",7,"LIP3-LIP4",-0.314769715777778,-0.233383051277778,-0.481399301277778,-0.577660322777778,-0.667887475277778,-0.634979197277778,-0.101277147277778,0.406088002722222,0.419462982722222,0.243569803722222,0.0623247537222222,-0.243252281277778,-0.378836481277778,-0.241140447777778,-0.343418147777778,-0.273496212777778,-0.0423804627777778,0.0181670222222222,0.00531439722222221,-0.321910266777778,3087,"DG_s15",23.575,24.28,26.332,26.334,28,4,10,10,2.052,"Left",28,4,24,24,0,0,0,-24,0,-24,24,24,"Advent",18,-6,28,10,4,10
