"","trial","electrodes","bin_1","bin_2","bin_3","bin_4","bin_5","bin_6","bin_7","bin_8","bin_9","bin_10","bin_11","bin_12","bin_13","bin_14","bin_15","X","SID","newround_time","choice_time","buttonpress_time","reveal_time","self_payoff","other_payoff","self_foregone","other_foregone","RT","side_chosen","self_var_payoff","other_var_payoff","ineq_var_abs","ineq_choice_abs","ineq_foregone_abs","ineq_foregone","ineq_disadvent","ineq_advent","ineq_disadvent_choice","ineq_advent_choice","ineq_var","ineq_choice","chose_equality","self_diff","other_diff","L_self","R_self","L_other","R_other"
"1",1,"LAM1-LAM2",0.3956676025,0.222517885,-0.060042175,0.083791655,0.2121333035,0.2236103035,0.0589615135,-0.2932150715,-0.634290952,-0.485212521,-0.4429602105,-0.4844732105,-0.565071231,-0.593888679,-0.5874713695,3081,"DG_s15",-0.702,0.00200000000007,2.082,2.084,10,10,6,6,2.08,"Left",6,6,0,0,0,0,0,0,0,0,0,0,"10-10",4,4,10,6,10,6
"2",1,"LAM2-LAM3",0.3728504085,0.509621503,0.35475191955,0.56969355955,0.29039944455,0.02031823655,0.0265850925,0.0262203045,-0.0171410955,0.1818921275,0.054088345,-0.00793864700000002,0.107544438,0.06674932325,0.15518320425,3081,"DG_s15",-0.702,0.00200000000007,2.082,2.084,10,10,6,6,2.08,"Left",6,6,0,0,0,0,0,0,0,0,0,0,"10-10",4,4,10,6,10,6
"3",1,"LAM3-LAM4",-0.003237878,0.128223389,0.163120539,0.405479139,0.6376356935,0.6484250545,0.5352415095,0.367579082,0.389803552,0.562431667,0.620915922,0.6396932695,0.3020131045,0.0953004165,-0.0089360925,3081,"DG_s15",-0.702,0.00200000000007,2.082,2.084,10,10,6,6,2.08,"Left",6,6,0,0,0,0,0,0,0,0,0,0,"10-10",4,4,10,6,10,6
"4",1,"LAM4-LAM5",-0.3646154402,-0.1635258657,-0.3822270592,-0.6016596322,-0.5189899822,-0.5015486422,-0.5478196922,-0.5362749657,-0.4903583867,-0.5890579862,-0.3836461712,-0.5417632347,-0.5901544227,-0.6900559307,-0.7448781502,3081,"DG_s15",-0.702,0.00200000000007,2.082,2.084,10,10,6,6,2.08,"Left",6,6,0,0,0,0,0,0,0,0,0,0,"10-10",4,4,10,6,10,6
"5",1,"LAM6-LAM7",-0.322108296,-0.32017612,-0.517597375,-0.57798027,-0.486153755,0.039233285,0.41729178,0.487201426175,0.660730811175,0.468389601175,0.581718051175,0.512750915,0.056647723,-0.0692915855,-0.2153277105,3081,"DG_s15",-0.702,0.00200000000007,2.082,2.084,10,10,6,6,2.08,"Left",6,6,0,0,0,0,0,0,0,0,0,0,"10-10",4,4,10,6,10,6
"6",1,"LAM7-LAM8",-0.60085112615,-0.21318237615,0.21896062385,0.31697866785,0.56615534285,0.54357973785,0.22967332785,0.52703708385,0.38495711735,0.31662087235,0.37396458235,0.12880328535,0.16049950885,0.04559836885,0.62764381885,3081,"DG_s15",-0.702,0.00200000000007,2.082,2.084,10,10,6,6,2.08,"Left",6,6,0,0,0,0,0,0,0,0,0,0,"10-10",4,4,10,6,10,6
"7",1,"LHB9-LHB10",-0.4738651215,-0.5335570295,-0.6150901695,-0.2995521545,-0.2863289155,-0.3708558955,-0.333695176,-0.523378631,-0.6279427865,-0.281136659,-0.0383496935,0.222740416,0.2353725815,0.018903407,-0.260501733,3081,"DG_s15",-0.702,0.00200000000007,2.082,2.084,10,10,6,6,2.08,"Left",6,6,0,0,0,0,0,0,0,0,0,0,"10-10",4,4,10,6,10,6
"8",1,"LAM8-LAM9",0.447787895,0.166579555,-0.297304945,-0.433675873,-0.116462273,0.083764227,0.395080802,0.73560792,0.77174742,0.8726388385,1.1048704635,1.0888394015,0.9904864615,0.885554333,0.476141093,3081,"DG_s15",-0.702,0.00200000000007,2.082,2.084,10,10,6,6,2.08,"Left",6,6,0,0,0,0,0,0,0,0,0,0,"10-10",4,4,10,6,10,6
"9",1,"LAM9-LAM10",0.3918755175,0.5260364935,0.6386530265,0.5686629315,0.8866087015,0.8536828775,0.780143668,1.0080047924,0.8567849569,0.7339923309,1.0088390444,0.809893225,0.6109831755,0.7531552545,0.5146663795,3081,"DG_s15",-0.702,0.00200000000007,2.082,2.084,10,10,6,6,2.08,"Left",6,6,0,0,0,0,0,0,0,0,0,0,"10-10",4,4,10,6,10,6
"10",1,"LIP4-LIP5",-0.2230742623,-0.3092998223,-0.299082077,-0.3272395517,-0.3643281417,-0.2077086527,-0.115321635,-0.02391434,-0.006437105,0.327343961,0.594115711,0.545507123,0.714584063,0.5170872415,0.0885981225,3081,"DG_s15",-0.702,0.00200000000007,2.082,2.084,10,10,6,6,2.08,"Left",6,6,0,0,0,0,0,0,0,0,0,0,"10-10",4,4,10,6,10,6
"11",1,"LHH5-LHH6",0.05847092075,0.18907275575,-0.15015719375,-0.22811583375,-0.0646253355,-0.0445002105,-0.0453293105,-0.2135141795,-0.2980036245,-0.4842371645,-0.4042730795,-0.2120927195,-0.2320475715,-0.2975090415,-0.133261065,3081,"DG_s15",-0.702,0.00200000000007,2.082,2.084,10,10,6,6,2.08,"Left",6,6,0,0,0,0,0,0,0,0,0,0,"10-10",4,4,10,6,10,6
"12",1,"LHH7-LHH8",-0.78553628465,-0.44806324215,-0.4125730275,-0.23605712,0.35880875,0.633250885,1.07483651,1.21046983,0.615301645,0.1515504595,-0.2142624055,-0.5926093905,-0.716132386,-0.9918610505,-1.0854152555,3081,"DG_s15",-0.702,0.00200000000007,2.082,2.084,10,10,6,6,2.08,"Left",6,6,0,0,0,0,0,0,0,0,0,0,"10-10",4,4,10,6,10,6
"13",1,"LIP8-LIP9",0.2142472205,0.267449566,0.305987724,0.2514601525,0.346052217,0.6176863215,0.8705145485,0.9093708645,0.792589659,0.820300094,0.709909169,0.474038693,0.392177433,0.2217246815,0.2008609315,3081,"DG_s15",-0.702,0.00200000000007,2.082,2.084,10,10,6,6,2.08,"Left",6,6,0,0,0,0,0,0,0,0,0,0,"10-10",4,4,10,6,10,6
"14",1,"LHB4-LHB5",0.340919027665,0.106434519165,0.133133413165,0.334444488165,0.185514515115,0.130671995115,-0.040602418885,-0.257201003885,-0.177780645835,-0.246503910835,-0.040065925835,0.074640339165,0.192098964165,0.463539668165,0.364335209665,3081,"DG_s15",-0.702,0.00200000000007,2.082,2.084,10,10,6,6,2.08,"Left",6,6,0,0,0,0,0,0,0,0,0,0,"10-10",4,4,10,6,10,6
"15",1,"LHB5-LHB6",0.0939710475,0.10653789,0.27257891,0.348200194,0.439160484,0.264264855,0.107573615,0.1491961875,0.00380367000000001,0.0457149,0.130633285,0.0668858075,0.253671505,0.3245652015,0.5121656465,3081,"DG_s15",-0.702,0.00200000000007,2.082,2.084,10,10,6,6,2.08,"Left",6,6,0,0,0,0,0,0,0,0,0,0,"10-10",4,4,10,6,10,6
"16",1,"LTT8-LTT9",-0.164561523,-0.1278822211,-0.0446262126,0.3440841374,0.7430077824,0.6788947275,0.809528744,0.607527598,0.542331983,0.552000054,0.291995539,0.2005083265,-0.0671937885,0.0423193265,0.0397206765,3081,"DG_s15",-0.702,0.00200000000007,2.082,2.084,10,10,6,6,2.08,"Left",6,6,0,0,0,0,0,0,0,0,0,0,"10-10",4,4,10,6,10,6
"17",1,"LHB6-LHB7",-0.3144475815,-0.3190654015,-0.099766066,-0.209782366,-0.034907891,0.212640434,0.14449458485,0.20999731485,0.05926210485,0.09774230485,0.241793224,0.5083320365,0.4609708215,0.2597184375,0.3868104575,3081,"DG_s15",-0.702,0.00200000000007,2.082,2.084,10,10,6,6,2.08,"Left",6,6,0,0,0,0,0,0,0,0,0,0,"10-10",4,4,10,6,10,6
"18",1,"LHB7-LHB8",0.05298831,0.03180359,0.0712126749999999,-0.029399735,0.23362279,0.337153908,0.431834923,0.557468973,0.41813341525,0.65638135525,0.64726915025,0.68250605025,0.709444478,0.46003291,0.765496165,3081,"DG_s15",-0.702,0.00200000000007,2.082,2.084,10,10,6,6,2.08,"Left",6,6,0,0,0,0,0,0,0,0,0,0,"10-10",4,4,10,6,10,6
"19",1,"LHB8-LHB9",0.063036887,0.184061467,0.2654967243,0.1226792629,0.2607008979,0.0347062379,0.09028557635,0.38525150095,0.32944702095,0.58915018595,0.7352476035,0.513124279,0.48984997425,0.35309151875,0.25583445875,3081,"DG_s15",-0.702,0.00200000000007,2.082,2.084,10,10,6,6,2.08,"Left",6,6,0,0,0,0,0,0,0,0,0,0,"10-10",4,4,10,6,10,6
"20",1,"LTT9-LTT10",0.08297884,-0.04398493,-0.15438038,0.09663092,0.52747133,0.714264435,0.881120585,0.589412735,0.37558609,0.1983138113,0.3448783893,0.5202740243,0.6802496693,0.971922543,0.86661783,3081,"DG_s15",-0.702,0.00200000000007,2.082,2.084,10,10,6,6,2.08,"Left",6,6,0,0,0,0,0,0,0,0,0,0,"10-10",4,4,10,6,10,6
"21",1,"LIP1-LIP2",0.4671488755,0.6767870405,0.3619544655,0.298096561,0.400350265,0.31667581,0.390919275,0.45568154755,0.44235447255,0.33201237755,0.30842654155,0.328722994,0.505025449,0.5196501675,0.9148026835,3081,"DG_s15",-0.702,0.00200000000007,2.082,2.084,10,10,6,6,2.08,"Left",6,6,0,0,0,0,0,0,0,0,0,0,"10-10",4,4,10,6,10,6
"22",1,"LIP2-LIP3",0.58137453865,0.69307396015,0.61980513015,0.44573911965,0.23439714965,0.17632568765,0.14591054465,0.14590822515,0.07381655015,0.07474799365,0.25691618665,0.48977701665,0.55380408165,0.77616295865,0.69729316865,3081,"DG_s15",-0.702,0.00200000000007,2.082,2.084,10,10,6,6,2.08,"Left",6,6,0,0,0,0,0,0,0,0,0,0,"10-10",4,4,10,6,10,6
"23",1,"LIP3-LIP4",0.01657786015,-0.18366032035,-0.15521141035,-0.11813953535,0.2401184695,0.3869210055,0.4891800505,0.1816238505,-0.1470517846,-0.4617008401,-0.4031071901,-0.1649447651,-0.0643902755,-0.0377728745,-0.4178644045,3081,"DG_s15",-0.702,0.00200000000007,2.082,2.084,10,10,6,6,2.08,"Left",6,6,0,0,0,0,0,0,0,0,0,0,"10-10",4,4,10,6,10,6
"24",1,"LIP7-LIP8",-0.95755751,-1.071284176,-1.216094256,-1.339433021,-1.3178809,-1.289137915,-1.1465470155,-0.9665408855,-1.0201942255,-0.989074453,-0.9426108835,-0.8013167226,-0.7606966726,-0.7328090001,-0.7015278791,3081,"DG_s15",-0.702,0.00200000000007,2.082,2.084,10,10,6,6,2.08,"Left",6,6,0,0,0,0,0,0,0,0,0,0,"10-10",4,4,10,6,10,6
"25",1,"LHH4-LHH5",0.2033710965,0.1194858775,-0.0665551445,0.1043294255,-0.1826996445,-0.0883058905,0.0495524,-0.4394165,-0.222746325,-0.34687854,-0.2605166605,-0.2423695605,-0.1731974155,-0.177289951,-0.222725096,3081,"DG_s15",-0.702,0.00200000000007,2.082,2.084,10,10,6,6,2.08,"Left",6,6,0,0,0,0,0,0,0,0,0,0,"10-10",4,4,10,6,10,6
"26",1,"LHH6-LHH7",-1.1075258273,-0.8542621335,-0.774125046,-0.9409880418,-0.5070669863,-0.2371975863,-0.4048979788,-0.4169462025,-0.8343164686,-1.2387134936,-1.0766017671,-1.1485484721,-1.363655756,-1.551666639,-1.5266735755,3081,"DG_s15",-0.702,0.00200000000007,2.082,2.084,10,10,6,6,2.08,"Left",6,6,0,0,0,0,0,0,0,0,0,0,"10-10",4,4,10,6,10,6
"27",1,"LIP6-LIP7",-0.236741662,-0.336199037,-0.349414332,-0.4791564005,-0.66127863885,-0.74691674885,-0.9079326637,-1.02020192135,-0.998506343,-0.99077947625,-0.8608959714,-0.81866941375,-0.97086134875,-0.8735259655,-0.7856558705,3081,"DG_s15",-0.702,0.00200000000007,2.082,2.084,10,10,6,6,2.08,"Left",6,6,0,0,0,0,0,0,0,0,0,0,"10-10",4,4,10,6,10,6
"28",1,"LIP5-LIP6",0.2991314304,0.0391770904,-0.0565570646,-0.0382594446,0.0146797504,0.0113533304,-0.1914603736,-0.1752058636,-0.0371079286,0.1190361148,0.4799847238,0.4700117598,0.3106095948,0.4132838814,0.3536269439,3081,"DG_s15",-0.702,0.00200000000007,2.082,2.084,10,10,6,6,2.08,"Left",6,6,0,0,0,0,0,0,0,0,0,0,"10-10",4,4,10,6,10,6
"29",1,"LAM5-LAM6",0.1052206685,0.0497565865,-0.057797628,-0.1751446855,-0.27185404941,-0.02930794791,0.05723410609,0.39011517509,0.477520569,0.5223318045,0.3584400305,0.2639480705,0.4802788705,0.2334820605,0.3182425065,3081,"DG_s15",-0.702,0.00200000000007,2.082,2.084,10,10,6,6,2.08,"Left",6,6,0,0,0,0,0,0,0,0,0,0,"10-10",4,4,10,6,10,6
"30",2,"LIP7-LIP8",-0.159159485,-0.001726595,0.112343102,0.4968369645,0.8045721575,0.46664268,0.51647167,0.44085192,0.3510582135,0.3845492865,0.2605561015,0.1699325365,0.50358744,0.4484361345,0.3924148095,3082,"DG_s15",3.085,3.791,6.023,6.025,18,18,10,10,2.232,"Right",18,18,0,0,0,0,0,0,0,0,0,0,"Equal",8,8,10,18,10,18
"31",2,"LTT8-LTT9",0.212179188805,0.275043331305,0.457725966305,0.2854399915,0.3284187935,0.381665414,0.128830634,0.331783379,0.1070404295,-0.1353300835,-0.2089015955,-0.3683744955,-0.4116378215,-0.32317656,-0.183607678,3082,"DG_s15",3.085,3.791,6.023,6.025,18,18,10,10,2.232,"Right",18,18,0,0,0,0,0,0,0,0,0,0,"Equal",8,8,10,18,10,18
"32",2,"LAM5-LAM6",0.189528263,0.00772740999999999,0.00369927999999997,-0.023007442,0.368989668,0.378014408,0.380094257,0.455464554,0.3485028405,0.5713549605,0.7340402615,0.962910818,0.899699444,0.708647309,0.615761689,3082,"DG_s15",3.085,3.791,6.023,6.025,18,18,10,10,2.232,"Right",18,18,0,0,0,0,0,0,0,0,0,0,"Equal",8,8,10,18,10,18
"33",2,"LHH4-LHH5",0.3305675578,0.2659211028,0.2330713528,0.1449674955,-0.08767026075,0.04586930925,0.18933484425,0.42164361925,0.615337645,0.407168205,0.39309288,0.1480421479,0.1066553979,0.1617436829,0.3092355479,3082,"DG_s15",3.085,3.791,6.023,6.025,18,18,10,10,2.232,"Right",18,18,0,0,0,0,0,0,0,0,0,0,"Equal",8,8,10,18,10,18
"34",2,"LAM2-LAM3",-0.33893884095,-0.22107557095,0.02497244405,0.03033809455,0.05941618705,-0.19926594945,-0.48760111445,-0.62804914495,-0.28162937745,-0.11322982095,0.22032752905,0.37201813905,0.25886273405,0.30787896905,-0.04176713095,3082,"DG_s15",3.085,3.791,6.023,6.025,18,18,10,10,2.232,"Right",18,18,0,0,0,0,0,0,0,0,0,0,"Equal",8,8,10,18,10,18
"35",2,"LHB9-LHB10",0.559412523,0.653860233,0.7329142975,0.58985745,0.3506912445,-0.0145464905,-0.1773040495,-0.2435106245,-0.2683257595,-0.0773545835,-0.062363624,0.055517977,0.1044564435,0.2824654525,0.4749009775,3082,"DG_s15",3.085,3.791,6.023,6.025,18,18,10,10,2.232,"Right",18,18,0,0,0,0,0,0,0,0,0,0,"Equal",8,8,10,18,10,18
"36",2,"LAM1-LAM2",-0.4600722145,-0.26755737775,-0.17765710275,-0.61097876275,-0.51449721275,-0.517697771,-0.414091971,-0.0796028315,-0.0518594865,-0.164176425,-0.2479298865,-0.271760691,-0.15276651729,-0.15897905729,-0.07265631219,3082,"DG_s15",3.085,3.791,6.023,6.025,18,18,10,10,2.232,"Right",18,18,0,0,0,0,0,0,0,0,0,0,"Equal",8,8,10,18,10,18
"37",2,"LIP2-LIP3",0.8143761485,0.627641054,0.4766680585,0.3714900605,0.154404336,0.0532742655,-0.200683139,-0.365226796,-0.365574706,-0.284060491,-0.204330993,0.057184472,0.12284375,0.098928431,0.216240418,3082,"DG_s15",3.085,3.791,6.023,6.025,18,18,10,10,2.232,"Right",18,18,0,0,0,0,0,0,0,0,0,0,"Equal",8,8,10,18,10,18
"38",2,"LIP5-LIP6",-0.9044238835,-0.6889804285,-0.6585133335,-0.2249334465,-0.190377983,-0.356519208,-0.194527537,-0.268194024,-0.4662486285,-0.423919346,-0.315878382,-0.354061917,-0.2168880575,0.11175648,0.17356862,3082,"DG_s15",3.085,3.791,6.023,6.025,18,18,10,10,2.232,"Right",18,18,0,0,0,0,0,0,0,0,0,0,"Equal",8,8,10,18,10,18
"39",2,"LIP4-LIP5",-0.0317085765,-0.0699470715,0.0391770555,0.127300077,0.2790942205,0.1045388555,-0.0602593405,-0.108281687,-0.3760722945,-0.0462227356,0.2349529204,0.2103747904,0.2463908229,0.0432461815,-0.2108201735,3082,"DG_s15",3.085,3.791,6.023,6.025,18,18,10,10,2.232,"Right",18,18,0,0,0,0,0,0,0,0,0,0,"Equal",8,8,10,18,10,18
"40",2,"LAM3-LAM4",0.432193808,0.537109098,0.287843482,0.002602407,-0.169537103,-0.195544053,0.094823289,0.24530465,0.394430075,0.50002258,0.718237613,0.851447982,0.984952782,1.080634237,0.693624312,3082,"DG_s15",3.085,3.791,6.023,6.025,18,18,10,10,2.232,"Right",18,18,0,0,0,0,0,0,0,0,0,0,"Equal",8,8,10,18,10,18
"41",2,"LHB4-LHB5",-0.264360645,-0.2389289375,-0.241373019,-0.643982284,-0.469668734,-0.543618214,-0.6250160245,-0.2863978945,-0.24882042,-0.2637758845,0.2163046075,0.0844802475,0.2070694583,0.4290440998,-0.0572899252,3082,"DG_s15",3.085,3.791,6.023,6.025,18,18,10,10,2.232,"Right",18,18,0,0,0,0,0,0,0,0,0,0,"Equal",8,8,10,18,10,18
"42",2,"LIP6-LIP7",-0.02038950605,0.01728642395,-0.11160722155,-0.02258959605,0.23943049395,0.10034878895,0.29556109865,0.35839631315,0.14347755815,0.27346607315,-0.00327054350000001,0.2741652165,0.3275623265,0.2206773415,0.14008390895,3082,"DG_s15",3.085,3.791,6.023,6.025,18,18,10,10,2.232,"Right",18,18,0,0,0,0,0,0,0,0,0,0,"Equal",8,8,10,18,10,18
"43",2,"LIP8-LIP9",-0.2234519145,-0.45187218395,-0.38217943745,0.14205051255,0.25764388255,0.204428122,0.3214271805,-0.0284054885,-0.009939699515,0.242498211985,0.312386081485,0.417014120485,0.43829955335,0.24639544735,0.28719166785,3082,"DG_s15",3.085,3.791,6.023,6.025,18,18,10,10,2.232,"Right",18,18,0,0,0,0,0,0,0,0,0,0,"Equal",8,8,10,18,10,18
"44",2,"LAM4-LAM5",-1.547131139,-1.392812794,-1.1211116355,-0.9901494215,-0.9197416665,-1.1573223015,-1.2578233815,-1.3791557765,-1.36085213,-0.9467858005,-0.8986066605,-0.9605487751525,-0.7408269681525,-1.0996386426525,-1.0775673076525,3082,"DG_s15",3.085,3.791,6.023,6.025,18,18,10,10,2.232,"Right",18,18,0,0,0,0,0,0,0,0,0,0,"Equal",8,8,10,18,10,18
"45",2,"LHH5-LHH6",-0.2668593405,-0.2986083105,-0.2451697455,-0.5802965755,-0.6349675205,-0.7025105855,-0.5911355505,-0.3152186875,-0.16688491,0.132603005,0.04687935,-0.2460568865,-0.174850814,-0.1797461185,-0.0766479525,3082,"DG_s15",3.085,3.791,6.023,6.025,18,18,10,10,2.232,"Right",18,18,0,0,0,0,0,0,0,0,0,0,"Equal",8,8,10,18,10,18
"46",2,"LIP1-LIP2",-0.29567815965,-0.44293504465,-0.53941330815,-0.408883487,-0.208996008,-0.092135163,-0.0643349595,-0.2340693295,-0.2437468435,-0.1844903635,0.1183251375,0.408843034,0.6610589965,0.8817822565,0.453682903,3082,"DG_s15",3.085,3.791,6.023,6.025,18,18,10,10,2.232,"Right",18,18,0,0,0,0,0,0,0,0,0,0,"Equal",8,8,10,18,10,18
"47",2,"LHB8-LHB9",0.5548081235,0.6858528185,0.3130307685,0.5835508085,0.44738407595,0.22570954645,0.28255992749,0.07685200249,-0.05203564046,0.02220902254,-0.033773478,-0.05601950615,0.04470890885,-0.02188665615,0.04658532835,3082,"DG_s15",3.085,3.791,6.023,6.025,18,18,10,10,2.232,"Right",18,18,0,0,0,0,0,0,0,0,0,0,"Equal",8,8,10,18,10,18
"48",2,"LHB6-LHB7",0.095622928,0.073305583,0.609259433,0.8153687745,1.1232654125,1.0329736675,0.6506269125,0.5876303725,0.2972275245,0.4793096945,0.6181775745,0.5679826945,0.6035728295,0.6125252245,0.4215742195,3082,"DG_s15",3.085,3.791,6.023,6.025,18,18,10,10,2.232,"Right",18,18,0,0,0,0,0,0,0,0,0,0,"Equal",8,8,10,18,10,18
"49",2,"LHB7-LHB8",0.4277825875,0.11694812,0.1875599985,0.4794273285,0.305335276,0.2770892195,0.299172666,0.339255386,0.340721095,0.2140155245,0.000723468300000002,-0.1405872317,0.0310029443,0.1079140488,-0.00732734,3082,"DG_s15",3.085,3.791,6.023,6.025,18,18,10,10,2.232,"Right",18,18,0,0,0,0,0,0,0,0,0,0,"Equal",8,8,10,18,10,18
"50",2,"LAM6-LAM7",-0.5323585955,-0.5421296625,-0.4243638,-0.107741148,0.456925427,1.0250306115,1.2749763535,1.0171875735,0.2565175035,0.0477397035,-0.1065198565,0.2876353435,0.7905915135,0.4463022035,0.2877583335,3082,"DG_s15",3.085,3.791,6.023,6.025,18,18,10,10,2.232,"Right",18,18,0,0,0,0,0,0,0,0,0,0,"Equal",8,8,10,18,10,18
"51",2,"LAM7-LAM8",-0.5986861345,-0.5795787345,-0.5008908195,-0.1675815965,-0.245164708,-0.245049612,-0.223364702,-0.38455157,-0.5389132805,-0.5221240915,-0.4675361455,-0.1421406855,0.0444503735,-0.07076097,-0.047302631,3082,"DG_s15",3.085,3.791,6.023,6.025,18,18,10,10,2.232,"Right",18,18,0,0,0,0,0,0,0,0,0,0,"Equal",8,8,10,18,10,18
"52",2,"LHH6-LHH7",-0.60446214335,-0.4601795405,-0.3013374905,-0.1902657025,-0.00382776249999994,0.140609928,0.12968705,0.0769746020000001,-0.311707798,-0.2467842635,-0.1876253475,0.1086381875,0.6190710075,0.5384715125,0.309971995,3082,"DG_s15",3.085,3.791,6.023,6.025,18,18,10,10,2.232,"Right",18,18,0,0,0,0,0,0,0,0,0,0,"Equal",8,8,10,18,10,18
"53",2,"LHH7-LHH8",-0.28001493079,-0.1531768975,0.3194131875,0.9016303325,1.155890983,1.0893185795,0.7492614995,0.2305368495,0.128286799,0.1500414136,0.1166574786,0.4420606836,0.4898575636,0.5366542981,0.4632774231,3082,"DG_s15",3.085,3.791,6.023,6.025,18,18,10,10,2.232,"Right",18,18,0,0,0,0,0,0,0,0,0,0,"Equal",8,8,10,18,10,18
"54",2,"LTT9-LTT10",-1.2441512945,-1.1091041995,-0.90571210525,-0.56058132525,-0.46675215025,-0.43063807025,-0.6629364985,-1.0669647595,-0.8925572345,-0.2075863595,0.4146852745,0.643486738,0.365812188,-0.300565222495,-0.808784032495,3082,"DG_s15",3.085,3.791,6.023,6.025,18,18,10,10,2.232,"Right",18,18,0,0,0,0,0,0,0,0,0,0,"Equal",8,8,10,18,10,18
"55",2,"LAM8-LAM9",-0.3846068475,-0.5798950925,-0.2748623425,-0.3014174395,-0.088785524,-0.209486094,-0.513252214,-0.627342262,-0.7559174175,-0.726493156,-0.847936914,-0.909615214,-0.890267255,-0.971218498,-0.54954872,3082,"DG_s15",3.085,3.791,6.023,6.025,18,18,10,10,2.232,"Right",18,18,0,0,0,0,0,0,0,0,0,0,"Equal",8,8,10,18,10,18
"56",2,"LHB5-LHB6",0.291828345,0.3542184155,0.4411816705,0.312492638,0.252238058,0.041783363,-0.053338552,-0.066029452,-0.135583959,0.030832121,0.330511031,0.259853886,0.348780504,0.361818747,0.179137587,3082,"DG_s15",3.085,3.791,6.023,6.025,18,18,10,10,2.232,"Right",18,18,0,0,0,0,0,0,0,0,0,0,"Equal",8,8,10,18,10,18
"57",2,"LAM9-LAM10",-0.5561810875,-0.2628025075,0.0359694635,0.3703015955,0.7467938105,0.6918173605,0.3747651995,0.1801503405,0.1160803355,0.1991958745,0.50720350365,0.85145793065,0.72097719615,0.82160860715,0.664887086,3082,"DG_s15",3.085,3.791,6.023,6.025,18,18,10,10,2.232,"Right",18,18,0,0,0,0,0,0,0,0,0,0,"Equal",8,8,10,18,10,18
"58",2,"LIP3-LIP4",-0.368114987,-0.1808057585,0.0627940615,0.1908030265,0.0584758055,0.250774452,0.2890857695,0.1379323845,-0.0318491695000001,-0.3910113945,-0.5424172585,-0.5708798385,-0.560630313,-0.304841863,-0.4941684165,3082,"DG_s15",3.085,3.791,6.023,6.025,18,18,10,10,2.232,"Right",18,18,0,0,0,0,0,0,0,0,0,0,"Equal",8,8,10,18,10,18
"59",3,"LAM7-LAM8",-0.2728864434,-0.2134342424,-0.1176143649,0.0587601011,0.3437974111,0.3612813751,0.2010608696,-0.1287926504,-0.3138826004,-0.3532726289,-0.1919476489,-0.1320905539,-0.1372786359,0.1750465876,0.0986453706,3083,"DG_s15",7.026,7.731,9.383,9.385,10,26,10,10,1.652,"Right",10,26,16,16,0,0,16,0,16,0,-16,-16,"Disadvent",0,16,10,10,10,26
"60",3,"LAM2-LAM3",0.126591243,0.0981173175,0.0648294605,0.123146609,0.16548966835,0.08878609935,0.13950546635,-0.03114319215,-0.0656222765,-0.0350876625,-0.2804762725,0.0828019025,0.1576622475,0.3037294175,0.3486574525,3083,"DG_s15",7.026,7.731,9.383,9.385,10,26,10,10,1.652,"Right",10,26,16,16,0,0,16,0,16,0,-16,-16,"Disadvent",0,16,10,10,10,26
"61",3,"LIP8-LIP9",0.2981250895,0.526762618,0.306137053,0.150402684,0.040438406,-0.105158413,0.028155247,0.109199317,0.291578412,0.269754482,0.091443187,0.263745797,0.092069197,0.0613439765,0.322410123,3083,"DG_s15",7.026,7.731,9.383,9.385,10,26,10,10,1.652,"Right",10,26,16,16,0,0,16,0,16,0,-16,-16,"Disadvent",0,16,10,10,10,26
"62",3,"LHH6-LHH7",-0.583030706,-0.444696396,-0.546152161,-0.7024759685,-0.8583366455,-0.8402145335,-0.3178880835,-0.164380351,0.264656454,0.2082278366,-0.0415205579,0.1166428496,-0.1138619904,0.16062193,0.2461984545,3083,"DG_s15",7.026,7.731,9.383,9.385,10,26,10,10,1.652,"Right",10,26,16,16,0,0,16,0,16,0,-16,-16,"Disadvent",0,16,10,10,10,26
"63",3,"LAM4-LAM5",-0.3752134335,-0.561939961,-0.497247731,-0.579070596,-0.625823349,-0.567114049,-0.262095949,-0.044445454,0.149729507,0.23617538,0.19911045,0.184226705,0.251147584,0.445969671,0.161478186,3083,"DG_s15",7.026,7.731,9.383,9.385,10,26,10,10,1.652,"Right",10,26,16,16,0,0,16,0,16,0,-16,-16,"Disadvent",0,16,10,10,10,26
"64",3,"LTT8-LTT9",-0.6722723631,-0.6429604361,-0.5427051936,-0.5023949691,-0.2749121691,-0.1951212811,-0.1408002886,-0.2012312846,-0.52588373755,-0.50221886955,-0.51201016955,-0.33040348355,-0.3639564441,-0.3016208051,-0.1453756251,3083,"DG_s15",7.026,7.731,9.383,9.385,10,26,10,10,1.652,"Right",10,26,16,16,0,0,16,0,16,0,-16,-16,"Disadvent",0,16,10,10,10,26
"65",3,"LHB6-LHB7",-0.412578295,-0.311326885,-0.286476475,-0.31192447565,-0.40856984515,-0.36423844715,-0.22593395715,-0.1880637365,-0.108291985,-0.050767528,-0.198246378,-0.282652513,-0.3466189495,-0.1977751295,0.2209148205,3083,"DG_s15",7.026,7.731,9.383,9.385,10,26,10,10,1.652,"Right",10,26,16,16,0,0,16,0,16,0,-16,-16,"Disadvent",0,16,10,10,10,26
"66",3,"LIP7-LIP8",-0.0172944545,0.1055998485,0.1990538185,0.3243601235,0.3408469915,0.2773810915,0.0693416215,-0.4064763285,-0.424611833,-0.3952100725,-0.1667046165,0.102436073,-0.00528817399999999,-0.0255713145,-0.0369144405,3083,"DG_s15",7.026,7.731,9.383,9.385,10,26,10,10,1.652,"Right",10,26,16,16,0,0,16,0,16,0,-16,-16,"Disadvent",0,16,10,10,10,26
"67",3,"LHB5-LHB6",-0.1321039195,-0.0111603971500001,-0.27581813715,-0.55025966729,-0.91856579179,-0.89912650814,-0.58811084814,-0.5372059535,-0.545749649,-0.43620465,-0.37611611,-0.3615487855,-0.0623732155,0.0285501994999999,-0.1136768605,3083,"DG_s15",7.026,7.731,9.383,9.385,10,26,10,10,1.652,"Right",10,26,16,16,0,0,16,0,16,0,-16,-16,"Disadvent",0,16,10,10,10,26
"68",3,"LAM1-LAM2",-0.0547137195,-0.2489437495,-0.1023051905,-0.2239145095,-0.058418497,0.331093033,0.30152474955,0.22696611455,-0.07592366295,-0.26873089795,-0.5382411195,-0.5063964465,-0.2654216615,0.0155242585,0.2261212635,3083,"DG_s15",7.026,7.731,9.383,9.385,10,26,10,10,1.652,"Right",10,26,16,16,0,0,16,0,16,0,-16,-16,"Disadvent",0,16,10,10,10,26
"69",3,"LHB4-LHB5",0.320878625,0.682323925,0.868507248,0.936699373,0.872924073,0.6750635715,0.8701634685,0.9068399535,0.9299385085,1.181261685,0.8011970758,0.7624850308,0.7009785258,0.47170829295,0.67607162715,3083,"DG_s15",7.026,7.731,9.383,9.385,10,26,10,10,1.652,"Right",10,26,16,16,0,0,16,0,16,0,-16,-16,"Disadvent",0,16,10,10,10,26
"70",3,"LHH5-LHH6",0.1516498235,0.142716497,0.1213753685,-0.11610753485,-0.26095411435,-0.31939480285,0.17255327715,0.2592522205,0.64493984,0.6750406515,0.3197138715,0.2497941165,0.1012349065,0.407828655,0.369237465,3083,"DG_s15",7.026,7.731,9.383,9.385,10,26,10,10,1.652,"Right",10,26,16,16,0,0,16,0,16,0,-16,-16,"Disadvent",0,16,10,10,10,26
"71",3,"LIP5-LIP6",0.423250318,0.248957634,-0.028803546,-0.059563161,-0.2149058445,-0.1350248955,0.000244049499999996,-0.095508875,0.0238139215,0.1292065555,0.0567690305,0.254348186,0.2088846015,-0.062963142,0.243813273,3083,"DG_s15",7.026,7.731,9.383,9.385,10,26,10,10,1.652,"Right",10,26,16,16,0,0,16,0,16,0,-16,-16,"Disadvent",0,16,10,10,10,26
"72",3,"LAM9-LAM10",-0.124546135,-0.415842405,-0.091809395,-0.029359782,-0.217426037,-0.01651538465,-0.17864932115,0.11069521085,0.44462357585,0.6748088305,0.86856195495,0.83106878995,0.81797091195,0.68338422495,0.472473846,3083,"DG_s15",7.026,7.731,9.383,9.385,10,26,10,10,1.652,"Right",10,26,16,16,0,0,16,0,16,0,-16,-16,"Disadvent",0,16,10,10,10,26
"73",3,"LIP1-LIP2",0.0420712285,0.2469199065,0.219693316,0.132019856,-0.0789139135,-0.1999601565,-0.21860278055,-0.19162396055,-0.02803480755,0.07500633495,0.2031458915,0.1535658015,0.2248200235,0.0610985525,-0.0129580395,3083,"DG_s15",7.026,7.731,9.383,9.385,10,26,10,10,1.652,"Right",10,26,16,16,0,0,16,0,16,0,-16,-16,"Disadvent",0,16,10,10,10,26
"74",3,"LHH4-LHH5",0.260120819,0.197976804,0.075502546,0.3395861465,0.5306063145,0.35608944905,0.33126522905,0.04489271705,0.11061246705,0.24742885,0.3820921155,0.3595945855,0.0484903355,0.16309625,-0.1097976055,3083,"DG_s15",7.026,7.731,9.383,9.385,10,26,10,10,1.652,"Right",10,26,16,16,0,0,16,0,16,0,-16,-16,"Disadvent",0,16,10,10,10,26
"75",3,"LHH7-LHH8",-0.059846494,0.212822116,0.287296361,0.519193411,0.56229300915,0.54954709415,0.44979581915,0.44872839415,0.9391919545,1.2637451545,1.4344399595,1.6461834845,1.1604324545,0.7707607095,0.8570165295,3083,"DG_s15",7.026,7.731,9.383,9.385,10,26,10,10,1.652,"Right",10,26,16,16,0,0,16,0,16,0,-16,-16,"Disadvent",0,16,10,10,10,26
"76",3,"LAM3-LAM4",0.777116115,0.6857908825,0.6968945675,0.733020189,0.517569014,0.3964988298,0.3582709198,0.2663412233,0.3854710133,0.6968924845,0.7055693855,0.7349185,0.6449024,0.3330475305,0.3764239995,3083,"DG_s15",7.026,7.731,9.383,9.385,10,26,10,10,1.652,"Right",10,26,16,16,0,0,16,0,16,0,-16,-16,"Disadvent",0,16,10,10,10,26
"77",3,"LIP3-LIP4",-0.1559430605,-0.2697249255,-0.3354882565,-0.2243959396,-0.3032556346,-0.1686492641,0.0441368759,0.00288686699999999,0.018539387,-0.1045091235,-0.4061013085,-0.4418221905,-0.5249351255,-0.5420450305,-0.276262432,3083,"DG_s15",7.026,7.731,9.383,9.385,10,26,10,10,1.652,"Right",10,26,16,16,0,0,16,0,16,0,-16,-16,"Disadvent",0,16,10,10,10,26
"78",3,"LIP6-LIP7",0.116371944,0.060022289,-0.128262331,0.183348523,0.2339991505,0.2844231385,0.32085444805,-0.02688615195,-0.19132707445,-0.01942406745,0.085941651,0.076574906,0.213590581,0.147655771,0.2113279665,3083,"DG_s15",7.026,7.731,9.383,9.385,10,26,10,10,1.652,"Right",10,26,16,16,0,0,16,0,16,0,-16,-16,"Disadvent",0,16,10,10,10,26
"79",3,"LIP4-LIP5",0.1617972195,0.4585988245,0.0995458665,-0.021302665,-0.3506076405,-0.4121344005,-0.0821506005,0.0319233945,0.162457415,-0.1554829545,-0.2849168295,-0.1906443075,-0.39540809835,-0.29655789485,-0.14846735485,3083,"DG_s15",7.026,7.731,9.383,9.385,10,26,10,10,1.652,"Right",10,26,16,16,0,0,16,0,16,0,-16,-16,"Disadvent",0,16,10,10,10,26
"80",3,"LAM8-LAM9",-0.4184573934,-0.5700171584,-0.445447452,-0.26553560535,0.07704717465,0.29851220965,0.16661967715,-0.0175065135,-0.1059970835,-0.056483236,0.0546948375,0.4063123665,0.18177161505,0.36717213255,0.45918029905,3083,"DG_s15",7.026,7.731,9.383,9.385,10,26,10,10,1.652,"Right",10,26,16,16,0,0,16,0,16,0,-16,-16,"Disadvent",0,16,10,10,10,26
"81",3,"LAM5-LAM6",0.0232133155,-0.0407083045,-0.1215374225,0.050553551,0.481472261,0.766378891,1.028685871,0.7402983975,0.4700301325,0.4217374325,0.263487555,0.49111457435,0.47978769035,0.32248144535,0.44806630935,3083,"DG_s15",7.026,7.731,9.383,9.385,10,26,10,10,1.652,"Right",10,26,16,16,0,0,16,0,16,0,-16,-16,"Disadvent",0,16,10,10,10,26
"82",3,"LHB7-LHB8",0.2306693,0.5415377675,0.8238492875,0.8356447996,0.8123359246,0.5919818176,0.4116302986,0.3989129965,0.402400486,0.461410125,0.428957244,0.501615819,0.4149647005,0.4121032615,1.0682190615,3083,"DG_s15",7.026,7.731,9.383,9.385,10,26,10,10,1.652,"Right",10,26,16,16,0,0,16,0,16,0,-16,-16,"Disadvent",0,16,10,10,10,26
"83",3,"LIP2-LIP3",0.02444643895,-0.04780075605,-0.21335159905,-0.48989208505,-0.48178152505,-0.30734247955,-0.05229604455,-0.18010985955,-0.27596187005,-0.28663615805,-0.44015306955,-0.46945724455,-0.41615571805,-0.30504765505,-0.10070517855,3083,"DG_s15",7.026,7.731,9.383,9.385,10,26,10,10,1.652,"Right",10,26,16,16,0,0,16,0,16,0,-16,-16,"Disadvent",0,16,10,10,10,26
"84",3,"LHB9-LHB10",0.4732523892,0.54561370935,0.45297063515,0.51370216315,0.43700236765,0.2725051475,0.4417257567,0.7093492637,0.7969909987,0.9232444547,0.8218781097,0.7578622597,1.0012026097,1.1054988537,1.2039976977,3083,"DG_s15",7.026,7.731,9.383,9.385,10,26,10,10,1.652,"Right",10,26,16,16,0,0,16,0,16,0,-16,-16,"Disadvent",0,16,10,10,10,26
"85",3,"LAM6-LAM7",-0.4823885902,-0.4866498557,-0.3366891807,-0.28492927,-0.310920115,-0.4024870515,-0.3678127215,-0.4687422465,0.0608320535,0.183940825,0.00926881000000002,0.07968627,-0.1760730615,-0.1277072745,-0.1530542145,3083,"DG_s15",7.026,7.731,9.383,9.385,10,26,10,10,1.652,"Right",10,26,16,16,0,0,16,0,16,0,-16,-16,"Disadvent",0,16,10,10,10,26
"86",3,"LHB8-LHB9",0.236132576225,0.294007619725,0.429217969725,0.428304757725,0.674934560725,0.871806732225,0.620041632225,0.674191157225,0.475643029725,0.238136686225,0.159999341225,0.252056580225,0.217389252725,0.247145713275,0.538093738275,3083,"DG_s15",7.026,7.731,9.383,9.385,10,26,10,10,1.652,"Right",10,26,16,16,0,0,16,0,16,0,-16,-16,"Disadvent",0,16,10,10,10,26
"87",3,"LTT9-LTT10",0.0777017074,0.0587515274,-0.0375807076,-0.00767293559999999,0.0302634805,0.3279437455,0.4589824055,0.45310204,0.4983692375,0.3444660575,0.2875989325,0.2925612425,0.3203394635,0.290612316,0.495723011,3083,"DG_s15",7.026,7.731,9.383,9.385,10,26,10,10,1.652,"Right",10,26,16,16,0,0,16,0,16,0,-16,-16,"Disadvent",0,16,10,10,10,26
"88",4,"LAM1-LAM2",-0.07645986965,-0.041664095,-0.064819765,-0.1694503135,-0.4438346335,-0.427959179,-0.248319094,-0.120376704,-0.051512409,0.2483560715,0.1961654275,0.00440618599999998,0.0500449105,0.0756549005,0.022630405,3084,"DG_s15",10.386,11.091,13.747,13.749,16,4,10,10,2.656,"Right",16,4,12,12,0,0,0,-12,0,-12,12,12,"Advent",6,-6,10,16,10,4
"89",4,"LIP1-LIP2",-0.22759906535,-0.37322969035,-0.4179296705,-0.48464936,-0.665013445,-0.6530503375,-0.608936129,-0.664151889,-0.33710207,-0.2345850595,-0.390816983,-0.618578303,-0.604939972,-0.83047106,-0.65381552,3084,"DG_s15",10.386,11.091,13.747,13.749,16,4,10,10,2.656,"Right",16,4,12,12,0,0,0,-12,0,-12,12,12,"Advent",6,-6,10,16,10,4
"90",4,"LHB8-LHB9",-0.132765124495,0.551297325505,0.990464177005,1.211809115505,0.9787714285,0.4469629395,-4.72754999999991e-05,-0.254228466,0.27642767475,0.41466637375,0.30052123875,0.26319984075,-0.19842695,-0.45473211,-0.28605287,3084,"DG_s15",10.386,11.091,13.747,13.749,16,4,10,10,2.656,"Right",16,4,12,12,0,0,0,-12,0,-12,12,12,"Advent",6,-6,10,16,10,4
"91",4,"LIP7-LIP8",0.6289589895,0.2813640165,0.1068224125,0.101343491,0.319021326,0.675394626,1.2101794735,1.095148495,0.860760941,0.772124301,0.169603271,0.147249491,0.1324961,0.27351549,0.34557566,3084,"DG_s15",10.386,11.091,13.747,13.749,16,4,10,10,2.656,"Right",16,4,12,12,0,0,0,-12,0,-12,12,12,"Advent",6,-6,10,16,10,4
"92",4,"LAM7-LAM8",0.456231947,0.7885981125,0.8674518825,0.9357678285,0.497697899,0.482527639,1.027055504,0.777017879,0.893686949,0.5487837949,0.0058965259,-0.0469147606,-0.0590129656,-0.0328927115,0.2298351075,3084,"DG_s15",10.386,11.091,13.747,13.749,16,4,10,10,2.656,"Right",16,4,12,12,0,0,0,-12,0,-12,12,12,"Advent",6,-6,10,16,10,4
"93",4,"LAM2-LAM3",-0.2000879065,-0.2621918565,-0.427781231,-0.853349391,-1.025965441,-1.017305291,-1.088525166,-0.858430631,-0.8269299395,-0.5518283395,-0.0643081895000001,-0.1366092085,-0.0208008000000001,0.26530619,0.16606174,3084,"DG_s15",10.386,11.091,13.747,13.749,16,4,10,10,2.656,"Right",16,4,12,12,0,0,0,-12,0,-12,12,12,"Advent",6,-6,10,16,10,4
"94",4,"LAM5-LAM6",-0.3404728105,-0.3693340505,-0.1567839805,-0.038323067,-0.063748397,-0.055618962,-0.338293231,-0.4583852565,-0.5224248265,-0.6158356565,-0.5215337375,-0.6401696625,-0.8130899225,-0.8393074225,-0.8137109565,3084,"DG_s15",10.386,11.091,13.747,13.749,16,4,10,10,2.656,"Right",16,4,12,12,0,0,0,-12,0,-12,12,12,"Advent",6,-6,10,16,10,4
"95",4,"LAM4-LAM5",1.143333184,1.284527564,1.2586839325,0.8647311475,0.3975227125,0.1651591805,0.332011992,0.319296162,0.413949892,0.418709109,0.103899184,-0.091872021,-0.1696495175,-0.084959776,0.0190522145,3084,"DG_s15",10.386,11.091,13.747,13.749,16,4,10,10,2.656,"Right",16,4,12,12,0,0,0,-12,0,-12,12,12,"Advent",6,-6,10,16,10,4
"96",4,"LAM6-LAM7",-0.19851860975,-0.46281812975,-0.15370095725,-0.10794000025,-0.20360437525,0.25982403975,0.4575402049,0.5906183149,1.1078572149,0.9036968849,0.35075585825,0.19525528375,0.03282823375,-0.08899930375,-0.10242404725,3084,"DG_s15",10.386,11.091,13.747,13.749,16,4,10,10,2.656,"Right",16,4,12,12,0,0,0,-12,0,-12,12,12,"Advent",6,-6,10,16,10,4
"97",4,"LHB9-LHB10",0.371103376,0.6973842585,0.6074571785,0.2907091385,0.033820077,-0.4046488755,-0.5577607455,-0.318730831,-0.3018231845,-0.1334514845,-0.0611579295,-0.0568290805,0.0707754695,0.0413909685,0.3391389635,3084,"DG_s15",10.386,11.091,13.747,13.749,16,4,10,10,2.656,"Right",16,4,12,12,0,0,0,-12,0,-12,12,12,"Advent",6,-6,10,16,10,4
"98",4,"LIP2-LIP3",-0.1184601745,-0.00934557949999999,0.048428299,0.024527864,-0.211948983,-0.281430338,-0.1586310315,-0.0645265275,0.2788142095,0.2469851085,0.165604928,0.0396664465,-0.1022463275,0.1224998185,0.277008854,3084,"DG_s15",10.386,11.091,13.747,13.749,16,4,10,10,2.656,"Right",16,4,12,12,0,0,0,-12,0,-12,12,12,"Advent",6,-6,10,16,10,4
"99",4,"LAM3-LAM4",-0.042608291,-0.116536213,-0.1546325625,-0.2558847075,-0.306230043,-0.13708405195,-0.21825582295,-0.23846012595,-0.19888871545,-0.2719576945,-0.328855084,-0.3085637665,-0.2571954615,-0.2348991625,-0.0082470425,3084,"DG_s15",10.386,11.091,13.747,13.749,16,4,10,10,2.656,"Right",16,4,12,12,0,0,0,-12,0,-12,12,12,"Advent",6,-6,10,16,10,4
"100",4,"LIP5-LIP6",0.693998236,0.317440863,0.40165030585,0.28451309785,0.22681382985,0.34775885985,0.407111047,0.398811365,0.3468952835,0.2126970915,0.16579576965,0.22551737965,0.25542506815,0.26317137315,0.294552753,3084,"DG_s15",10.386,11.091,13.747,13.749,16,4,10,10,2.656,"Right",16,4,12,12,0,0,0,-12,0,-12,12,12,"Advent",6,-6,10,16,10,4
"101",4,"LIP4-LIP5",-0.2424985395,-0.421850948,-0.2398871405,-0.4504127655,-0.5765962155,-0.419496718,-0.154860438,0.126505712,0.1772730025,-0.0638579965,-0.487261965,-0.52972710265,-0.55229825815,-0.56466354815,-0.57471987965,3084,"DG_s15",10.386,11.091,13.747,13.749,16,4,10,10,2.656,"Right",16,4,12,12,0,0,0,-12,0,-12,12,12,"Advent",6,-6,10,16,10,4
"102",4,"LTT8-LTT9",-0.0677278491,-0.00755686355,0.13806909145,0.05069406495,-0.05935738205,-0.10337360705,-0.18358372205,-0.13802454055,-0.07592862355,-0.00601544755000001,-0.00818472805000001,-0.04727762305,-0.23220654805,-0.21589120355,-0.25647996305,3084,"DG_s15",10.386,11.091,13.747,13.749,16,4,10,10,2.656,"Right",16,4,12,12,0,0,0,-12,0,-12,12,12,"Advent",6,-6,10,16,10,4
"103",4,"LHH7-LHH8",-0.01966828285,-0.01264363285,-0.29733675735,-0.09729727435,-0.10428020485,-0.03139166485,0.40754924515,0.22087352565,0.44387486065,0.54882374415,0.36594559415,0.27562873865,0.0573801085,0.280980975,0.371567891,3084,"DG_s15",10.386,11.091,13.747,13.749,16,4,10,10,2.656,"Right",16,4,12,12,0,0,0,-12,0,-12,12,12,"Advent",6,-6,10,16,10,4
"104",4,"LTT9-LTT10",0.7562052935,0.606932219,0.469962614,0.60390746,0.471523005,0.4943151895,0.6518630045,0.7266544485,1.0164950705,0.8865905355,0.5754661255,0.2933342155,0.1738351905,0.409334737,0.602417037,3084,"DG_s15",10.386,11.091,13.747,13.749,16,4,10,10,2.656,"Right",16,4,12,12,0,0,0,-12,0,-12,12,12,"Advent",6,-6,10,16,10,4
"105",4,"LHB5-LHB6",-0.32328447,-0.44660896,-0.60789548,-0.869407641,-0.773648386,-0.467287056,-0.290899936,-0.2410239915,-0.4913132415,-0.5264898215,-0.7068175009,-0.7000281744,-0.5779203094,-0.6590750944,-0.474600955,3084,"DG_s15",10.386,11.091,13.747,13.749,16,4,10,10,2.656,"Right",16,4,12,12,0,0,0,-12,0,-12,12,12,"Advent",6,-6,10,16,10,4
"106",4,"LIP3-LIP4",-1.301134446,-1.207447721,-1.130116536,-0.744676696,-0.481630176,-0.107383721,0.191699504,-0.014970381,-0.097735516,-0.4713349665,-0.84603734015,-0.92544918915,-0.84183607415,-0.81633735265,-0.761127353,3084,"DG_s15",10.386,11.091,13.747,13.749,16,4,10,10,2.656,"Right",16,4,12,12,0,0,0,-12,0,-12,12,12,"Advent",6,-6,10,16,10,4
"107",4,"LHB7-LHB8",0.0885463826,0.4453292186,0.7903302666,1.21268449735,1.34401769,1.06283425,1.0020783,0.775433935,1.271755738,1.291963513,1.0644660805,0.7176923955,0.1083807105,0.0114545305,-0.0607171544999999,3084,"DG_s15",10.386,11.091,13.747,13.749,16,4,10,10,2.656,"Right",16,4,12,12,0,0,0,-12,0,-12,12,12,"Advent",6,-6,10,16,10,4
"108",4,"LHH6-LHH7",0.4709542015,0.3929506665,0.5308708375,0.214080549,0.252637484,0.353471179,0.391199074,0.5966263825,0.6949244225,0.584345144,0.3640746745,0.0607592815,0.0720291465,0.079340706,0.0494057405,3084,"DG_s15",10.386,11.091,13.747,13.749,16,4,10,10,2.656,"Right",16,4,12,12,0,0,0,-12,0,-12,12,12,"Advent",6,-6,10,16,10,4
"109",4,"LAM8-LAM9",-0.210925188,-0.027169297,0.430612308,0.4926972585,0.5083922581,0.4896605646,0.1113090746,-0.1679902254,-0.280334215,-0.3150384375,-0.200124194,0.0250902005,0.16780019,0.543390065,0.8799054565,3084,"DG_s15",10.386,11.091,13.747,13.749,16,4,10,10,2.656,"Right",16,4,12,12,0,0,0,-12,0,-12,12,12,"Advent",6,-6,10,16,10,4
"110",4,"LIP6-LIP7",0.9039491505,0.6131833575,0.4850819975,0.3498230565,0.1492046995,0.3491551425,0.4012256125,0.3464764925,0.133385330255,0.06925990019,0.61593727519,0.93814359519,1.005615983935,1.240049064,1.120231914,3084,"DG_s15",10.386,11.091,13.747,13.749,16,4,10,10,2.656,"Right",16,4,12,12,0,0,0,-12,0,-12,12,12,"Advent",6,-6,10,16,10,4
"111",4,"LHB4-LHB5",-1.1066288955,-0.8946628355,-0.8545270855,-0.7604733775,-0.7528197525,-0.8956088425,-1.2079710275,-1.1785193175,-1.238613177,-1.069115532,-1.113075767,-1.1764405745,-1.0701508882,-1.1586407472,-1.0016883172,3084,"DG_s15",10.386,11.091,13.747,13.749,16,4,10,10,2.656,"Right",16,4,12,12,0,0,0,-12,0,-12,12,12,"Advent",6,-6,10,16,10,4
"112",4,"LHH4-LHH5",-0.1121255765,-0.1807297325,-0.167684533,-0.226140817,-0.596259362,-0.4363622745,-0.3557128395,-0.1920502305,-0.0332376755,-0.217303033,-0.242071074,-0.382574929,-0.505646009,-0.541443209,-0.720603724,3084,"DG_s15",10.386,11.091,13.747,13.749,16,4,10,10,2.656,"Right",16,4,12,12,0,0,0,-12,0,-12,12,12,"Advent",6,-6,10,16,10,4
"113",4,"LIP8-LIP9",1.2424583955,0.9307298475,0.502278536,0.189289267,0.244703659,0.286597577,0.3856489285,0.3628245505,0.0773925285,0.073023797,0.031994087,0.227734166,0.422888546,0.6219571125,0.491335563,3084,"DG_s15",10.386,11.091,13.747,13.749,16,4,10,10,2.656,"Right",16,4,12,12,0,0,0,-12,0,-12,12,12,"Advent",6,-6,10,16,10,4
"114",4,"LHH5-LHH6",-0.33349176865,-0.24311982365,-0.22639780365,-0.64118030365,-1.04250009065,-1.15828771565,-1.13244584465,-0.65654509465,-0.31101533765,-0.38849586265,-0.41622943765,-0.76876527765,-0.85542177065,-0.60091966065,-0.65313744565,3084,"DG_s15",10.386,11.091,13.747,13.749,16,4,10,10,2.656,"Right",16,4,12,12,0,0,0,-12,0,-12,12,12,"Advent",6,-6,10,16,10,4
"115",4,"LAM9-LAM10",0.16144405,0.20869776,0.026158915,-0.05648596,-0.07029587,0.33278683,0.7661909315,0.7402243515,0.7257131755,0.221796174,-0.1029277225,-0.2164992125,-0.0904066915,0.02418851865,0.20765439365,3084,"DG_s15",10.386,11.091,13.747,13.749,16,4,10,10,2.656,"Right",16,4,12,12,0,0,0,-12,0,-12,12,12,"Advent",6,-6,10,16,10,4
"116",4,"LHB6-LHB7",-0.3059881575,-0.388664494,-0.500713294,-0.461478401,-0.245699036,0.060716436,0.668224136,0.6672323675,0.7701438625,0.7755385405,0.3369404905,0.172577271,0.0431413455,-0.1779231995,-0.1635934155,3084,"DG_s15",10.386,11.091,13.747,13.749,16,4,10,10,2.656,"Right",16,4,12,12,0,0,0,-12,0,-12,12,12,"Advent",6,-6,10,16,10,4
"117",5,"LIP8-LIP9",-0.247291189,0.037739328,-0.052349882,-0.285810068,-0.108793466,-0.186431011,-0.1010800805,0.2010017945,0.1303424195,0.0568328995,0.085076084,-0.1263502925,-0.0797758223,-0.2067967073,-0.3246770073,3085,"DG_s15",14.75,15.456,17.897,17.899,10,10,6,6,2.441,"Right",6,6,0,0,0,0,0,0,0,0,0,0,"10-10",4,4,6,10,6,10
"118",5,"LHH7-LHH8",0.1133164435,0.2214185335,0.1651000585,0.150099191,0.160767306,0.236979331,0.112024971,0.1407333835,-0.0851267115,-0.4565862865,-0.2871683215,-0.2407636565,-0.05892460915,0.15292214585,0.06455349235,3085,"DG_s15",14.75,15.456,17.897,17.899,10,10,6,6,2.441,"Right",6,6,0,0,0,0,0,0,0,0,0,0,"10-10",4,4,6,10,6,10
"119",5,"LAM5-LAM6",0.050364702,-0.235931205,-0.3401996125,-0.284464171,-0.3750545595,0.0778422305,0.00817604399999999,0.00256955250000002,-0.1541533325,-0.4996162425,-0.567098787,-0.5820286605,-0.445409904,-0.571466134,-0.416426339,3085,"DG_s15",14.75,15.456,17.897,17.899,10,10,6,6,2.441,"Right",6,6,0,0,0,0,0,0,0,0,0,0,"10-10",4,4,6,10,6,10
"120",5,"LAM2-LAM3",0.60028172605,0.593575343,0.291426776,0.3673867385,0.4087000935,0.295041088,0.255799055,0.156960005,0.2435308525,0.18057403175,0.52975285875,0.41580760875,0.03560120375,0.4086786535,0.0952508305,3085,"DG_s15",14.75,15.456,17.897,17.899,10,10,6,6,2.441,"Right",6,6,0,0,0,0,0,0,0,0,0,0,"10-10",4,4,6,10,6,10
"121",5,"LIP6-LIP7",0.479792742,0.014088272,-0.2060492875,-0.38469443,-0.4777276465,-0.2929863915,-0.1570756825,0.0780940375,0.1127889225,0.2626561075,0.232446085,0.147555245,0.049740105,-0.206376535,-0.0856771585,3085,"DG_s15",14.75,15.456,17.897,17.899,10,10,6,6,2.441,"Right",6,6,0,0,0,0,0,0,0,0,0,0,"10-10",4,4,6,10,6,10
"122",5,"LAM9-LAM10",0.3366538345,0.30487096844,0.28885832394,0.06083588894,-0.00996430106,-0.039605841,-0.1968517205,-0.2512778355,-0.26114786785,-0.37254883685,-0.13965297985,-0.00626009484999999,0.2722020775,0.4561047245,0.350469083,3085,"DG_s15",14.75,15.456,17.897,17.899,10,10,6,6,2.441,"Right",6,6,0,0,0,0,0,0,0,0,0,0,"10-10",4,4,6,10,6,10
"123",5,"LIP4-LIP5",-1.2341102505,-1.3339157125,-1.2491467325,-1.0174166955,-0.9948984255,-0.8115555585,-0.6689201085,-0.6299504205,-0.3865016505,-0.6897836305,-1.0465514805,-1.1033076845,-1.0437303245,-1.0872006851,-0.9486191851,3085,"DG_s15",14.75,15.456,17.897,17.899,10,10,6,6,2.441,"Right",6,6,0,0,0,0,0,0,0,0,0,0,"10-10",4,4,6,10,6,10
"124",5,"LHH6-LHH7",0.9722724978,0.3883323363,-0.2759510087,-0.448519343,-0.0966508685,0.507370398,0.685892088,0.8772053365,0.637598702,-0.019143173,0.369684462,0.607519122,0.6371706365,0.8040843715,0.2618254765,3085,"DG_s15",14.75,15.456,17.897,17.899,10,10,6,6,2.441,"Right",6,6,0,0,0,0,0,0,0,0,0,0,"10-10",4,4,6,10,6,10
"125",5,"LIP7-LIP8",-0.2465815895,-0.0814782825,-0.063306329,-0.17860248695,-0.33345519545,-0.30453877195,-0.29034921695,-0.318595389,0.078080986,0.1141627705,0.1426359005,0.380090044,0.1054416465,0.2702800815,0.3642253265,3085,"DG_s15",14.75,15.456,17.897,17.899,10,10,6,6,2.441,"Right",6,6,0,0,0,0,0,0,0,0,0,0,"10-10",4,4,6,10,6,10
"126",5,"LIP1-LIP2",0.3851216585,0.260626439,-0.087009111,0.048236484,0.245696977,0.406774335,0.607206163,0.497076023,0.654468248,0.637206693,0.514438365,0.29268268,0.21040336,0.049399115,-0.157638885,3085,"DG_s15",14.75,15.456,17.897,17.899,10,10,6,6,2.441,"Right",6,6,0,0,0,0,0,0,0,0,0,0,"10-10",4,4,6,10,6,10
"127",5,"LAM1-LAM2",-0.1299222225,-0.0230158975,-0.071942897,-0.064352383,-0.078155883,-0.113539128,-0.14124347815,-0.18567773715,0.09106511785,-0.07382685215,0.134086869645,0.229462603145,0.046293818145,0.432522668145,0.4134883015,3085,"DG_s15",14.75,15.456,17.897,17.899,10,10,6,6,2.441,"Right",6,6,0,0,0,0,0,0,0,0,0,0,"10-10",4,4,6,10,6,10
"128",5,"LAM4-LAM5",0.412786032,-0.245748498,-0.55423734125,-0.33716017775,-0.30367588425,-0.09703355425,-0.0914260165,-0.3018418115,-0.4276545665,-0.8187337915,-1.086030761,-1.177117106,-1.259376186,-1.105969571,-0.909947881,3085,"DG_s15",14.75,15.456,17.897,17.899,10,10,6,6,2.441,"Right",6,6,0,0,0,0,0,0,0,0,0,0,"10-10",4,4,6,10,6,10
"129",5,"LIP5-LIP6",0.327317218,0.2246374375,0.369035987,0.5823578885,0.374557271,0.4242952715,0.4649351395,0.116228238,0.010416188,0.233498262,-0.084352462,-0.026048427,0.105574523,-0.1278999025,0.4893000435,3085,"DG_s15",14.75,15.456,17.897,17.899,10,10,6,6,2.441,"Right",6,6,0,0,0,0,0,0,0,0,0,0,"10-10",4,4,6,10,6,10
"130",5,"LIP2-LIP3",0.081525555,0.140161251,0.0934923165,-0.0324960035,-0.0033957305,-0.1872037305,-0.3053657505,-0.5274747805,-0.561585622,-0.388692606,-0.027833471,0.181114339,0.206274792,0.259879583,-0.100480412,3085,"DG_s15",14.75,15.456,17.897,17.899,10,10,6,6,2.441,"Right",6,6,0,0,0,0,0,0,0,0,0,0,"10-10",4,4,6,10,6,10
"131",5,"LAM7-LAM8",0.2097528595,0.153704465,0.07816873,0.274853505,0.473575609,0.5674469585,0.3764455435,0.0189886835,-0.2206871115,-0.4085783715,-0.2248063715,-0.047022508,0.131951672,0.405312407,0.546010907,3085,"DG_s15",14.75,15.456,17.897,17.899,10,10,6,6,2.441,"Right",6,6,0,0,0,0,0,0,0,0,0,0,"10-10",4,4,6,10,6,10
"132",5,"LHB8-LHB9",-0.4635593719,-0.1597684819,0.0329854946,0.1231505716,0.0572519166,-0.2507380884,-0.5584264834,-0.4326260784,-0.2559178914,-0.3009984149,-0.1253573984,-0.2822497839,-0.5171233209,-0.3987893979,-0.5221518584,3085,"DG_s15",14.75,15.456,17.897,17.899,10,10,6,6,2.441,"Right",6,6,0,0,0,0,0,0,0,0,0,0,"10-10",4,4,6,10,6,10
"133",5,"LHB4-LHB5",-0.364403237,-0.529847672,-0.424940592,-0.366631792,-0.1020337715,0.0202210235,-0.01130142215,0.22536559785,0.01681190235,-0.00128763765000001,-0.0317248175,-0.3040794375,-0.2405662425,-0.0346904475,0.002977201,3085,"DG_s15",14.75,15.456,17.897,17.899,10,10,6,6,2.441,"Right",6,6,0,0,0,0,0,0,0,0,0,0,"10-10",4,4,6,10,6,10
"134",5,"LAM8-LAM9",0.04438001605,0.15779934805,0.45353507805,0.73371611005,0.741147497,0.639918465,0.33098965,-0.059824861,-0.253173601,-0.142731816,-0.0753745175,0.2780656325,1.0178569825,1.3202822625,1.291011054,3085,"DG_s15",14.75,15.456,17.897,17.899,10,10,6,6,2.441,"Right",6,6,0,0,0,0,0,0,0,0,0,0,"10-10",4,4,6,10,6,10
"135",5,"LHB9-LHB10",0.56908767065,0.08534500715,-0.058382752,-0.003336802,-0.0680138185,0.022459145,0.195670115,-0.109619224,-0.025920788,-0.185364688,-0.246312878,-0.129192184,-0.341920615,-0.2860025541,-0.5209096491,3085,"DG_s15",14.75,15.456,17.897,17.899,10,10,6,6,2.441,"Right",6,6,0,0,0,0,0,0,0,0,0,0,"10-10",4,4,6,10,6,10
"136",5,"LHB6-LHB7",0.521688949,0.333573079,0.045726984,-0.034353956,-0.059362661,0.167131944,0.19360027385,0.25465868035,0.38976394035,0.25625939835,0.2351447135,0.443352652,0.283606362,0.069292929,0.1107895435,3085,"DG_s15",14.75,15.456,17.897,17.899,10,10,6,6,2.441,"Right",6,6,0,0,0,0,0,0,0,0,0,0,"10-10",4,4,6,10,6,10
"137",5,"LHB5-LHB6",0.304349057,0.257528035,-0.11901456,-0.223998045,-0.092884595,0.0342058285,0.2714566635,0.6288895535,0.7240525035,0.847918106,0.868459706,0.760069521,0.7922800006,0.9985148296,1.0692813926,3085,"DG_s15",14.75,15.456,17.897,17.899,10,10,6,6,2.441,"Right",6,6,0,0,0,0,0,0,0,0,0,0,"10-10",4,4,6,10,6,10
"138",5,"LIP3-LIP4",-0.119290369,0.1099790415,0.4346978315,0.7465020385,0.5573368425,0.364714392,0.2502629585,0.2198463315,0.5890605515,0.7271985065,0.69130889,0.49920128,0.3369339255,0.150533149,0.122101631,3085,"DG_s15",14.75,15.456,17.897,17.899,10,10,6,6,2.441,"Right",6,6,0,0,0,0,0,0,0,0,0,0,"10-10",4,4,6,10,6,10
"139",5,"LAM6-LAM7",0.859369771,0.745266136,0.210143071,-0.102943679,0.1152412205,0.3704581855,0.3245061305,0.2472526105,-0.0521791745,-0.6175849395,-0.2862263445,-0.03991353,0.48801394,0.7801859225,0.631173156,3085,"DG_s15",14.75,15.456,17.897,17.899,10,10,6,6,2.441,"Right",6,6,0,0,0,0,0,0,0,0,0,0,"10-10",4,4,6,10,6,10
"140",5,"LHH4-LHH5",0.9599421855,0.662188313,0.279892563,-0.082188437,-0.371402667,-0.2826518495,-0.002787509,0.405103091,0.307922461,0.287093331,0.0848219105,-0.0230868545,0.4637621555,0.4749792205,0.5773237555,3085,"DG_s15",14.75,15.456,17.897,17.899,10,10,6,6,2.441,"Right",6,6,0,0,0,0,0,0,0,0,0,0,"10-10",4,4,6,10,6,10
"141",5,"LHH5-LHH6",1.0576159465,0.4476581465,-0.1072954535,-0.2719658835,0.011737075,0.30905784,0.5185066975,0.7135469275,0.4918055775,0.4841219875,0.44623215,0.24314902,0.185045621,0.577046396,0.5023098655,3085,"DG_s15",14.75,15.456,17.897,17.899,10,10,6,6,2.441,"Right",6,6,0,0,0,0,0,0,0,0,0,0,"10-10",4,4,6,10,6,10
"142",5,"LAM3-LAM4",-0.3987383745,-0.3279987695,-0.3378975755,-0.2412861855,-0.126652106,-0.109298901,-0.1563873295,-0.1393418995,-0.3019310374,-0.4786210974,-0.4255312579,-0.2587919029,0.005175515,0.29700297,0.30868079,3085,"DG_s15",14.75,15.456,17.897,17.899,10,10,6,6,2.441,"Right",6,6,0,0,0,0,0,0,0,0,0,0,"10-10",4,4,6,10,6,10
"143",5,"LTT8-LTT9",0.4153223225,0.1991288125,0.549707464,0.634127024,0.724707774,0.8778911115,0.6057328066,0.4186114341,0.1795834591,0.1568299666,0.032228936,-0.1111107165,0.1118986035,0.0983115835,0.163837698,3085,"DG_s15",14.75,15.456,17.897,17.899,10,10,6,6,2.441,"Right",6,6,0,0,0,0,0,0,0,0,0,0,"10-10",4,4,6,10,6,10
"144",5,"LHB7-LHB8",0.3873871705,0.492984844,0.6017244785,0.6463007575,0.6647913475,0.547979439,0.356188909,0.2915492425,0.3212202451,0.1193139751,0.0930464701,0.2333885276,0.3961718075,0.3651633575,0.4688474975,3085,"DG_s15",14.75,15.456,17.897,17.899,10,10,6,6,2.441,"Right",6,6,0,0,0,0,0,0,0,0,0,0,"10-10",4,4,6,10,6,10
"145",5,"LTT9-LTT10",0.1542738165,0.06928825,0.0018670915,-0.248672309,-0.222159444,-0.235262654,-0.263364593,-0.1512834255,0.06265994,-0.038909235,-0.0625775325,-0.1292615343,-0.3624368748,-0.1298895413,-0.2710357263,3085,"DG_s15",14.75,15.456,17.897,17.899,10,10,6,6,2.441,"Right",6,6,0,0,0,0,0,0,0,0,0,0,"10-10",4,4,6,10,6,10
"146",6,"LTT9-LTT10",0.3994559095,0.1431990995,0.0142379015,0.2163422015,0.3967112115,0.2577987815,0.1854749105,-0.2159202895,-0.1540756595,-0.1295731695,-0.09032261,-0.0693515015,0.2613597835,0.3571077385,0.666767698,3086,"DG_s15",18.9,19.605,22.571,22.573,10,10,8,11,2.966,"Right",8,11,3,0,3,3,3,0,0,0,-3,0,"10-10",2,-1,8,10,11,10
"147",6,"LHB6-LHB7",0.7845120365,0.8808140035,0.7517258995,0.6261660945,0.4191868905,0.4634926945,0.7346047295,0.8969696945,0.8921679185,0.8181074375,0.8256697375,0.726990064,0.600937517,0.593487117,0.322835159,3086,"DG_s15",18.9,19.605,22.571,22.573,10,10,8,11,2.966,"Right",8,11,3,0,3,3,3,0,0,0,-3,0,"10-10",2,-1,8,10,11,10
"148",6,"LHB5-LHB6",-0.0755450735,-0.0250983435,-0.018487527,0.178810966,0.200593465,0.22428235,0.2776359235,0.0388577605,0.0432835265,0.004774211,-0.092953669,0.2480221095,0.5572096895,0.57021438,0.55507439,3086,"DG_s15",18.9,19.605,22.571,22.573,10,10,8,11,2.966,"Right",8,11,3,0,3,3,3,0,0,0,-3,0,"10-10",2,-1,8,10,11,10
"149",6,"LIP1-LIP2",-0.314799136,-0.201176374,0.215801876,0.2367253295,0.439039708,0.220818501,-0.048778742,0.024653073,-0.1211082805,0.1958767495,0.3922852325,0.3653493525,0.4806861075,0.3485133475,0.2130017095,3086,"DG_s15",18.9,19.605,22.571,22.573,10,10,8,11,2.966,"Right",8,11,3,0,3,3,3,0,0,0,-3,0,"10-10",2,-1,8,10,11,10
"150",6,"LHH6-LHH7",0.262256537,0.2658302805,0.481020149,0.569678175,0.48830173,0.823523501,0.812379091,0.775022945,0.7196013715,0.2963821715,0.12487841,0.058656125,0.4772957435,0.5672535535,0.47166116,3086,"DG_s15",18.9,19.605,22.571,22.573,10,10,8,11,2.966,"Right",8,11,3,0,3,3,3,0,0,0,-3,0,"10-10",2,-1,8,10,11,10
"151",6,"LIP7-LIP8",-0.002508818,0.3196503675,0.424972856,0.246352296,0.2222341205,0.0070987645,0.1842483155,0.1685081055,0.235101531,0.197086778,-0.009957948,-0.141918513,-0.1448213975,-0.2314851835,-0.2605660885,3086,"DG_s15",18.9,19.605,22.571,22.573,10,10,8,11,2.966,"Right",8,11,3,0,3,3,3,0,0,0,-3,0,"10-10",2,-1,8,10,11,10
"152",6,"LHH4-LHH5",-0.555492414,-0.656651158,-0.632045173,-0.45984065575,-0.13552249075,0.11687756825,0.35043324825,0.2394337775,0.079400415,-0.11714316,-0.182302105,-0.0567096855,0.0644389875,0.1424026005,-0.0705685385,3086,"DG_s15",18.9,19.605,22.571,22.573,10,10,8,11,2.966,"Right",8,11,3,0,3,3,3,0,0,0,-3,0,"10-10",2,-1,8,10,11,10
"153",6,"LHB7-LHB8",0.1499735877,0.2460374642,-0.0181212158,0.0493194502,-0.0708391498,-0.0983207483,0.2244617317,0.1296514457,0.4059806257,0.4905154682,0.4664961682,0.7347016082,0.9625199532,1.0928106197,0.9965021997,3086,"DG_s15",18.9,19.605,22.571,22.573,10,10,8,11,2.966,"Right",8,11,3,0,3,3,3,0,0,0,-3,0,"10-10",2,-1,8,10,11,10
"154",6,"LIP5-LIP6",0.5054645747,0.4996688869,0.4902912179,0.5856467397,0.6864764967,0.5038004595,0.8490049835,0.8477025665,1.0927402215,1.2616887565,1.1090267315,0.872188692,0.592334105,0.215913095,0.09370062,3086,"DG_s15",18.9,19.605,22.571,22.573,10,10,8,11,2.966,"Right",8,11,3,0,3,3,3,0,0,0,-3,0,"10-10",2,-1,8,10,11,10
"155",6,"LTT8-LTT9",0.964166572,0.888458156,0.7006966703,0.6219696453,0.6357502153,0.5474275778,0.515415662,0.308006432,0.262566587,0.3346727355,0.383005993,0.51920086602,1.09714785102,1.06481697102,1.21346075352,3086,"DG_s15",18.9,19.605,22.571,22.573,10,10,8,11,2.966,"Right",8,11,3,0,3,3,3,0,0,0,-3,0,"10-10",2,-1,8,10,11,10
"156",6,"LIP8-LIP9",0.245902964,0.137511673,0.362351578,-0.038641511,-0.165060451,-0.063163776,-0.02462720775,0.40444002625,0.53870542625,0.92637262425,0.687768791,0.532800286,0.475358721,0.250753438,0.516552033,3086,"DG_s15",18.9,19.605,22.571,22.573,10,10,8,11,2.966,"Right",8,11,3,0,3,3,3,0,0,0,-3,0,"10-10",2,-1,8,10,11,10
"157",6,"LAM6-LAM7",0.306568459,-0.037222561,0.1343860915,0.181388485,0.35648745,0.62716402,0.85021947,1.1684416,0.915500958,0.683118938,0.314987672,0.207184507,0.489854379,0.6022488595,0.588983419,3086,"DG_s15",18.9,19.605,22.571,22.573,10,10,8,11,2.966,"Right",8,11,3,0,3,3,3,0,0,0,-3,0,"10-10",2,-1,8,10,11,10
"158",6,"LHB8-LHB9",-0.2992034783,-0.2297923493,-0.2262958993,-0.3206133143,-0.3121202643,-0.3102668833,0.1585786167,0.3558140317,0.3278737517,0.2318005282,-0.2104517068,-0.1381842668,0.2564251932,0.6096064267,0.7362496952,3086,"DG_s15",18.9,19.605,22.571,22.573,10,10,8,11,2.966,"Right",8,11,3,0,3,3,3,0,0,0,-3,0,"10-10",2,-1,8,10,11,10
"159",6,"LAM7-LAM8",-0.0391423265,-0.024907773,0.128571582,-0.035700753,-0.0032819855,0.0537485935,0.1462819535,0.1895070535,0.0413948545,-0.1548196205,-0.4705492605,-0.5067434265,-0.2263415885,-0.205812018,-0.1077331555,3086,"DG_s15",18.9,19.605,22.571,22.573,10,10,8,11,2.966,"Right",8,11,3,0,3,3,3,0,0,0,-3,0,"10-10",2,-1,8,10,11,10
"160",6,"LAM9-LAM10",0.148339825,-0.17793929845,-0.0405011864,-0.0406353864,-0.0313807254,-0.00144890395000001,0.008703824,0.010010714,0.099570517,0.0553257265,0.0353070565,0.3823373715,0.3662565235,0.3431448085,0.4082617235,3086,"DG_s15",18.9,19.605,22.571,22.573,10,10,8,11,2.966,"Right",8,11,3,0,3,3,3,0,0,0,-3,0,"10-10",2,-1,8,10,11,10
"161",6,"LIP3-LIP4",-0.22332159535,-0.23735853785,-0.42259692135,-0.47454639785,-0.52914241785,-0.59064126285,-0.29950334435,-0.3461171169,-0.1879689169,-0.2549875869,-0.3674166224,0.02109335665,-0.12431674835,-0.19621271835,-0.19462435285,3086,"DG_s15",18.9,19.605,22.571,22.573,10,10,8,11,2.966,"Right",8,11,3,0,3,3,3,0,0,0,-3,0,"10-10",2,-1,8,10,11,10
"162",6,"LHH7-LHH8",1.424464525,1.70693167,1.90676753,1.55005657475,1.04985413125,1.13375728125,1.24547818125,1.4099026465,1.1883687335,0.8536748625,0.6050992135,0.5578026745,0.523907656,0.367532377,0.301491684,3086,"DG_s15",18.9,19.605,22.571,22.573,10,10,8,11,2.966,"Right",8,11,3,0,3,3,3,0,0,0,-3,0,"10-10",2,-1,8,10,11,10
"163",6,"LHB4-LHB5",0.253130144,0.111891694,0.00933057194999998,0.37584239695,0.33397429545,0.54559738345,0.709871966,0.351008803,0.3195796905,0.2377449275,0.369670082,0.88012942,1.039109085,0.966653795,0.866693793,3086,"DG_s15",18.9,19.605,22.571,22.573,10,10,8,11,2.966,"Right",8,11,3,0,3,3,3,0,0,0,-3,0,"10-10",2,-1,8,10,11,10
"164",6,"LHB9-LHB10",-0.03270862075,-0.28035478575,-0.23002416075,-0.04242225575,-0.15608374075,-0.15423335075,-0.12591852075,-0.26267466575,0.15103861925,0.19854997775,0.11225853575,0.08736826075,-0.24232337425,-0.14377180775,0.25228151925,3086,"DG_s15",18.9,19.605,22.571,22.573,10,10,8,11,2.966,"Right",8,11,3,0,3,3,3,0,0,0,-3,0,"10-10",2,-1,8,10,11,10
"165",6,"LIP4-LIP5",-0.0748090238,0.121624414,0.1650719559,0.1761617659,-0.2217013696,-0.5427784946,-0.595812326,-0.447934677,-0.2908114665,-0.0140591265,-0.1261511115,-0.1710148105,-0.1850494405,-0.3434448095,-0.157835485,3086,"DG_s15",18.9,19.605,22.571,22.573,10,10,8,11,2.966,"Right",8,11,3,0,3,3,3,0,0,0,-3,0,"10-10",2,-1,8,10,11,10
"166",6,"LAM4-LAM5",0.0603625635,0.2514583585,0.2575853085,0.322502695,0.420404465,0.382688622,0.513980372,0.49884007055,0.34103238555,0.23118633855,-0.27651255645,-0.045335605,0.472410815,0.43445837,0.590823255,3086,"DG_s15",18.9,19.605,22.571,22.573,10,10,8,11,2.966,"Right",8,11,3,0,3,3,3,0,0,0,-3,0,"10-10",2,-1,8,10,11,10
"167",6,"LAM1-LAM2",-0.60164280815,-0.6480905518,-0.6652607883,-0.7242998183,-0.5758643968,-0.3939646415,-0.2522206385,-0.0771060135,-0.16628564,-0.14312102,-0.272375858,-0.086779318,0.077278682,0.464097212,0.653247327,3086,"DG_s15",18.9,19.605,22.571,22.573,10,10,8,11,2.966,"Right",8,11,3,0,3,3,3,0,0,0,-3,0,"10-10",2,-1,8,10,11,10
"168",6,"LAM5-LAM6",-0.05259399305,-0.27229618005,-0.09206071055,0.07552459345,0.2318909915,0.3904461465,0.145208945,0.1106995985,-0.0187980965,-0.1641755015,-0.31889742,-0.2623359035,-0.1996134085,-0.106095774,-0.139546059,3086,"DG_s15",18.9,19.605,22.571,22.573,10,10,8,11,2.966,"Right",8,11,3,0,3,3,3,0,0,0,-3,0,"10-10",2,-1,8,10,11,10
"169",6,"LAM3-LAM4",-0.1778601825,-0.1298879775,-0.0626288851,0.0746187064,-0.2839652936,-0.3917587305,-0.4133083104,-0.5067195754,-0.1262187304,0.0282017165,-0.037602846,0.0800676545,0.6492917595,0.9419285095,1.104858868,3086,"DG_s15",18.9,19.605,22.571,22.573,10,10,8,11,2.966,"Right",8,11,3,0,3,3,3,0,0,0,-3,0,"10-10",2,-1,8,10,11,10
"170",6,"LIP2-LIP3",0.0242606215,0.2512765595,0.3277909595,0.2564665845,-0.0603196305,-0.3164293185,-0.4240704685,-0.2176585535,-0.1500248845,0.2675964655,0.4007765755,0.2955725305,0.2583427375,-0.0144654475,-0.1323048275,3086,"DG_s15",18.9,19.605,22.571,22.573,10,10,8,11,2.966,"Right",8,11,3,0,3,3,3,0,0,0,-3,0,"10-10",2,-1,8,10,11,10
"171",6,"LAM2-LAM3",-1.5843004305,-1.4839563205,-1.3696344105,-1.34044658,-1.160934315,-1.211426275,-1.08389856,-1.0862888365,-1.0515200615,-1.046358849,-1.104252999,-0.8201624675,-1.0410931775,-0.73539989,-0.547384465,3086,"DG_s15",18.9,19.605,22.571,22.573,10,10,8,11,2.966,"Right",8,11,3,0,3,3,3,0,0,0,-3,0,"10-10",2,-1,8,10,11,10
"172",6,"LHH5-LHH6",-0.0368106295,-0.2332263365,-0.109169173,-0.007263823,0.032176402,0.219706657,0.1451526635,-0.0747661205,-0.0389240815,-0.174087390325,-0.248291835325,0.116697598675,0.193486139175,0.085691293,0.166959393,3086,"DG_s15",18.9,19.605,22.571,22.573,10,10,8,11,2.966,"Right",8,11,3,0,3,3,3,0,0,0,-3,0,"10-10",2,-1,8,10,11,10
"173",6,"LIP6-LIP7",0.121219378,0.2907432305,0.205553794,0.35353382,0.127542925,0.361057105,0.907332955,1.061098019,1.124498677,0.993320607,0.5925199035,0.4219279585,0.5229850265,0.297847888,0.2746147695,3086,"DG_s15",18.9,19.605,22.571,22.573,10,10,8,11,2.966,"Right",8,11,3,0,3,3,3,0,0,0,-3,0,"10-10",2,-1,8,10,11,10
"174",6,"LAM8-LAM9",0.32780995655,0.45835659655,0.45924821505,0.46654003005,0.4890528955,0.685481938,0.923164708,1.202950128,0.960424523,0.500019987,0.182545872,-0.078477433,0.323745741,0.407949952,0.362684487,3086,"DG_s15",18.9,19.605,22.571,22.573,10,10,8,11,2.966,"Right",8,11,3,0,3,3,3,0,0,0,-3,0,"10-10",2,-1,8,10,11,10
"175",7,"LTT9-LTT10",-0.462103462,-0.392828874,-0.2830059955,-0.2121375215,-0.128375429,-0.124813848,0.00834138699999998,-0.078320127,-0.2842745395,-0.5559731785,-0.8631254415,-0.8934437315,-0.5211096815,0.1942596185,0.3902701465,3087,"DG_s15",23.575,24.28,26.332,26.334,28,4,10,10,2.052,"Left",28,4,24,24,0,0,0,-24,0,-24,24,24,"Advent",18,-6,28,10,4,10
"176",7,"LAM7-LAM8",0.226262202,-0.0913675215,-0.108810773,-0.548215033,-0.51230022,-0.510976215,-0.266598952,-0.025855563,-0.0082136015,-0.00768725649999996,-0.1713209165,-0.3591869605,-0.2017403005,0.3135880495,0.315845283,3087,"DG_s15",23.575,24.28,26.332,26.334,28,4,10,10,2.052,"Left",28,4,24,24,0,0,0,-24,0,-24,24,24,"Advent",18,-6,28,10,4,10
"177",7,"LIP6-LIP7",0.761543238,0.586524068,0.23985873415,0.29072731515,-0.08670357485,-0.34595908485,-0.573594021,-0.49144982,-0.45675079,-0.375785352,-0.138967742,-0.238837962,-0.176024507,0.155319565,0.0502861,3087,"DG_s15",23.575,24.28,26.332,26.334,28,4,10,10,2.052,"Left",28,4,24,24,0,0,0,-24,0,-24,24,24,"Advent",18,-6,28,10,4,10
"178",7,"LAM9-LAM10",0.9800242685,0.4650923551,0.2839487121,0.1651675501,-0.1090951999,-0.0138967415,0.2334329335,0.33172405765,0.17039645265,0.22928062265,0.22065666665,0.4274988825,1.2633113525,1.5528884425,1.5814791335,3087,"DG_s15",23.575,24.28,26.332,26.334,28,4,10,10,2.052,"Left",28,4,24,24,0,0,0,-24,0,-24,24,24,"Advent",18,-6,28,10,4,10
"179",7,"LIP2-LIP3",0.2331939985,-0.0486691515,-0.083238741,-0.216094553,-0.0620957005,0.3012680495,0.332800502,0.621052364,0.6294021562,0.3242054212,0.1746041437,0.11155124455,0.48180184985,0.70669000485,0.88905361985,3087,"DG_s15",23.575,24.28,26.332,26.334,28,4,10,10,2.052,"Left",28,4,24,24,0,0,0,-24,0,-24,24,24,"Advent",18,-6,28,10,4,10
"180",7,"LAM4-LAM5",-0.01384499785,-0.01464806085,0.14359229565,0.27071525115,0.21400444615,0.02671405915,0.10720624135,-0.07521357265,0.08693377735,0.21111814235,0.05336980765,0.05806680665,-0.0520333823,0.1045845877,0.0801531787,3087,"DG_s15",23.575,24.28,26.332,26.334,28,4,10,10,2.052,"Left",28,4,24,24,0,0,0,-24,0,-24,24,24,"Advent",18,-6,28,10,4,10
"181",7,"LHH4-LHH5",-0.282199183,-0.386620304,-0.241648704,-0.160487841,-0.2777443665,-0.3320107805,-0.2900996205,-0.3720855735,-0.428234303,-0.253569188,-0.404513248,-0.235493903,-0.073188508,-0.1900661865,0.0129876035,3087,"DG_s15",23.575,24.28,26.332,26.334,28,4,10,10,2.052,"Left",28,4,24,24,0,0,0,-24,0,-24,24,24,"Advent",18,-6,28,10,4,10
"182",7,"LAM8-LAM9",0.9650543785,0.4836339085,0.3359698885,-0.038885222,0.04349019525,0.31781813395,0.40812151895,0.39441766995,0.26156660995,0.27905539625,0.48674421125,0.73440289075,1.06472820575,1.25476462575,1.23915406575,3087,"DG_s15",23.575,24.28,26.332,26.334,28,4,10,10,2.052,"Left",28,4,24,24,0,0,0,-24,0,-24,24,24,"Advent",18,-6,28,10,4,10
"183",7,"LAM2-LAM3",-0.506272735625,-0.373809682625,-0.472902319125,-0.300038809125,-0.112696425375,-0.101149030375,-0.073553433875,0.001072786125,-0.260992813875,-0.291095458875,-0.209304343875,-0.360815108875,-0.322556703875,-0.340408808875,-0.189060148875,3087,"DG_s15",23.575,24.28,26.332,26.334,28,4,10,10,2.052,"Left",28,4,24,24,0,0,0,-24,0,-24,24,24,"Advent",18,-6,28,10,4,10
"184",7,"LIP4-LIP5",0.21751524,0.30523033,0.784364795,0.832158662,0.626653447,0.3190812751,-0.2869837199,-0.2813990869,0.0567436631,-0.00545432999999999,0.01875666,0.1261404934,-0.3138739066,-0.0990042416,0.1370438084,3087,"DG_s15",23.575,24.28,26.332,26.334,28,4,10,10,2.052,"Left",28,4,24,24,0,0,0,-24,0,-24,24,24,"Advent",18,-6,28,10,4,10
"185",7,"LTT8-LTT9",0.3962370465,0.7115383025,0.8415681875,0.9046522155,0.9358274455,0.7531522395,0.6491220995,0.7190817515,1.188519775,1.2042951575,1.3332577275,1.1457434365,0.537570938,0.6055385055,0.7247197905,3087,"DG_s15",23.575,24.28,26.332,26.334,28,4,10,10,2.052,"Left",28,4,24,24,0,0,0,-24,0,-24,24,24,"Advent",18,-6,28,10,4,10
"186",7,"LHB4-LHB5",-0.605986669,-0.437804834,-0.3114141005,0.0456800495,0.033147823,-0.200709422,-0.314779758,-0.799187408,-0.6700615425,-0.614945108155,-0.664998489155,-0.699216804155,-0.789350971655,-0.9472663825,-0.9646714455,3087,"DG_s15",23.575,24.28,26.332,26.334,28,4,10,10,2.052,"Left",28,4,24,24,0,0,0,-24,0,-24,24,24,"Advent",18,-6,28,10,4,10
"187",7,"LIP7-LIP8",0.412575553,0.673999518,0.746637768,0.488333038,-0.032411807,-0.220162537,-0.254894492,-0.044060776,0.174616249,0.230598814,0.487901964,0.659153231,0.478074226,0.496464246,0.112861491,3087,"DG_s15",23.575,24.28,26.332,26.334,28,4,10,10,2.052,"Left",28,4,24,24,0,0,0,-24,0,-24,24,24,"Advent",18,-6,28,10,4,10
"188",7,"LHB7-LHB8",0.2327123155,0.0250972905,0.0488346305,0.0447214595,0.2504130545,0.2813358995,0.4881137245,0.3614272735,-0.1011785265,-0.1876401165,-0.4894298815,-0.2697283005,-0.0891431805,-0.00861562,-0.063099475,3087,"DG_s15",23.575,24.28,26.332,26.334,28,4,10,10,2.052,"Left",28,4,24,24,0,0,0,-24,0,-24,24,24,"Advent",18,-6,28,10,4,10
"189",7,"LIP5-LIP6",0.54643777265,0.45010803265,0.47634103265,0.28985729765,-0.00654886234999999,-0.17596874235,-0.18031065035,-0.11116491535,-0.20026008385,-0.24465361435,-0.43133857635,-0.42890534185,-0.48709175335,-0.37661603385,-0.14899410285,3087,"DG_s15",23.575,24.28,26.332,26.334,28,4,10,10,2.052,"Left",28,4,24,24,0,0,0,-24,0,-24,24,24,"Advent",18,-6,28,10,4,10
"190",7,"LIP3-LIP4",0.193254479,-0.020418407,0.007618838,-0.0557518816,-0.2168151636,-0.3259962426,-0.2707879781,-0.161557468,-0.194365627,-0.1062160775,-0.0693475754,-0.1873843964,-0.0742697764,-0.0066450384,-0.117099299,3087,"DG_s15",23.575,24.28,26.332,26.334,28,4,10,10,2.052,"Left",28,4,24,24,0,0,0,-24,0,-24,24,24,"Advent",18,-6,28,10,4,10
"191",7,"LHB5-LHB6",0.4003523827,0.7698110182,0.8061777417,0.7651884167,0.4834569617,0.1350285267,0.1589870222,-0.1543819578,-0.1542409663,-0.1698684513,-0.2455584903,-0.2019543673,-0.0486317204,0.1845222046,0.16304507385,3087,"DG_s15",23.575,24.28,26.332,26.334,28,4,10,10,2.052,"Left",28,4,24,24,0,0,0,-24,0,-24,24,24,"Advent",18,-6,28,10,4,10
"192",7,"LAM6-LAM7",0.744892164,0.897549524,1.064948625,0.71973849,0.592441731,0.359169186,0.370132171,0.19208122315,0.23542981015,0.33198925065,0.29632443815,0.221834281,0.00129995800000005,0.2594140935,0.435265721,3087,"DG_s15",23.575,24.28,26.332,26.334,28,4,10,10,2.052,"Left",28,4,24,24,0,0,0,-24,0,-24,24,24,"Advent",18,-6,28,10,4,10
"193",7,"LHH5-LHH6",-0.665678779,-0.654958204,-0.7149330405,-0.8101013755,-0.749376608,-0.6532808875,-0.548362848,-0.536155898,-0.5284868155,-0.584401306,-0.411653244,-0.299501974,-0.248751374,-0.081476924,-0.106788029,3087,"DG_s15",23.575,24.28,26.332,26.334,28,4,10,10,2.052,"Left",28,4,24,24,0,0,0,-24,0,-24,24,24,"Advent",18,-6,28,10,4,10
"194",7,"LHH6-LHH7",0.16097187885,0.30550652885,0.66188939385,0.15033899385,0.17416377335,0.07662815835,-0.13343983165,0.07872369335,-0.09606538615,-0.25369962615,-0.39974171115,-0.43963697865,0.09047117135,0.77619162135,1.14307177135,3087,"DG_s15",23.575,24.28,26.332,26.334,28,4,10,10,2.052,"Left",28,4,24,24,0,0,0,-24,0,-24,24,24,"Advent",18,-6,28,10,4,10
"195",7,"LAM3-LAM4",-0.094065345,-0.002334855,0.35487699,0.4702806641,0.6406852841,0.7044815826,0.5984108926,0.6297593745,0.61422260675,0.5117579448,0.5278423698,0.4739951348,0.22916039105,0.1194189745,0.1724098775,3087,"DG_s15",23.575,24.28,26.332,26.334,28,4,10,10,2.052,"Left",28,4,24,24,0,0,0,-24,0,-24,24,24,"Advent",18,-6,28,10,4,10
"196",7,"LHB6-LHB7",0.9002969419,0.8782026169,0.85773571885,0.44443351885,0.4317579435,0.1989100965,0.1681391415,0.1674357415,-0.12743775,0.00374878200000001,-0.00900540499999997,0.294214595,0.4695858185,0.6594777385,0.6621267725,3087,"DG_s15",23.575,24.28,26.332,26.334,28,4,10,10,2.052,"Left",28,4,24,24,0,0,0,-24,0,-24,24,24,"Advent",18,-6,28,10,4,10
"197",7,"LIP8-LIP9",0.803223498,1.150831748,1.312998328,1.152118592,0.883871742,0.646676297,0.8999003798,1.0087387108,1.0948477008,1.4019020458,1.177641188,1.034848203,0.988475651,0.7686889005,0.7118710105,3087,"DG_s15",23.575,24.28,26.332,26.334,28,4,10,10,2.052,"Left",28,4,24,24,0,0,0,-24,0,-24,24,24,"Advent",18,-6,28,10,4,10
"198",7,"LAM5-LAM6",0.446695482,0.193870552,0.1456208485,0.14482712,0.12483872,-0.1254838,-0.1091221853,-0.2967211968,-0.5060122318,-0.4206764168,-0.299601113,-0.243480146,-0.2399253405,-0.1555127205,-0.3177164805,3087,"DG_s15",23.575,24.28,26.332,26.334,28,4,10,10,2.052,"Left",28,4,24,24,0,0,0,-24,0,-24,24,24,"Advent",18,-6,28,10,4,10
"199",7,"LHB8-LHB9",-0.7551845955,-1.17047666545,-1.16105475695,-1.01957747945,-0.65297295445,-0.5222191855,-0.476564668,-0.4946168905,-0.6082733555,-0.6974619795,-0.6447092095,-0.7260944145,-0.9359779745,-0.8199788745,-0.9690904745,3087,"DG_s15",23.575,24.28,26.332,26.334,28,4,10,10,2.052,"Left",28,4,24,24,0,0,0,-24,0,-24,24,24,"Advent",18,-6,28,10,4,10
"200",7,"LAM1-LAM2",0.344870841,0.3052536755,0.2036685205,0.0430358755,0.0452000355,0.2359882,0.56722961,0.703406045,0.81553527,0.929344721,0.798802731,0.847943373,0.651653013,0.219666763,0.2609261903,3087,"DG_s15",23.575,24.28,26.332,26.334,28,4,10,10,2.052,"Left",28,4,24,24,0,0,0,-24,0,-24,24,24,"Advent",18,-6,28,10,4,10
"201",7,"LIP1-LIP2",0.2127481415,0.3463395555,0.1871149834,-0.0428804436,0.0423234739,-0.1051160526,-0.043966215,0.076231087,0.021205067,0.2307501745,0.0285308195,0.094073485,0.071939645,0.230037975,0.2942229645,3087,"DG_s15",23.575,24.28,26.332,26.334,28,4,10,10,2.052,"Left",28,4,24,24,0,0,0,-24,0,-24,24,24,"Advent",18,-6,28,10,4,10
"202",7,"LHH7-LHH8",0.582120854,0.489116589,0.3044428655,-0.3159511345,-0.4975606885,-0.6285730785,-0.625042937,-0.156800137,0.152936627,0.248265972265,0.399855924265,0.041895754265,-0.103542660235,0.3856303945,0.4914417945,3087,"DG_s15",23.575,24.28,26.332,26.334,28,4,10,10,2.052,"Left",28,4,24,24,0,0,0,-24,0,-24,24,24,"Advent",18,-6,28,10,4,10
"203",7,"LHB9-LHB10",0.4814657905,0.3870952173,0.6317927243,0.8743097143,0.6917009678,0.6225319475,0.446066992,0.2036948185,0.1772106985,0.220668397,0.1922319115,0.3188246065,0.171985823,0.115902067,0.1934797525,3087,"DG_s15",23.575,24.28,26.332,26.334,28,4,10,10,2.052,"Left",28,4,24,24,0,0,0,-24,0,-24,24,24,"Advent",18,-6,28,10,4,10
"204",8,"LHH7-LHH8",0.1557123791,0.4586937291,0.7062164146,0.6739530146,0.463592034,-0.123166366,-0.3571148805,-0.19300105835,-0.05783015035,0.17077600915,0.49803324865,0.7067777105,0.659455088,0.5434760285,0.164683874,3088,"DG_s15",27.335,28.041,30.293,30.295,10,10,11,7,2.252,"Left",11,7,4,0,4,-4,0,-4,0,0,4,0,"10-10",-1,3,10,11,10,7
"205",8,"LAM2-LAM3",-0.1357592455,-0.181192995,-0.270588173,0.022009284,0.051706274056,0.299962939056,0.660013119056,0.596909106056,0.3508165895,0.06686665115,-0.0814530807,0.0237863923,0.2748145738,0.24332579615,0.104391123,3088,"DG_s15",27.335,28.041,30.293,30.295,10,10,11,7,2.252,"Left",11,7,4,0,4,-4,0,-4,0,0,4,0,"10-10",-1,3,10,11,10,7
"206",8,"LAM9-LAM10",0.3183478585,0.1634671535,0.2818217985,0.2342536785,0.0277490835,0.02426606215,-0.19985010785,-0.45770579635,-0.26990205135,-0.07104823,0.6308306,0.9873954635,0.8748568135,0.7770071625,0.2934194935,3088,"DG_s15",27.335,28.041,30.293,30.295,10,10,11,7,2.252,"Left",11,7,4,0,4,-4,0,-4,0,0,4,0,"10-10",-1,3,10,11,10,7
"207",8,"LAM8-LAM9",0.7532257286,0.95525523295,0.79779271945,0.83628093445,0.38272198545,0.0034520116,-0.1014338449,-0.3954469699,-0.1892342309,-0.0928097809,-0.0136454644,0.3042356106,0.1578155406,0.2556655806,0.1267911841,3088,"DG_s15",27.335,28.041,30.293,30.295,10,10,11,7,2.252,"Left",11,7,4,0,4,-4,0,-4,0,0,4,0,"10-10",-1,3,10,11,10,7
"208",8,"LIP7-LIP8",-0.102119278,0.246007167,0.181138892,0.472258872,0.224485892,0.074483157,0.510954017,0.300608107,0.606222932,0.5102186427,0.3570741127,0.5621895422,0.2017554922,0.3525998605,0.1272546305,3088,"DG_s15",27.335,28.041,30.293,30.295,10,10,11,7,2.252,"Left",11,7,4,0,4,-4,0,-4,0,0,4,0,"10-10",-1,3,10,11,10,7
"209",8,"LAM3-LAM4",-0.18580642495,-0.07985441718,0.02769652352,-0.03498270548,0.05661689992,-0.09504287285,-0.0605995026,0.1230343489,-0.0830492225,0.0815642495,0.109131352,0.0421347255,0.0384771005,-0.1851064115,-0.2729162065,3088,"DG_s15",27.335,28.041,30.293,30.295,10,10,11,7,2.252,"Left",11,7,4,0,4,-4,0,-4,0,0,4,0,"10-10",-1,3,10,11,10,7
"210",8,"LHH4-LHH5",-0.68489838385,-0.94525232535,-0.73714983535,-0.7389101205,-0.6795068865,-0.529914218,-0.439082391,-0.2949626185,-0.2546872535,-0.091785302,-0.020608499,0.5382045285,0.7594129635,0.646281372,0.388868692,3088,"DG_s15",27.335,28.041,30.293,30.295,10,10,11,7,2.252,"Left",11,7,4,0,4,-4,0,-4,0,0,4,0,"10-10",-1,3,10,11,10,7
"211",8,"LTT8-LTT9",-1.450533643,-1.415312093,-1.597362233,-1.704428548,-1.5623982255,-1.6000691455,-1.3725979805,-1.1952064005,-1.389973333,-1.262845973,-1.305362665,-1.473429799,-1.397664339,-1.529276424,-1.702389697,3088,"DG_s15",27.335,28.041,30.293,30.295,10,10,11,7,2.252,"Left",11,7,4,0,4,-4,0,-4,0,0,4,0,"10-10",-1,3,10,11,10,7
"212",8,"LIP1-LIP2",0.3710797805,0.1303581855,-0.1133393945,-0.1304685145,-0.2818999105,-0.2837624655,-0.5079260355,-0.6012081955,-0.6607585845,-0.9033553245,-0.7619457995,-0.9719779445,-1.0437962445,-0.9426234945,-0.7345961095,3088,"DG_s15",27.335,28.041,30.293,30.295,10,10,11,7,2.252,"Left",11,7,4,0,4,-4,0,-4,0,0,4,0,"10-10",-1,3,10,11,10,7
"213",8,"LHB8-LHB9",0.418721349,0.641201669,0.382391774,0.483606615,0.669348505,0.92947941,0.8491018645,0.7629957445,0.7316188795,0.5038995695,0.549578591,0.48770880315,0.3311713792,0.2680194042,0.2676615097,3088,"DG_s15",27.335,28.041,30.293,30.295,10,10,11,7,2.252,"Left",11,7,4,0,4,-4,0,-4,0,0,4,0,"10-10",-1,3,10,11,10,7
"214",8,"LIP5-LIP6",-0.1740365308,-0.5073944407,-0.5448426407,-0.2915420227,-0.2619289977,0.0424911573,0.14199482355,0.12468028555,0.15489560555,-0.11289989945,-0.17584954205,-0.13063412205,-0.20924967155,-0.20097516655,-0.1700949502,3088,"DG_s15",27.335,28.041,30.293,30.295,10,10,11,7,2.252,"Left",11,7,4,0,4,-4,0,-4,0,0,4,0,"10-10",-1,3,10,11,10,7
"215",8,"LHH6-LHH7",-0.1753829545,-0.3582409745,-0.1286812195,-0.106009507,-0.164799267,-0.218759324,-0.152863054,0.0969536235,0.3708815635,0.4885923905,0.4821891155,0.2210680655,0.083488001,0.417799661,0.573175061,3088,"DG_s15",27.335,28.041,30.293,30.295,10,10,11,7,2.252,"Left",11,7,4,0,4,-4,0,-4,0,0,4,0,"10-10",-1,3,10,11,10,7
"216",8,"LHH5-LHH6",-0.55022464,-0.6285467425,-0.3322833925,-0.588237555,-0.8022627895,-0.720133213,-0.554232558,-0.29770136,-0.30498642625,-0.47091840775,-0.79985668425,-0.90000776725,-1.0045992075,-0.5781438375,-0.5583139665,3088,"DG_s15",27.335,28.041,30.293,30.295,10,10,11,7,2.252,"Left",11,7,4,0,4,-4,0,-4,0,0,4,0,"10-10",-1,3,10,11,10,7
"217",8,"LIP8-LIP9",0.0680509531,0.5254753151,0.4772561091,0.257390445785,0.418540095785,0.372507645785,0.368319006785,0.6082704051,0.5969911451,0.3377929506,0.4361052576,0.3353285776,0.1023387326,-0.0131056289,-0.3427954709,3088,"DG_s15",27.335,28.041,30.293,30.295,10,10,11,7,2.252,"Left",11,7,4,0,4,-4,0,-4,0,0,4,0,"10-10",-1,3,10,11,10,7
"218",8,"LTT9-LTT10",-0.347035661,-0.43030629,-0.72732394,-0.9253954469,-0.7616248623,-0.6386394563,-0.5187487233,-0.5406620024,-0.4154167196,-0.2797828481,-0.1269535281,-0.0621888666,-0.261130983,-0.2285639945,-0.3118737125,3088,"DG_s15",27.335,28.041,30.293,30.295,10,10,11,7,2.252,"Left",11,7,4,0,4,-4,0,-4,0,0,4,0,"10-10",-1,3,10,11,10,7
"219",8,"LIP6-LIP7",0.2220053908,0.1813291918,0.1893794118,0.3080609213,0.2652732415,0.5593432065,0.7990857145,0.65219676,1.004525525,0.8313193065,0.6027788535,0.4649542835,-0.0153028165,-0.033644858,0.016240817,3088,"DG_s15",27.335,28.041,30.293,30.295,10,10,11,7,2.252,"Left",11,7,4,0,4,-4,0,-4,0,0,4,0,"10-10",-1,3,10,11,10,7
"220",8,"LIP3-LIP4",-0.5757889455,-0.6347033575,-0.773790661355,-0.809508566355,-0.689043075855,-0.427337423855,-0.37133321,-0.2462737,-0.35306792,-0.56638287,-0.576941424,-0.599483289,-0.6821884195,-0.804348943,-0.724556806,3088,"DG_s15",27.335,28.041,30.293,30.295,10,10,11,7,2.252,"Left",11,7,4,0,4,-4,0,-4,0,0,4,0,"10-10",-1,3,10,11,10,7
"221",8,"LHB7-LHB8",0.279495924355,0.662980956855,1.197226948855,1.469532558855,1.403269025405,1.419416825405,0.989350325405,0.805090415405,0.767341516355,0.402902261355,0.769099581355,0.899423271355,0.699097425855,0.808036561355,0.300390776355,3088,"DG_s15",27.335,28.041,30.293,30.295,10,10,11,7,2.252,"Left",11,7,4,0,4,-4,0,-4,0,0,4,0,"10-10",-1,3,10,11,10,7
"222",8,"LAM6-LAM7",-0.055476196,-0.0988280005,0.0586064755,-0.1956642645,-0.0284602095,-0.08618328,-0.146138821,-0.00158296649999998,-0.1069333315,-0.177466141,0.080749474,0.0657494995,0.0110717405,0.48275861,0.00709526000000002,3088,"DG_s15",27.335,28.041,30.293,30.295,10,10,11,7,2.252,"Left",11,7,4,0,4,-4,0,-4,0,0,4,0,"10-10",-1,3,10,11,10,7
"223",8,"LIP2-LIP3",0.7732073903,0.6892792153,1.0164120553,1.0916800503,0.9932037203,0.9037919403,0.6497415218,0.50351581265,0.16863208265,0.13367784815,0.12283005665,-0.0405292492,-0.2121208392,-0.2479818247,-0.2509282962,3088,"DG_s15",27.335,28.041,30.293,30.295,10,10,11,7,2.252,"Left",11,7,4,0,4,-4,0,-4,0,0,4,0,"10-10",-1,3,10,11,10,7
"224",8,"LHB6-LHB7",0.00201519,0.44458534,1.13120664,1.28910662,1.40526939,0.98440659,0.556374105,0.62383318,0.6613734485,0.7124955985,1.1439774335,1.3163085985,0.971909925,0.821031199,0.355658816,3088,"DG_s15",27.335,28.041,30.293,30.295,10,10,11,7,2.252,"Left",11,7,4,0,4,-4,0,-4,0,0,4,0,"10-10",-1,3,10,11,10,7
"225",8,"LAM1-LAM2",-0.35431207,-0.08408816,-0.04152198,-0.26980571,-0.43505663,-0.281487172,0.082562683,0.252901249,0.427024149,0.239486046,0.1104292455,0.112517107,0.072819967,0.003220107,-0.1592332795,3088,"DG_s15",27.335,28.041,30.293,30.295,10,10,11,7,2.252,"Left",11,7,4,0,4,-4,0,-4,0,0,4,0,"10-10",-1,3,10,11,10,7
"226",8,"LHB5-LHB6",0.480333601,0.933284331,1.237981831,1.2448783635,1.13091874655,0.44304807405,-0.01387675195,-0.00380854845,0.1635486185,0.210986671,0.536021007,0.6132770785,0.337470679,0.438964909,0.3549135995,3088,"DG_s15",27.335,28.041,30.293,30.295,10,10,11,7,2.252,"Left",11,7,4,0,4,-4,0,-4,0,0,4,0,"10-10",-1,3,10,11,10,7
"227",8,"LHB9-LHB10",1.7076221995,1.3799015025,1.2454040835,1.1910714385,0.8134444885,0.6465560855,0.3574925845,0.0173114695,0.21017027,0.3990233195,0.59245711585,0.57569430385,0.46088903335,0.23087868385,-0.0582566125,3088,"DG_s15",27.335,28.041,30.293,30.295,10,10,11,7,2.252,"Left",11,7,4,0,4,-4,0,-4,0,0,4,0,"10-10",-1,3,10,11,10,7
"228",8,"LAM4-LAM5",0.353066428,0.3098756615,0.10327420355,-0.21356709645,-0.52669332195,-0.4950274383,-0.06472118035,0.26668236965,0.89189609515,1.025071953,0.629463718,0.416235688,-0.1205581195,0.0386046205,-0.0539822295,3088,"DG_s15",27.335,28.041,30.293,30.295,10,10,11,7,2.252,"Left",11,7,4,0,4,-4,0,-4,0,0,4,0,"10-10",-1,3,10,11,10,7
"229",8,"LAM5-LAM6",-0.1723749357,-0.0677877807,0.2902030083,0.3456954658,0.4277238798,0.3342862098,0.0951287598,-0.0172869167,-0.0968926967,0.0221226933,-0.2137755392,-0.1320974067,-0.1788276257,-0.2959646727,-0.1517778657,3088,"DG_s15",27.335,28.041,30.293,30.295,10,10,11,7,2.252,"Left",11,7,4,0,4,-4,0,-4,0,0,4,0,"10-10",-1,3,10,11,10,7
"230",8,"LHB4-LHB5",-0.264338117,0.082580193,0.287672013,0.142378608,-0.2299710705,-0.6161627305,-0.80023432715,-0.74954623715,-0.56802120865,-0.57129649365,-0.642147857,-0.4365016795,-0.7206314295,-0.763654984,-0.487344364,3088,"DG_s15",27.335,28.041,30.293,30.295,10,10,11,7,2.252,"Left",11,7,4,0,4,-4,0,-4,0,0,4,0,"10-10",-1,3,10,11,10,7
"231",8,"LAM7-LAM8",-0.621604832,-0.2630998155,0.3082770495,0.0875130895,0.125817794,-0.371832041,-1.005219712,-0.9715511655,-0.9394803585,-0.7831299105,-0.6356351595,-0.364170816,-0.4166681275,-0.0899010904999999,-0.2860707705,3088,"DG_s15",27.335,28.041,30.293,30.295,10,10,11,7,2.252,"Left",11,7,4,0,4,-4,0,-4,0,0,4,0,"10-10",-1,3,10,11,10,7
"232",8,"LIP4-LIP5",0.381744825,0.358071735,0.2890927865,0.519290849,0.339982014,0.426031264,0.5364056535,0.7489904585,0.7869391185,0.9925516185,0.7338396685,0.354565745,0.298421565,-0.16192538,-0.19842708,3088,"DG_s15",27.335,28.041,30.293,30.295,10,10,11,7,2.252,"Left",11,7,4,0,4,-4,0,-4,0,0,4,0,"10-10",-1,3,10,11,10,7
"233",9,"LIP6-LIP7",0.525368812,0.439531792,0.24193565,-0.086204295,0.1398426905,-0.026279871,0.3629768255,0.4807428005,0.310795665,0.4769805165,0.257539389,0.043210364,-0.084258346,-0.23187096365,-0.32852966315,3089,"DG_s15",31.296,32.001,34.315,34.318,6,22,10,10,2.314,"Left",6,22,16,16,0,0,16,0,16,0,-16,-16,"Disadvent",-4,12,6,10,22,10
"234",9,"LHH6-LHH7",-0.130895893,-0.385967329,-0.377717749,-0.597006929,-0.773328774,-0.835673424,-0.9704110315,-0.6594929015,-0.3810762215,-0.1767451715,-0.1602605871,-0.5045878521,-0.4674354121,-0.5729695471,-0.4369365975,3089,"DG_s15",31.296,32.001,34.315,34.318,6,22,10,10,2.314,"Left",6,22,16,16,0,0,16,0,16,0,-16,-16,"Disadvent",-4,12,6,10,22,10
"235",9,"LIP2-LIP3",0.08353413,-0.503954395,-0.33784426,-0.28233732795,-0.43374660445,-0.10785677945,-0.11292239945,-0.022637604,-0.1904010875,-0.3668089175,-0.4352517165,-0.4607370415,-0.3272761285,-0.3524033085,-0.4990994395,3089,"DG_s15",31.296,32.001,34.315,34.318,6,22,10,10,2.314,"Left",6,22,16,16,0,0,16,0,16,0,-16,-16,"Disadvent",-4,12,6,10,22,10
"236",9,"LAM8-LAM9",0.9689580395,0.9358662895,0.9788186945,0.7419999295,0.7060621845,0.6477336245,0.7737850045,0.9165250045,0.9496963795,0.7513089415,0.698335209,0.541726934,0.316385914,0.284805387,0.0708564145,3089,"DG_s15",31.296,32.001,34.315,34.318,6,22,10,10,2.314,"Left",6,22,16,16,0,0,16,0,16,0,-16,-16,"Disadvent",-4,12,6,10,22,10
"237",9,"LHH7-LHH8",-0.5122963885,-0.6939534035,-0.7801395385,-0.4593802035,0.1568430465,0.7663359465,0.9894545497,1.3737692997,1.0273726447,0.3747106947,0.3842621965,-0.2757446685,-0.4569113135,-0.4100407635,-0.5571759505,3089,"DG_s15",31.296,32.001,34.315,34.318,6,22,10,10,2.314,"Left",6,22,16,16,0,0,16,0,16,0,-16,-16,"Disadvent",-4,12,6,10,22,10
"238",9,"LHB4-LHB5",0.0103003005,0.0168148725,-0.0339406825,-0.125690104,-0.2275661155,-0.4602397575,-0.293422471,-0.2553379985,-0.2132411375,0.091218309,-0.059882505,0.21100721,0.1653987725,0.077246881,0.1785302805,3089,"DG_s15",31.296,32.001,34.315,34.318,6,22,10,10,2.314,"Left",6,22,16,16,0,0,16,0,16,0,-16,-16,"Disadvent",-4,12,6,10,22,10
"239",9,"LIP4-LIP5",0.03031621235,-0.35035034265,-0.50534358265,-0.59355092765,-0.18230356265,-0.26069967365,-0.11875538715,0.16096646785,-0.34651212015,-0.28835015665,-0.25565837215,-0.59694203215,-0.41747587415,-0.01253444165,-0.01732468245,3089,"DG_s15",31.296,32.001,34.315,34.318,6,22,10,10,2.314,"Left",6,22,16,16,0,0,16,0,16,0,-16,-16,"Disadvent",-4,12,6,10,22,10
"240",9,"LAM6-LAM7",-0.743565786,-0.443482856,-0.172130329,-0.165573179,0.072708661,-0.3130879435,-0.6035170705,-0.7581108605,-0.9345137155,-0.940866861,-0.850700741,-0.513001286,-0.47238851165,-0.26993371665,-0.33885080165,3089,"DG_s15",31.296,32.001,34.315,34.318,6,22,10,10,2.314,"Left",6,22,16,16,0,0,16,0,16,0,-16,-16,"Disadvent",-4,12,6,10,22,10
"241",9,"LHB9-LHB10",0.05477715375,0.05822966775,0.000474758249999999,0.0666985135,0.088660149,-0.153039346,-0.1184639225,0.324561151,0.698656751,0.827504151,0.5938096225,0.0774194325,-0.097624644,-0.175648594,-0.236822689,3089,"DG_s15",31.296,32.001,34.315,34.318,6,22,10,10,2.314,"Left",6,22,16,16,0,0,16,0,16,0,-16,-16,"Disadvent",-4,12,6,10,22,10
"242",9,"LAM7-LAM8",-0.2541798445,-0.150395695,-0.05954288295,-0.1079059003,0.0750041797,0.0144149957,-0.01631871635,-0.209533684,-0.448810324,-0.559029489,-0.484968819,-0.579164789,-0.718275149,-0.6132310367,-0.6446426537,3089,"DG_s15",31.296,32.001,34.315,34.318,6,22,10,10,2.314,"Left",6,22,16,16,0,0,16,0,16,0,-16,-16,"Disadvent",-4,12,6,10,22,10
"243",9,"LHB5-LHB6",0.4116173865,0.4522668065,0.244074664,-0.04404603725,-0.24842864525,-0.21684923025,-0.27899197275,-0.25395173985,-0.30600335835,-0.37605051335,-0.42112287835,-0.4074449405,-0.3536847805,-0.4264960405,-0.0978561395,3089,"DG_s15",31.296,32.001,34.315,34.318,6,22,10,10,2.314,"Left",6,22,16,16,0,0,16,0,16,0,-16,-16,"Disadvent",-4,12,6,10,22,10
"244",9,"LIP3-LIP4",1.21677224024,0.02784738524,-0.30367466476,-0.70406576926,-0.86286776026,-0.51258530526,-0.17339898526,-0.229347904365,0.172507830635,-0.262905549365,-0.354103749365,-0.36819756426,-0.70856290826,-0.60346791826,-0.73198018576,3089,"DG_s15",31.296,32.001,34.315,34.318,6,22,10,10,2.314,"Left",6,22,16,16,0,0,16,0,16,0,-16,-16,"Disadvent",-4,12,6,10,22,10
"245",9,"LHB8-LHB9",-0.2673404733,-0.5617081173,-0.6158518258,-0.82510638,-0.938122301,-0.664190996,-0.64538661,-0.23666801,-0.1948669425,-0.2452329975,-0.2739814335,-0.4113045425,-0.410652896,-0.407307591,-0.3551599589,3089,"DG_s15",31.296,32.001,34.315,34.318,6,22,10,10,2.314,"Left",6,22,16,16,0,0,16,0,16,0,-16,-16,"Disadvent",-4,12,6,10,22,10
"246",9,"LIP5-LIP6",0.4802766855,-0.0822662245,-0.2671651345,-0.4841350295,-0.45330462,-0.439492405,-0.350507235,-0.14120041,-0.2384265795,-0.3288222795,-0.5836000845,-0.6829188905,-0.6983209005,-0.5595479585,-0.5614782335,3089,"DG_s15",31.296,32.001,34.315,34.318,6,22,10,10,2.314,"Left",6,22,16,16,0,0,16,0,16,0,-16,-16,"Disadvent",-4,12,6,10,22,10
"247",9,"LTT8-LTT9",0.37838725305,0.51724155305,0.33555946305,0.43814501905,0.396224042,0.396523367,0.466464402,0.420134562,0.42838929,0.34838015,0.40407927,0.582970545,0.60863286,0.846697135,0.9218612855,3089,"DG_s15",31.296,32.001,34.315,34.318,6,22,10,10,2.314,"Left",6,22,16,16,0,0,16,0,16,0,-16,-16,"Disadvent",-4,12,6,10,22,10
"248",9,"LAM2-LAM3",-0.341021894,-0.509348658,-0.6363586945,-1.0150613395,-1.0970370525,-1.0471807675,-0.993918991,-0.483940751,-0.2345836515,-0.2643725895,-0.400107939,-0.833381304,-0.8349247985,-0.4458645955,-0.124435576,3089,"DG_s15",31.296,32.001,34.315,34.318,6,22,10,10,2.314,"Left",6,22,16,16,0,0,16,0,16,0,-16,-16,"Disadvent",-4,12,6,10,22,10
"249",9,"LAM1-LAM2",-0.7830124134,-1.0632148334,-0.9310548029,-1.0626355345,-0.7154897645,-0.5151849295,-0.166041995,0.043631599,-0.070445211,0.209662069,-0.206709611,-0.28618179,0.4054654,0.28806881,0.4016705135,3089,"DG_s15",31.296,32.001,34.315,34.318,6,22,10,10,2.314,"Left",6,22,16,16,0,0,16,0,16,0,-16,-16,"Disadvent",-4,12,6,10,22,10
"250",9,"LIP1-LIP2",0.502856517,0.4799215085,0.3474573585,0.3982723685,0.3423486685,0.182821361,0.218556371,0.0818818245,-0.226315986,-0.20864434,-0.049076165,-0.0632992635,-0.0810301015,-0.1237337225,-0.1694016465,3089,"DG_s15",31.296,32.001,34.315,34.318,6,22,10,10,2.314,"Left",6,22,16,16,0,0,16,0,16,0,-16,-16,"Disadvent",-4,12,6,10,22,10
"251",9,"LAM4-LAM5",-0.71233696,-0.87416761,-1.052853258,-1.2136114365,-1.2390113415,-1.2250977565,-1.2642533965,-1.0604920555,-0.6183257455,-0.449140796,-0.477767586,-0.352241777,-0.575463627,-0.6469521845,-0.736823424,3089,"DG_s15",31.296,32.001,34.315,34.318,6,22,10,10,2.314,"Left",6,22,16,16,0,0,16,0,16,0,-16,-16,"Disadvent",-4,12,6,10,22,10
"252",9,"LHH4-LHH5",0.00637204549999998,-0.0208190895,0.0874047455,-0.0346668445,-0.2667855485,-0.27826952,-0.3417666615,-0.269531837,-0.00637232800000001,0.1756833205,0.187837902,0.1807038725,0.271759954835,0.116385573735,-0.090992063765,3089,"DG_s15",31.296,32.001,34.315,34.318,6,22,10,10,2.314,"Left",6,22,16,16,0,0,16,0,16,0,-16,-16,"Disadvent",-4,12,6,10,22,10
"253",9,"LAM3-LAM4",0.2326847895,0.1457867045,0.162745848,0.045028226,0.118928287,-0.027993451,-0.228635016,-0.4736246325,-0.3142403485,0.0319065655,0.3244510655,0.4936230595,0.453995966,0.07257988,-0.100934062,3089,"DG_s15",31.296,32.001,34.315,34.318,6,22,10,10,2.314,"Left",6,22,16,16,0,0,16,0,16,0,-16,-16,"Disadvent",-4,12,6,10,22,10
"254",9,"LIP7-LIP8",0.6010086745,0.7267750645,0.5501148305,0.2343501935,0.3501452835,0.0378927485,0.19105851,0.2139275575,0.1155134725,0.6225466725,0.451369055,0.575524465,0.49208252,0.21306024,0.391099225,3089,"DG_s15",31.296,32.001,34.315,34.318,6,22,10,10,2.314,"Left",6,22,16,16,0,0,16,0,16,0,-16,-16,"Disadvent",-4,12,6,10,22,10
"255",9,"LTT9-LTT10",0.57936711285,0.36955193135,0.27777258635,0.30887598915,0.5666652505,0.712251084,0.403093894,0.4384273075,0.3002094625,0.148697904,0.226985874,-0.1260897395,-0.3940995445,-0.494650468,-0.4123673825,3089,"DG_s15",31.296,32.001,34.315,34.318,6,22,10,10,2.314,"Left",6,22,16,16,0,0,16,0,16,0,-16,-16,"Disadvent",-4,12,6,10,22,10
"256",9,"LIP8-LIP9",0.122212643,0.1833225285,0.1977269685,-0.00892420150000001,-0.2324012715,-0.1893704255,-0.2573194745,-0.0180995745,0.2204795555,0.101296196,0.09846194,-0.015181665,-0.027456627,0.0114442215,0.199126835,3089,"DG_s15",31.296,32.001,34.315,34.318,6,22,10,10,2.314,"Left",6,22,16,16,0,0,16,0,16,0,-16,-16,"Disadvent",-4,12,6,10,22,10
"257",9,"LAM9-LAM10",0.4467851385,0.3821262385,0.2470263385,-0.0417767465,-0.1609918465,-0.4895656465,-0.5617365565,-0.5225540715,-0.5354451915,-0.6738277265,-0.526161509,-0.445387887,-0.610893121,-0.643313786,-0.850267536,3089,"DG_s15",31.296,32.001,34.315,34.318,6,22,10,10,2.314,"Left",6,22,16,16,0,0,16,0,16,0,-16,-16,"Disadvent",-4,12,6,10,22,10
"258",9,"LAM5-LAM6",-0.6071023195,-0.479385072,-0.454860622,-0.6217060915,-0.4248228615,-0.281474799,-0.3115812058,-0.0707369408,-0.1741825488,-0.4261577668,-0.221447765,-0.226558749,-0.0250511915,0.299994893,0.228550188,3089,"DG_s15",31.296,32.001,34.315,34.318,6,22,10,10,2.314,"Left",6,22,16,16,0,0,16,0,16,0,-16,-16,"Disadvent",-4,12,6,10,22,10
"259",9,"LHB6-LHB7",0.358192665,0.0328867375,-0.1480147895,-0.2875005545,-0.2192378045,0.190608083,0.2562662485,0.3661978825,-0.0341425525,-0.47380341,-0.4331581685,-0.571354428,-0.40355823,-0.3388054345,-0.357528123,3089,"DG_s15",31.296,32.001,34.315,34.318,6,22,10,10,2.314,"Left",6,22,16,16,0,0,16,0,16,0,-16,-16,"Disadvent",-4,12,6,10,22,10
"260",9,"LHH5-LHH6",-0.265785804,-0.349808719,-0.3272387555,-0.803198986,-0.8825590256,-0.8343014101,-0.88030245995,-0.84133847427,-0.54911767967,-0.36678668517,-0.40689625582,-0.0734019825000001,0.0665738124999999,-0.2644443325,-0.4181715865,3089,"DG_s15",31.296,32.001,34.315,34.318,6,22,10,10,2.314,"Left",6,22,16,16,0,0,16,0,16,0,-16,-16,"Disadvent",-4,12,6,10,22,10
"261",9,"LHB7-LHB8",-0.153045745,-0.337238625,-0.433151345,-0.6955519655,-0.6833051355,-0.4568878037,-0.5164700087,-0.3016463032,-0.3453159182,-0.48179022054,-0.40280691404,-0.59902404939,-0.68049098439,-0.76447368885,-0.83410454385,3089,"DG_s15",31.296,32.001,34.315,34.318,6,22,10,10,2.314,"Left",6,22,16,16,0,0,16,0,16,0,-16,-16,"Disadvent",-4,12,6,10,22,10
"262",10,"LTT8-LTT9",0.07137435,-0.225331919,-0.1644637065,0.0419971035,0.0617391485,0.4216094825,0.3037630125,-0.1752290875,-0.2394529925,-0.2891451125,0.2834274875,0.393467313,0.335786953,0.080652128,-0.201565422,3090,"DG_s15",35.319,36.024,38.569,38.572,3,31,10,10,2.545,"Left",3,31,28,28,0,0,28,0,28,0,-28,-28,"Disadvent",-7,21,3,10,31,10
"263",10,"LIP7-LIP8",0.4126674045,0.3546687245,0.35377361405,0.15201408905,0.07492759555,-0.01479600595,-0.0147675655,0.2626314595,0.2962842105,0.327192953,0.318749373,0.190154198,-0.014820937,-0.0750077735,-0.09599167,3090,"DG_s15",35.319,36.024,38.569,38.572,3,31,10,10,2.545,"Left",3,31,28,28,0,0,28,0,28,0,-28,-28,"Disadvent",-7,21,3,10,31,10
"264",10,"LIP5-LIP6",-0.305376818,-0.6489192875,-0.55196642165,-0.44807906665,-0.22446786165,-0.09307686165,0.0699977975,0.00290559699999998,0.366946592,0.4510714495,0.3550415095,0.273432735,-0.257861445,-0.2387598315,-0.405396909,3090,"DG_s15",35.319,36.024,38.569,38.572,3,31,10,10,2.545,"Left",3,31,28,28,0,0,28,0,28,0,-28,-28,"Disadvent",-7,21,3,10,31,10
"265",10,"LIP8-LIP9",0.0165947525,0.095214649,0.212067899,0.317965742,0.076728792,-0.036317548,0.112281278,0.131325545,0.181741525,0.13262204,0.067301759,-0.0102569495,0.031202816,0.329243371,0.329779396,3090,"DG_s15",35.319,36.024,38.569,38.572,3,31,10,10,2.545,"Left",3,31,28,28,0,0,28,0,28,0,-28,-28,"Disadvent",-7,21,3,10,31,10
"266",10,"LIP4-LIP5",0.016295119,-0.169254286,-0.023959024,0.126677608,0.000123681499999997,0.1610023515,0.156165866,0.184851766,0.203524691,0.2018296025,0.133825633,-0.0118041335,-0.0713449735,-0.019154825,-0.09002644785,3090,"DG_s15",35.319,36.024,38.569,38.572,3,31,10,10,2.545,"Left",3,31,28,28,0,0,28,0,28,0,-28,-28,"Disadvent",-7,21,3,10,31,10
"267",10,"LHB9-LHB10",-0.0987697487,-0.2710589642,0.0129954908,0.2854009858,0.0365067528,0.0291856568,-0.1517241512,-0.2040288962,0.000370067799999999,0.0376109568,-0.0411826852,-0.0992133352,-0.1001800712,0.0741854633,0.2842663468,3090,"DG_s15",35.319,36.024,38.569,38.572,3,31,10,10,2.545,"Left",3,31,28,28,0,0,28,0,28,0,-28,-28,"Disadvent",-7,21,3,10,31,10
"268",10,"LAM5-LAM6",0.1726520485,-0.0450723865,0.00576167499999999,0.002226908,-0.084442107,-0.179038672,-0.00778069,0.001017354,0.293918039,0.709432699,0.56088324025,0.56869899125,0.10867363125,-0.13964414375,-0.1014689835,3090,"DG_s15",35.319,36.024,38.569,38.572,3,31,10,10,2.545,"Left",3,31,28,28,0,0,28,0,28,0,-28,-28,"Disadvent",-7,21,3,10,31,10
"269",10,"LAM3-LAM4",0.5936624435,0.5862990885,0.2664164635,0.1186053085,0.547043555,0.44206348,0.45596425,0.654345775,0.091780765,0.0587127279,0.0194627029,-0.0113836371,0.1600617179,0.122055625,0.090442536,3090,"DG_s15",35.319,36.024,38.569,38.572,3,31,10,10,2.545,"Left",3,31,28,28,0,0,28,0,28,0,-28,-28,"Disadvent",-7,21,3,10,31,10
"270",10,"LIP3-LIP4",-0.2098574075,-0.335702305,-0.489280065,-0.460790711,-0.504773531,-0.344552342,-0.356487777,-0.274860012,-0.190212807,-0.486546637,-0.489441647,-0.389798313,-0.2687351795,-0.1458697045,-0.2360694445,3090,"DG_s15",35.319,36.024,38.569,38.572,3,31,10,10,2.545,"Left",3,31,28,28,0,0,28,0,28,0,-28,-28,"Disadvent",-7,21,3,10,31,10
"271",10,"LTT9-LTT10",-0.170345987,0.000397842999999953,-0.059916662,0.199590318,0.1451309975,0.0600508825,0.5275590225,0.1608764425,-0.094500822,0.220495603,0.680102103,0.853671738,0.719949928,0.205502828,-0.7511497355,3090,"DG_s15",35.319,36.024,38.569,38.572,3,31,10,10,2.545,"Left",3,31,28,28,0,0,28,0,28,0,-28,-28,"Disadvent",-7,21,3,10,31,10
"272",10,"LIP2-LIP3",-0.3657710845,-0.4975264045,-0.512721506,-0.4945744455,-0.3869504955,-0.0928492055,0.03235126245,0.11119813245,0.42993297995,0.00227219495,-0.226704092,-0.249621667,-0.3258501695,0.0762712805,0.3001439105,3090,"DG_s15",35.319,36.024,38.569,38.572,3,31,10,10,2.545,"Left",3,31,28,28,0,0,28,0,28,0,-28,-28,"Disadvent",-7,21,3,10,31,10
"273",10,"LAM6-LAM7",-0.969541303,-1.0376755365,-1.265610454,-1.1970807725,-1.4177130725,-1.553082093,-1.459756418,-1.297953563,-1.245364051725,-0.947610884675,-1.026914039675,-1.300748377675,-1.12430671495,-1.3959618915,-1.127305875,3090,"DG_s15",35.319,36.024,38.569,38.572,3,31,10,10,2.545,"Left",3,31,28,28,0,0,28,0,28,0,-28,-28,"Disadvent",-7,21,3,10,31,10
"274",10,"LIP6-LIP7",-0.38907295,-0.39955886,-0.36509591,-0.435446681,-0.234317069,-0.308849834,-0.21072962185,-0.15862630085,-0.35038863585,-0.45349289085,-0.5075165735,-0.4024474735,-0.3249332925,-0.200056678,-0.3470675575,3090,"DG_s15",35.319,36.024,38.569,38.572,3,31,10,10,2.545,"Left",3,31,28,28,0,0,28,0,28,0,-28,-28,"Disadvent",-7,21,3,10,31,10
"275",10,"LAM1-LAM2",0.4024555385,0.1366033,0.2183897015,0.4964219015,0.3167370765,0.272042783,0.105229708,0.295611658,0.579947258,0.6147904573,0.8066820188,0.5081114288,0.2592671743,0.179927857,0.140114918,3090,"DG_s15",35.319,36.024,38.569,38.572,3,31,10,10,2.545,"Left",3,31,28,28,0,0,28,0,28,0,-28,-28,"Disadvent",-7,21,3,10,31,10
"276",10,"LAM4-LAM5",-0.025509042,0.00204984450000001,-0.19377041175,-0.40075883675,-0.67407798175,-0.81125466175,-0.8746429755,-0.893642378,-0.645497593,-0.444275714315,-0.450852697365,-0.465036408865,-0.380440864565,-0.44970792975,-0.5344955567,3090,"DG_s15",35.319,36.024,38.569,38.572,3,31,10,10,2.545,"Left",3,31,28,28,0,0,28,0,28,0,-28,-28,"Disadvent",-7,21,3,10,31,10
"277",10,"LHB8-LHB9",0.6217820695,0.5860087145,0.296391216,-0.0988743935,-0.349251462,-0.276078772,-0.195292142,0.05320892985,0.12340266335,-0.16878573665,-0.28087919265,-0.3732749515,-0.2006536315,-0.021389432,-0.056489673,3090,"DG_s15",35.319,36.024,38.569,38.572,3,31,10,10,2.545,"Left",3,31,28,28,0,0,28,0,28,0,-28,-28,"Disadvent",-7,21,3,10,31,10
"278",10,"LAM9-LAM10",-0.703861867,-0.7547764765,-0.5581017665,-0.1224794165,-0.0138900415,0.0531503035,0.0585094385,-0.3265204615,-0.5964840265,-0.4626581165,-0.4772156225,-0.4518620075,-0.3234342055,-0.422068475,-0.37623783265,3090,"DG_s15",35.319,36.024,38.569,38.572,3,31,10,10,2.545,"Left",3,31,28,28,0,0,28,0,28,0,-28,-28,"Disadvent",-7,21,3,10,31,10
"279",10,"LAM8-LAM9",0.333434192,0.1860135765,-0.0132518005,0.1325713795,0.1742142225,0.288741888,0.383451246,0.209803071,0.00655351100000001,-0.212467501,-0.228436742,-0.3333145705,-0.2589864465,-0.2089560895,-0.3958131495,3090,"DG_s15",35.319,36.024,38.569,38.572,3,31,10,10,2.545,"Left",3,31,28,28,0,0,28,0,28,0,-28,-28,"Disadvent",-7,21,3,10,31,10
"280",10,"LAM2-LAM3",-0.7291475935,-0.5556080385,-0.2254451885,-0.198174965,-0.30024991,0.118081435,-0.04432690265,-0.10426932765,-0.05067389415,-0.55700927415,-0.664123043,-0.310031673,-0.1069770615,-0.0117078065,0.046798775,3090,"DG_s15",35.319,36.024,38.569,38.572,3,31,10,10,2.545,"Left",3,31,28,28,0,0,28,0,28,0,-28,-28,"Disadvent",-7,21,3,10,31,10
"281",10,"LHB4-LHB5",0.2787433975,0.3512110525,0.294338433,0.099138128,0.1350212435,0.2138355785,0.0894936585,0.27670931,0.16195472,0.069386165,-0.03954427,0.1678550205,0.2196311205,0.2227140205,0.2834787555,3090,"DG_s15",35.319,36.024,38.569,38.572,3,31,10,10,2.545,"Left",3,31,28,28,0,0,28,0,28,0,-28,-28,"Disadvent",-7,21,3,10,31,10
"282",10,"LHH7-LHH8",-0.137807601,-0.688947211,-1.020779311,-1.1978542683,-1.0401597433,-0.8610546333,-0.9202096783,-0.929349171,-1.048831336,-1.219018351,-1.2231991605,-1.4056914455,-1.5411885905,-1.6046786055,-1.792809116,3090,"DG_s15",35.319,36.024,38.569,38.572,3,31,10,10,2.545,"Left",3,31,28,28,0,0,28,0,28,0,-28,-28,"Disadvent",-7,21,3,10,31,10
"283",10,"LAM7-LAM8",-0.7151267539,-0.8033390279,-0.6849510829,-0.7503593744,-0.7622355065,-0.6108354565,-0.5357754965,-0.517168384,-0.56447563,-0.819045335,-0.964666215,-1.194354535,-1.329845171,-1.292080621,-1.065745351,3090,"DG_s15",35.319,36.024,38.569,38.572,3,31,10,10,2.545,"Left",3,31,28,28,0,0,28,0,28,0,-28,-28,"Disadvent",-7,21,3,10,31,10
"284",10,"LIP1-LIP2",-0.3314313476,-0.4694260341,-0.5895261241,-0.4456612026,-0.3204516386,-0.2261747576,-0.1872996051,0.0313457494,0.2242217099,0.2207022664,0.3120564804,0.1579052304,-0.2280157126,-0.2941506076,-0.3194875631,3090,"DG_s15",35.319,36.024,38.569,38.572,3,31,10,10,2.545,"Left",3,31,28,28,0,0,28,0,28,0,-28,-28,"Disadvent",-7,21,3,10,31,10
"285",10,"LHH5-LHH6",-0.3845231305,-0.4155250255,-0.39202482495,-0.46267184145,-0.47974122845,-0.38885476145,-0.3341273755,-0.1042251855,0.0840073615,0.2565290145,0.290529977,0.142095362,0.021235971,-0.151761619,-0.453254664,3090,"DG_s15",35.319,36.024,38.569,38.572,3,31,10,10,2.545,"Left",3,31,28,28,0,0,28,0,28,0,-28,-28,"Disadvent",-7,21,3,10,31,10
"286",10,"LHB5-LHB6",0.198906314,0.194462429,0.1789425345,0.114657953,0.349548058,0.555186818,0.7524674125,0.625240379,0.543926554,0.5294377575,0.4013037625,0.4665166905,0.4526435705,0.2735964675,0.3946506525,3090,"DG_s15",35.319,36.024,38.569,38.572,3,31,10,10,2.545,"Left",3,31,28,28,0,0,28,0,28,0,-28,-28,"Disadvent",-7,21,3,10,31,10
"287",10,"LHB6-LHB7",-0.0732337175,0.0952615775,0.1957879875,0.2450208515,0.4227486475,0.486157541,0.359728331,0.427567514,0.167944184,-0.097491321,-0.050473271,-0.114467202,-0.038156692,-0.0968040101,-0.0238820801,3090,"DG_s15",35.319,36.024,38.569,38.572,3,31,10,10,2.545,"Left",3,31,28,28,0,0,28,0,28,0,-28,-28,"Disadvent",-7,21,3,10,31,10
"288",10,"LHH6-LHH7",0.7921456645,0.7311009095,0.3262607645,-0.0679074535,-0.0473623435,-0.0753608835,-0.1225815585,-0.0821716405,-0.1573813395,-0.2298366195,-0.279505811,-0.341953591,-0.527587097,-0.793951317,-0.7096252005,3090,"DG_s15",35.319,36.024,38.569,38.572,3,31,10,10,2.545,"Left",3,31,28,28,0,0,28,0,28,0,-28,-28,"Disadvent",-7,21,3,10,31,10
"289",10,"LHH4-LHH5",-0.53149574905,-0.5416412097,-0.4046653897,-0.3457146127,-0.2624999727,-0.34488497705,-0.53948365855,-0.53446956855,-0.31572960405,-0.15928127905,0.04158636245,0.02005817345,-0.15889003105,-0.27822307105,-0.43906980105,3090,"DG_s15",35.319,36.024,38.569,38.572,3,31,10,10,2.545,"Left",3,31,28,28,0,0,28,0,28,0,-28,-28,"Disadvent",-7,21,3,10,31,10
"290",10,"LHB7-LHB8",-0.04296902075,0.01510745075,0.03278199575,-0.1324079116,-0.1626939516,-0.2768145081,-0.3711132491,-0.14408734595,-0.10213264095,-0.29965172595,-0.32970008995,-0.5047136036,-0.4917393136,-0.3845382536,-0.2288543431,3090,"DG_s15",35.319,36.024,38.569,38.572,3,31,10,10,2.545,"Left",3,31,28,28,0,0,28,0,28,0,-28,-28,"Disadvent",-7,21,3,10,31,10
"291",11,"LAM2-LAM3",-0.4842125105505,-0.5795861005505,-0.5359562360505,-0.2517033360505,-0.0516220405,0.0699382555,0.24812512325,0.03277426325,-0.16126001675,-0.19455598275,-0.4763677055,-0.5300144905,-0.5251906205,-0.5242209005,-0.3825330077,3091,"DG_s15",39.573,40.278,43.833,43.835,10,10,3,12,3.555,"Left",3,12,9,0,9,9,9,0,0,0,-9,0,"10-10",7,-2,10,3,10,12
