"","trial","electrodes","pre_13","pre_12","pre_11","pre_10","pre_9","pre_8","pre_7","pre_6","pre_5","pre_4","pre_3","pre_2","pre_1","post_1","post_2","post_3","post_4","post_5","post_6","post_7","X","SID","newround_time","choice_time","buttonpress_time","reveal_time","self_payoff","other_payoff","self_foregone","other_foregone","RT","side_chosen","self_var_payoff","other_var_payoff","ineq_var_abs","ineq_choice_abs","ineq_foregone_abs","ineq_foregone","ineq_disadvent","ineq_advent","ineq_disadvent_choice","ineq_advent_choice","ineq_var","ineq_choice","chose_equality","self_diff","other_diff","L_self","R_self","L_other","R_other"
"1",1,"LAM1-LAM2",-0.469974577646465,-0.511201189646465,-0.639656968146465,-0.421418983646465,-0.341352778646465,-0.409183790146465,-0.415315559146465,-0.411439018646465,-0.572804018646465,-0.503541658646465,-0.491927864646465,-0.428040194646465,-0.190908651646465,0.0170883733535353,0.384661543353535,0.482023481853535,0.282915648853535,-0.0798805761464647,-0.300470546146465,-0.461992645396465,3081,"DG_s15",-0.702,0.00200000000007,2.082,2.084,10,10,6,6,2.08,"Left",6,6,0,0,0,0,0,0,0,0,0,0,"10-10",4,4,10,6,10,6
"2",1,"LHH5-LHH6",-0.268945700020202,-0.328694450020202,-0.219602395020202,-0.264562170020202,-0.096042018520202,-0.104566313520202,0.083679121479798,0.123966826479798,0.054765517979798,0.117848857979798,-0.066249279020202,-0.157233736520202,-0.182197206520202,-0.267876461520202,-0.260035084520202,-0.309875777020202,-0.338430017520202,-0.196654007520202,-0.195732480020202,0.128359026479798,3081,"DG_s15",-0.702,0.00200000000007,2.082,2.084,10,10,6,6,2.08,"Left",6,6,0,0,0,0,0,0,0,0,0,0,"10-10",4,4,10,6,10,6
"3",1,"LAM6-LAM7",0.234495970606061,-0.153657934793939,-0.115503509793939,-0.120524173293939,-0.101489178293939,-0.0635143703939394,-0.444687911893939,-0.315386035893939,-0.0335376379939394,-0.111271539993939,-0.141567314493939,-0.205357699493939,-0.436559381893939,-0.507480452393939,-0.346469178393939,-0.477588865893939,-0.393437790893939,-0.0545045228939394,0.0961767756060606,0.215664661606061,3081,"DG_s15",-0.702,0.00200000000007,2.082,2.084,10,10,6,6,2.08,"Left",6,6,0,0,0,0,0,0,0,0,0,0,"10-10",4,4,10,6,10,6
"4",1,"LAM7-LAM8",0.144707154639343,-0.00530778436065657,0.453876600639343,0.663024458934343,0.656709318434343,0.752388210584343,0.578672605584343,0.535897560584343,0.687083930584343,0.816171298434343,0.621433502434343,0.791645354934343,0.425180304934343,0.133340904934343,0.147615880934343,-0.197222551565657,-0.0377061815656566,0.0817788184343434,-0.132744312565657,-0.108662876115657,3081,"DG_s15",-0.702,0.00200000000007,2.082,2.084,10,10,6,6,2.08,"Left",6,6,0,0,0,0,0,0,0,0,0,0,"10-10",4,4,10,6,10,6
"5",1,"LAM2-LAM3",-0.011722470989899,0.027736927010101,0.016241663010101,0.275999743010101,0.312448700010101,0.240394877010101,0.305187518510101,-0.048248081489899,-0.217357781489899,-0.168731556489899,-0.145089918989899,0.036724255510101,0.014897160510101,0.016667765510101,-0.007853549489899,0.077236971010101,0.230035782510101,0.024596747510101,0.149961967510101,0.211646252510101,3081,"DG_s15",-0.702,0.00200000000007,2.082,2.084,10,10,6,6,2.08,"Left",6,6,0,0,0,0,0,0,0,0,0,0,"10-10",4,4,10,6,10,6
"6",1,"LHH6-LHH7",-1.29167972484343,-1.60794374484343,-1.55028970234343,-1.42232993234343,-1.12038630234343,-0.900863012343434,-1.01247486534343,-1.08398539084343,-1.20375707584343,-1.36780077834343,-1.00731129234343,-0.854557963748434,-0.953311888748434,-0.972430868748434,-1.08434857874843,-1.28132588734343,-1.14563548234343,-0.983449599843434,-1.02760276984343,-1.03299652434343,3081,"DG_s15",-0.702,0.00200000000007,2.082,2.084,10,10,6,6,2.08,"Left",6,6,0,0,0,0,0,0,0,0,0,0,"10-10",4,4,10,6,10,6
"7",1,"LAM3-LAM4",0.496050323181818,0.322790582681818,-0.0618078908181818,0.168168320681818,0.165018379557318,0.00151819005731819,0.194154828557318,0.221858728557318,0.339119714681818,0.655433054681818,0.374785296181818,0.376132919681818,0.540414941681818,0.289553234681818,0.494578321181818,0.102296661181818,-0.0446819008181818,0.459705116181818,0.580917145181818,0.627159595181818,3081,"DG_s15",-0.702,0.00200000000007,2.082,2.084,10,10,6,6,2.08,"Left",6,6,0,0,0,0,0,0,0,0,0,0,"10-10",4,4,10,6,10,6
"8",1,"LHH7-LHH8",-0.686349410363636,-0.974513935363636,-0.979974913863636,-1.07546968386364,-0.933163431363636,-0.720442371363636,-0.819387028863636,-0.532140383363636,-0.579484351363636,-0.770584111363636,-0.533515760863636,-0.601457601863636,-0.723319713863636,-0.491873122363636,-0.391931435363636,-0.426710104863636,-0.171256811363636,-0.0849794528636364,-0.247312778863636,-0.393157728863636,3081,"DG_s15",-0.702,0.00200000000007,2.082,2.084,10,10,6,6,2.08,"Left",6,6,0,0,0,0,0,0,0,0,0,0,"10-10",4,4,10,6,10,6
"9",1,"LIP5-LIP6",0.310360078639394,0.389303199939394,0.442605741939394,0.214092251939394,0.584929071939394,0.326377703439394,0.0499890504393939,-0.0759085145606061,-0.0608512945606061,-0.0560963660606061,0.0639684939393939,0.111941147439394,-0.214409372560606,0.0584075524393939,0.124423272439394,0.152293719939394,0.337572936439394,0.139964666439394,0.105477373439394,0.161490531439394,3081,"DG_s15",-0.702,0.00200000000007,2.082,2.084,10,10,6,6,2.08,"Left",6,6,0,0,0,0,0,0,0,0,0,0,"10-10",4,4,10,6,10,6
"10",1,"LAM4-LAM5",-0.558689321919192,-0.695379246919192,-0.757216561919192,-0.653258961819192,-0.568265346819192,-0.733991996819192,-0.698176019319192,-0.625429749419192,-0.813678074419192,-0.640851814419192,-0.659731416419192,-0.806766871419192,-0.467649821419192,-0.331956716419192,-0.280148774769192,0.0309813052308081,0.0408808052308081,-0.0677407697691919,-0.170101309069192,-0.418406640569192,3081,"DG_s15",-0.702,0.00200000000007,2.082,2.084,10,10,6,6,2.08,"Left",6,6,0,0,0,0,0,0,0,0,0,0,"10-10",4,4,10,6,10,6
"11",1,"LIP1-LIP2",0.437257426661616,0.536801039661616,0.799846204661616,1.04001803916162,0.790350791661616,0.918503393661616,0.683674958661616,0.503582905161616,0.771186302661616,0.761387702661616,1.12044244366162,1.28951163316162,1.58082953316162,1.64682031316162,1.30521954216162,1.13492333116162,0.714691046161616,0.591062991161616,0.451779491161616,0.356066331161616,3081,"DG_s15",-0.702,0.00200000000007,2.082,2.084,10,10,6,6,2.08,"Left",6,6,0,0,0,0,0,0,0,0,0,0,"10-10",4,4,10,6,10,6
"12",1,"LHB4-LHB5",0.252571229964646,0.513652654964647,0.466207831914646,0.238190840414646,0.0893436654146465,-0.0953770105853535,0.00231608876464647,-0.129226894735354,-0.160108414735354,-0.0520577932353535,0.0629624754646465,0.258353915464646,0.354105024464646,0.226798071864646,0.00854421886464646,-0.0519350711353535,-0.333430475135354,-0.413357793035354,-0.266246355035354,-0.316974416985354,3081,"DG_s15",-0.702,0.00200000000007,2.082,2.084,10,10,6,6,2.08,"Left",6,6,0,0,0,0,0,0,0,0,0,0,"10-10",4,4,10,6,10,6
"13",1,"LAM5-LAM6",0.61490653270202,0.27721020520202,0.19237965770202,0.63844274770202,0.21388220120202,0.13908829870202,0.22558908370202,-0.14573900629798,-0.33213984379798,-0.29773715879798,-0.0980218187979798,-0.14763796379798,-0.14003825679798,-0.0564662067979798,-0.16043162779798,0.18278820720202,0.49892953690202,0.41083753690202,0.34223998090202,0.16642151790202,3081,"DG_s15",-0.702,0.00200000000007,2.082,2.084,10,10,6,6,2.08,"Left",6,6,0,0,0,0,0,0,0,0,0,0,"10-10",4,4,10,6,10,6
"14",1,"LIP2-LIP3",0.571664167969697,0.659751712969697,0.740481897969697,0.565941632969697,0.567618258569697,0.437114643569697,0.367749714419697,0.445532229419697,0.403378377819697,0.597279247819697,0.763599826969697,0.424328277469697,0.379868667469697,0.161231397469697,-0.125692347530303,-0.056704758030303,0.093439441469697,0.413539701469697,0.334137871469697,0.667616916469697,3081,"DG_s15",-0.702,0.00200000000007,2.082,2.084,10,10,6,6,2.08,"Left",6,6,0,0,0,0,0,0,0,0,0,0,"10-10",4,4,10,6,10,6
"15",1,"LHH4-LHH5",-0.166990499979798,-0.239765594979798,-0.286970036479798,-0.226220531479798,-0.115698433479798,-0.258987268479798,-0.083195425979798,0.058100484020202,-0.156454338129798,-0.067154123129798,-0.070883615129798,-0.235097665129798,-0.091389977979798,0.053225767020202,-0.058385133979798,0.075680361020202,-0.00789809302979796,-0.068742468029798,-0.165339525529798,-0.087669973929798,3081,"DG_s15",-0.702,0.00200000000007,2.082,2.084,10,10,6,6,2.08,"Left",6,6,0,0,0,0,0,0,0,0,0,0,"10-10",4,4,10,6,10,6
"16",1,"LHB5-LHB6",0.279085141355556,0.376104976355556,0.406528416355556,0.493578828555556,0.304417568555556,0.221186778555556,0.225747030555556,0.337821855555556,0.349599120555556,0.408256280555556,0.415033270555556,0.222096156055556,0.0490283835555555,0.0140116435555555,-0.181896736444444,-0.172529906944444,0.0290155325555555,-0.0157846812444445,0.372486763755556,0.507359207755556,3081,"DG_s15",-0.702,0.00200000000007,2.082,2.084,10,10,6,6,2.08,"Left",6,6,0,0,0,0,0,0,0,0,0,0,"10-10",4,4,10,6,10,6
"17",1,"LHB6-LHB7",0.597826419348485,0.343763514348485,0.441670884348485,0.302315504348485,0.640294429848485,1.07546892984848,0.978018424348485,1.02573849234848,0.724418305348485,0.292157255348485,-0.0520014141515152,-0.387114502151515,-0.432480928651515,-0.228370629151515,0.144872420848485,0.626700000848485,1.22804279934848,1.35774699984849,1.01962463984848,0.787328509848485,3081,"DG_s15",-0.702,0.00200000000007,2.082,2.084,10,10,6,6,2.08,"Left",6,6,0,0,0,0,0,0,0,0,0,0,"10-10",4,4,10,6,10,6
"18",1,"LIP4-LIP5",0.638079097186869,0.713263352186869,0.263692427686869,0.0235301041868687,0.0328461370868687,-0.433639422413131,-0.243350195413131,0.225568389586869,0.271154746686869,0.391952551186869,0.370512145686869,0.0363999636868687,-0.0247091813131313,0.0738836186868687,0.197906121686869,0.0968136536868687,0.0712666271868687,-0.0448810078131313,-0.310912617813131,-0.350751793813131,3081,"DG_s15",-0.702,0.00200000000007,2.082,2.084,10,10,6,6,2.08,"Left",6,6,0,0,0,0,0,0,0,0,0,0,"10-10",4,4,10,6,10,6
"19",1,"LAM9-LAM10",0.597251136328283,0.773420970828283,0.712207080328283,0.397886301328283,0.324836901328283,0.112238681828283,0.294628338828283,0.325183732828283,0.264559293328283,0.217669173328283,-0.0138394118217172,-0.166392926821717,0.0704752862282828,0.281175894728283,0.520640129878283,0.908268474878283,0.827380656328283,0.733623227828283,0.672637657828283,0.489392417828283,3081,"DG_s15",-0.702,0.00200000000007,2.082,2.084,10,10,6,6,2.08,"Left",6,6,0,0,0,0,0,0,0,0,0,0,"10-10",4,4,10,6,10,6
"20",1,"LHB7-LHB8",0.779746768742424,0.539637801742424,0.661992871742424,0.858283005242424,0.754625904742424,0.730249783742424,0.614875927742424,0.490845803242424,0.707463908742424,0.803614433242424,0.673776094242424,0.513319022442424,0.447515357442424,0.566210552942424,0.529461287942424,0.976587337242424,1.29762893224242,1.35272823324242,1.42490495874242,1.07436493724242,3081,"DG_s15",-0.702,0.00200000000007,2.082,2.084,10,10,6,6,2.08,"Left",6,6,0,0,0,0,0,0,0,0,0,0,"10-10",4,4,10,6,10,6
"21",1,"LAM8-LAM9",1.00239397834848,0.947340651198485,0.650510486198485,0.326046925698485,0.211546617698485,0.300412854848485,0.645976219848485,0.863603894848485,0.939307394848485,0.724041024848485,0.455786511348485,0.273930504848485,0.162181824848485,0.188729384848485,0.0851591383484848,-0.0197216301515151,0.0564335543484848,0.226184894348485,0.383533222848485,0.445443931848485,3081,"DG_s15",-0.702,0.00200000000007,2.082,2.084,10,10,6,6,2.08,"Left",6,6,0,0,0,0,0,0,0,0,0,0,"10-10",4,4,10,6,10,6
"22",1,"LIP7-LIP8",-0.739196789020202,-0.775694734020202,-0.588871199020202,-0.892501709020202,-0.728032012020202,-0.435595562020202,-0.433318872020202,0.367871812979798,0.284538184979798,0.196001929979798,0.139584154979798,-0.448256780020202,-0.671180427020202,-0.786967207020202,-0.947728127020202,-1.1045949570202,-1.1086025720202,-1.2131428020202,-1.1193942660202,-1.1771032710202,3081,"DG_s15",-0.702,0.00200000000007,2.082,2.084,10,10,6,6,2.08,"Left",6,6,0,0,0,0,0,0,0,0,0,0,"10-10",4,4,10,6,10,6
"23",1,"LTT8-LTT9",0.00841871862121213,0.0858482886212121,0.0596748886212121,-0.0793474578787878,0.280988582121212,0.302997267121212,0.446922566121212,0.488880751121212,0.490421121121212,0.245080557621212,0.258552945621212,0.373861450621212,0.200429265121212,0.258082318621212,0.155349481121212,-0.0680512388787878,-0.137993158378788,0.0395876316212121,0.211575500471212,0.376577255471212,3081,"DG_s15",-0.702,0.00200000000007,2.082,2.084,10,10,6,6,2.08,"Left",6,6,0,0,0,0,0,0,0,0,0,0,"10-10",4,4,10,6,10,6
"24",1,"LIP6-LIP7",-0.890533881863636,-0.873855421863636,-0.727513619863636,-0.703830251363636,-0.453841372863636,-0.445981272863636,-0.504329839863636,-0.440085293363636,-0.333391533363636,-0.384414824863636,-0.481703692863636,-0.796102632863636,-1.12527691036364,-1.12315150386364,-0.955042565363636,-0.463335770363636,-0.407822431363636,-0.418786476363636,-0.441453774863636,-0.893904313863636,3081,"DG_s15",-0.702,0.00200000000007,2.082,2.084,10,10,6,6,2.08,"Left",6,6,0,0,0,0,0,0,0,0,0,0,"10-10",4,4,10,6,10,6
"25",1,"LIP8-LIP9",0.399370682732323,0.179319856732323,0.248818460732323,0.237853585732323,0.365242320732323,0.414650708232323,0.359507255232323,0.475790852232323,0.452700602732323,0.422304322732323,0.173590570732323,0.162621986732323,0.274069310732323,0.271022278232323,0.208543238232323,0.176725665232323,-0.00254634426767675,0.0920554812323232,0.432847036232323,0.424824459732323,3081,"DG_s15",-0.702,0.00200000000007,2.082,2.084,10,10,6,6,2.08,"Left",6,6,0,0,0,0,0,0,0,0,0,0,"10-10",4,4,10,6,10,6
"26",1,"LTT9-LTT10",0.58776521130101,0.92183760510101,1.04768867515101,0.76027634015101,0.56583281165101,0.45145076165101,0.44845284660101,0.67367403160101,0.63430948510101,0.56883110610101,0.51650053860101,0.29580354360101,0.13171646860101,0.0748356386010101,-0.0045811338989899,0.28582217110101,0.74028148110101,0.68660187010101,0.78898119010101,0.59889851010101,3081,"DG_s15",-0.702,0.00200000000007,2.082,2.084,10,10,6,6,2.08,"Left",6,6,0,0,0,0,0,0,0,0,0,0,"10-10",4,4,10,6,10,6
"27",1,"LHB9-LHB10",0.222066321424242,0.0169955164242424,-0.0454056425757576,-0.411063382075758,-0.168850122075758,-0.201553372075758,-0.151795767075758,-0.157651677575758,-0.385063851575758,-0.294627591575758,-0.405733996575758,-0.618371955575758,-0.597870277575758,-0.656710042575758,-0.376570838575758,-0.169762389575758,-0.104660780075758,-0.265940498075758,-0.560220202075758,-0.787888692075758,3081,"DG_s15",-0.702,0.00200000000007,2.082,2.084,10,10,6,6,2.08,"Left",6,6,0,0,0,0,0,0,0,0,0,0,"10-10",4,4,10,6,10,6
"28",1,"LHB8-LHB9",0.492301538017677,0.342294883017677,0.235652043017677,0.294983529817677,0.398071655417677,0.475956038917677,0.504966616917677,0.448783831917677,0.434122617267677,0.583284623767677,0.514920160767677,0.303568360767677,0.134117301767677,-0.0467009482323232,0.00814433176767682,0.290093403267677,0.907116013267677,0.928132172567677,0.980566192567677,0.813406486067677,3081,"DG_s15",-0.702,0.00200000000007,2.082,2.084,10,10,6,6,2.08,"Left",6,6,0,0,0,0,0,0,0,0,0,0,"10-10",4,4,10,6,10,6
"29",1,"LIP3-LIP4",-0.0759177897070707,-0.00972143570707071,-0.285970726707071,-0.451290748707071,-0.469379443707071,-0.202892522707071,-0.0545947692070707,0.181747542792929,0.164947226792929,0.0573354367929293,0.106326868292929,0.000876953292929278,-0.292521950707071,-0.381925766707071,-0.342941624707071,-0.466336709707071,-0.411389439707071,-0.228686413707071,-0.312530541607071,-0.170208326607071,3081,"DG_s15",-0.702,0.00200000000007,2.082,2.084,10,10,6,6,2.08,"Left",6,6,0,0,0,0,0,0,0,0,0,0,"10-10",4,4,10,6,10,6
"30",2,"LIP1-LIP2",0.853377095191919,0.420840296691919,0.0548821971919192,-0.208205199308081,-0.534544042758081,-0.481222703258081,-0.0958303882580808,-0.0729720282580808,-0.111102682808081,0.0113392961919192,-0.152446943308081,-0.361571633308081,-0.427989272258081,-0.196135792258081,-0.389668627758081,-0.285380117758081,-0.160874649808081,-0.560953134808081,-0.452616240308081,-0.436669140308081,3082,"DG_s15",3.085,3.791,6.023,6.025,18,18,10,10,2.232,"Right",18,18,0,0,0,0,0,0,0,0,0,0,"Equal",8,8,10,18,10,18
"31",2,"LHH7-LHH8",0.440502188232323,0.287897123232323,0.132705278232323,0.135511941882323,-0.00630077811767676,-0.106479508117677,-0.129313403117677,-0.164421366767677,0.155792773232323,0.665459173232323,0.769244935232323,0.625294230232323,0.302486625232323,-0.0740459147676768,-0.0325529607676768,0.300603939232323,0.736465954232323,0.631501594232323,0.606364312232323,0.461075987232323,3082,"DG_s15",3.085,3.791,6.023,6.025,18,18,10,10,2.232,"Right",18,18,0,0,0,0,0,0,0,0,0,0,"Equal",8,8,10,18,10,18
"32",2,"LIP4-LIP5",0.0800707032121212,-0.314396536787879,-0.291427821787879,-0.323971913887879,-0.431825892887879,-0.324336135387879,-0.359394203887879,-0.338273133287879,-0.242598688287879,-0.303876410787879,-0.270643962287879,-0.167553278787879,0.152657739562121,0.403282229562121,0.426244674562121,0.469388479562121,0.243801274212121,0.189659804212121,-0.0329879757878788,-0.256484640787879,3082,"DG_s15",3.085,3.791,6.023,6.025,18,18,10,10,2.232,"Right",18,18,0,0,0,0,0,0,0,0,0,0,"Equal",8,8,10,18,10,18
"33",2,"LHH5-LHH6",-0.226119346792929,-0.0675578967929293,0.0639737217070707,-0.108078833292929,-0.315898271292929,-0.370223654292929,-0.361292035292929,-0.0373888052929293,0.242952805207071,0.516323033207071,0.614715981207071,0.288621621207071,0.252519606357071,0.766342156357071,0.827063462477071,0.892844367477071,0.786173737327071,-0.0226529241729293,-0.197288826792929,-0.231692521792929,3082,"DG_s15",3.085,3.791,6.023,6.025,18,18,10,10,2.232,"Right",18,18,0,0,0,0,0,0,0,0,0,0,"Equal",8,8,10,18,10,18
"34",2,"LAM1-LAM2",-0.132575577217172,-0.0736018862171717,-0.143957916217172,-0.168757936217172,-0.121842448217172,-0.246791688717172,-0.416568166717172,-0.567700671717172,-0.557973704717172,-0.520065950717172,-0.513638770717172,-0.474045786717172,-0.455145167217172,-0.520344540717172,-0.359271802717172,-0.0354034317171717,0.0314130037828283,0.253280713282828,0.0905175882828283,-0.170987906717172,3082,"DG_s15",3.085,3.791,6.023,6.025,18,18,10,10,2.232,"Right",18,18,0,0,0,0,0,0,0,0,0,0,"Equal",8,8,10,18,10,18
"35",2,"LIP7-LIP8",0.46730248040404,0.41857143040404,0.0345800304040404,-0.24196455459596,-0.0561440645959596,-0.10823134209596,0.29686400290404,0.38790584140404,0.63515552640404,0.65616039210404,0.39352345210404,0.46129145860404,0.35727716410404,0.39824410990404,0.45659336490404,0.14897482990404,-0.24132010059596,-0.31676165609596,-0.52846146609596,-0.38792842109596,3082,"DG_s15",3.085,3.791,6.023,6.025,18,18,10,10,2.232,"Right",18,18,0,0,0,0,0,0,0,0,0,0,"Equal",8,8,10,18,10,18
"36",2,"LIP2-LIP3",0.183390577272727,0.143558266772727,0.0537667867727273,0.221926609272727,0.144726414272727,0.0448322797727273,0.0621541397727273,0.208952587272727,0.251103850272727,0.214418150272727,0.598365415272727,0.598043965272727,0.687305007272727,1.03514380727273,0.715645867272727,0.267646859272727,0.473482889272727,0.214202018772727,0.173071883772727,0.276761906772727,3082,"DG_s15",3.085,3.791,6.023,6.025,18,18,10,10,2.232,"Right",18,18,0,0,0,0,0,0,0,0,0,0,"Equal",8,8,10,18,10,18
"37",2,"LAM7-LAM8",-0.070071638979798,-0.118387066479798,-0.277962329979798,-0.335092729979798,-0.428395548479798,-0.417471807479798,-0.483318539979798,-0.588095248979798,-0.294026455479798,-0.315802813979798,-0.015381302979798,0.00971260652020201,-0.285908803479798,-0.422740952979798,-0.835110902979798,-0.616477683479798,-0.646650718479798,-0.189344513479798,-0.147410708979798,-0.180059423479798,3082,"DG_s15",3.085,3.791,6.023,6.025,18,18,10,10,2.232,"Right",18,18,0,0,0,0,0,0,0,0,0,0,"Equal",8,8,10,18,10,18
"38",2,"LAM8-LAM9",-0.921629030610101,-0.420416980610101,-0.240898576110101,-0.434506989610101,-0.413936867010101,-0.688214495260101,-0.657273894260101,-0.470269412260101,-0.429533452260101,-0.447149297510101,-0.436223497510101,-0.373981729510101,-0.394748589010101,-0.351358140510101,-0.522328835510101,-0.523826445510101,-0.297563851010101,-0.107976176010101,0.0961999289898989,0.018827655989899,3082,"DG_s15",3.085,3.791,6.023,6.025,18,18,10,10,2.232,"Right",18,18,0,0,0,0,0,0,0,0,0,0,"Equal",8,8,10,18,10,18
"39",2,"LTT9-LTT10",-0.641686991505051,-0.846853601005051,-0.821487384505051,-0.805817606505051,-0.592780591505051,-0.558895759305051,-0.600953434305051,-0.298664441805051,-0.327601286805051,-0.369355841505051,-0.331776421505051,-0.515773896505051,-0.491996552005051,-0.515512561005051,-0.727295951005051,-0.676198406005051,-0.860752339005051,-0.901012122505051,-0.674014192505051,-0.909645822505051,3082,"DG_s15",3.085,3.791,6.023,6.025,18,18,10,10,2.232,"Right",18,18,0,0,0,0,0,0,0,0,0,0,"Equal",8,8,10,18,10,18
"40",2,"LTT8-LTT9",-0.163286589378788,-0.234049429378788,-0.220522765378788,-0.291725712878788,-0.543882352378788,-0.486101236378788,-0.463101286378788,-0.146917857878788,0.0740876366212121,0.00777117662121213,-0.0859296906787879,-0.220239658178788,-0.140384338178788,0.0743180368212121,0.212260584621212,0.131963753621212,-0.192720463378788,-0.166110179378788,-0.284062149878788,-0.144013906878788,3082,"DG_s15",3.085,3.791,6.023,6.025,18,18,10,10,2.232,"Right",18,18,0,0,0,0,0,0,0,0,0,0,"Equal",8,8,10,18,10,18
"41",2,"LHB8-LHB9",-0.00164125075757576,0.0366084492424242,-0.0701099077575758,0.177868112242424,0.385468107242424,0.273677228742424,0.455811645742424,0.532126362242424,0.475295977242424,0.501147682242424,0.404010142242424,0.0250051957424242,-0.0486245282575758,0.178606547742424,0.181399487742424,0.201167437742424,0.0537643267424242,-0.146774890757576,0.130536869242424,0.339008868742424,3082,"DG_s15",3.085,3.791,6.023,6.025,18,18,10,10,2.232,"Right",18,18,0,0,0,0,0,0,0,0,0,0,"Equal",8,8,10,18,10,18
"42",2,"LHH4-LHH5",0.0573629228030303,0.28791237280303,0.40512504615303,0.30602077415303,0.28395478680303,-0.12029250819697,-0.11360026669697,-0.10980020469697,-0.19473742969697,0.0999710153030303,0.0463169553030303,0.0038065253030303,0.16332151030303,0.34559306530303,0.24502312180303,0.28232744680303,0.17594727230303,-0.0713367876969697,-0.23024442304697,-0.26427838304697,3082,"DG_s15",3.085,3.791,6.023,6.025,18,18,10,10,2.232,"Right",18,18,0,0,0,0,0,0,0,0,0,0,"Equal",8,8,10,18,10,18
"43",2,"LAM5-LAM6",0.778622661323232,0.576068721323232,0.691847109823232,0.643996346823232,0.326451291823232,0.312452171823232,0.133507971323232,0.0370081863232323,0.328639966823232,0.477396046823232,0.338939446323232,0.704552762823232,0.799897217323232,0.769878026073232,0.913072520073232,0.653667525073232,0.582940165073232,0.390450811323232,0.456240276823232,0.608339881823232,3082,"DG_s15",3.085,3.791,6.023,6.025,18,18,10,10,2.232,"Right",18,18,0,0,0,0,0,0,0,0,0,0,"Equal",8,8,10,18,10,18
"44",2,"LHB9-LHB10",0.360922698146465,0.487179948146465,0.375694609646465,0.316246248146465,-0.187166151853535,-0.214077851853535,-0.109728731353535,0.138149946646465,0.329690097646465,0.557227462646465,0.554441633646465,0.472748511646465,0.422778190646465,0.0560169706464647,0.133737315146465,0.00425590414646465,0.0781882991464647,0.385658784146465,0.322472299646465,0.247356686646465,3082,"DG_s15",3.085,3.791,6.023,6.025,18,18,10,10,2.232,"Right",18,18,0,0,0,0,0,0,0,0,0,0,"Equal",8,8,10,18,10,18
"45",2,"LHB4-LHB5",0.428106573777778,-0.0658860547222222,-0.122185245722222,-0.397648650722222,-0.558582556222222,-0.443341357722222,-0.478243327722222,-0.262412487722222,-0.317962014722222,-0.201182464722222,0.250318835277778,0.500934880277778,0.987827627777778,1.20802260777778,1.05289599777778,0.680667232777778,0.433376337777778,0.145693187777778,0.0316083902777778,0.151440540277778,3082,"DG_s15",3.085,3.791,6.023,6.025,18,18,10,10,2.232,"Right",18,18,0,0,0,0,0,0,0,0,0,0,"Equal",8,8,10,18,10,18
"46",2,"LAM6-LAM7",0.323680521520202,0.249099380520202,-0.144311021479798,-0.564945186479798,-0.425078301979798,-0.332659220979798,-0.100452441479798,0.058314343020202,-0.025821994979798,-0.051758787479798,0.067646915020202,-0.085304668129798,-0.047292913129798,0.016315570870202,0.017776225870202,0.198129744520202,0.202313908520202,0.550379647020202,0.204294419120202,0.173273521120202,3082,"DG_s15",3.085,3.791,6.023,6.025,18,18,10,10,2.232,"Right",18,18,0,0,0,0,0,0,0,0,0,0,"Equal",8,8,10,18,10,18
"47",2,"LHH6-LHH7",0.402072678153535,0.0712604406535353,-0.152846492146465,-0.475149896146465,-0.756565596146465,-0.717229771146465,-0.810785751146465,-0.685243289646465,-0.0886355301464646,0.201163524853535,0.330759889853535,0.207907077853535,-0.346702246646465,-0.401172196646465,-0.0235830366464647,-0.0748544591464646,-0.161373074146465,-0.0231089291464647,-0.597532812646465,-0.324078078146465,3082,"DG_s15",3.085,3.791,6.023,6.025,18,18,10,10,2.232,"Right",18,18,0,0,0,0,0,0,0,0,0,0,"Equal",8,8,10,18,10,18
"48",2,"LAM2-LAM3",0.226212241666667,-0.0864247683333333,-0.0776844898333333,-0.549880779833333,-0.276398444833333,-0.0164499723333333,0.219521414166667,0.345083860166667,0.501182795166667,0.447186512666667,0.0949170976666667,0.117165021666667,-0.339068363333333,-0.467496951533333,-0.230518556533333,-0.315292306533333,-0.265408956533333,-0.244670404333333,-0.396512684333333,-0.281829304333333,3082,"DG_s15",3.085,3.791,6.023,6.025,18,18,10,10,2.232,"Right",18,18,0,0,0,0,0,0,0,0,0,0,"Equal",8,8,10,18,10,18
"49",2,"LIP3-LIP4",-0.32422309559596,-0.46338453609596,-0.51621973259596,-0.47503429959596,-0.59746313009596,-0.62941383359596,-0.56714997209596,-0.30806854209596,-0.22664222309596,-0.16535371409596,-0.33526879109596,-0.34418195609596,-0.0499464695959596,0.35609093040404,0.64298049540404,0.41235687040404,0.0844860054040404,-0.0970246045959596,-0.14269940459596,-0.27549335459596,3082,"DG_s15",3.085,3.791,6.023,6.025,18,18,10,10,2.232,"Right",18,18,0,0,0,0,0,0,0,0,0,0,"Equal",8,8,10,18,10,18
"50",2,"LAM3-LAM4",0.945529558333333,0.592112798333333,0.346569863333333,0.337402208333333,0.412867498333333,0.381933759833333,0.366288154833333,0.100694209833333,-0.0490389156666667,-0.0776356921666667,0.159781737833333,0.276169097833333,0.303891470833333,0.418783585833333,0.343339173833333,0.442486403833333,0.375882509333333,0.474958621333333,0.438680658333333,0.386055748833333,3082,"DG_s15",3.085,3.791,6.023,6.025,18,18,10,10,2.232,"Right",18,18,0,0,0,0,0,0,0,0,0,0,"Equal",8,8,10,18,10,18
"51",2,"LHB5-LHB6",0.415975795727273,0.181832600727273,0.159844209227273,0.0213580797272727,0.00233474472727274,0.00964411972727275,0.373054248227273,0.410847105527273,0.719168125527273,0.855529375027273,0.600423030177273,0.717270207377273,0.719531639377273,1.13801560987727,1.32962489472727,1.50237894972727,1.22964250722727,0.587259982227273,0.548174277227273,0.229916760227273,3082,"DG_s15",3.085,3.791,6.023,6.025,18,18,10,10,2.232,"Right",18,18,0,0,0,0,0,0,0,0,0,0,"Equal",8,8,10,18,10,18
"52",2,"LIP6-LIP7",0.174952571130303,0.091332744030303,-0.320984905969697,-0.314373325969697,-0.140115125969697,0.127715843030303,0.633471693030303,0.624556460530303,0.772142360530303,0.645878371030303,0.252840991030303,0.186574748530303,-0.00447542646969697,-0.186479906969697,-0.075918095469697,-0.044367935469697,-0.145043995469697,0.167665079530303,0.211962918030303,0.288799911030303,3082,"DG_s15",3.085,3.791,6.023,6.025,18,18,10,10,2.232,"Right",18,18,0,0,0,0,0,0,0,0,0,0,"Equal",8,8,10,18,10,18
"53",2,"LAM4-LAM5",-1.21922103123737,-1.06761832873737,-0.856472476237374,-0.781477091237374,-0.666785796237374,-0.903067051237374,-1.08055881873737,-0.815499668737374,-0.434227758737374,-0.658208583737374,-0.801782653737374,-1.49829450373737,-1.80108384973737,-1.15015606973737,-0.840389489737374,-0.368343839737374,-0.535692289737374,-0.970665989237374,-1.31091066923737,-1.65445139423737,3082,"DG_s15",3.085,3.791,6.023,6.025,18,18,10,10,2.232,"Right",18,18,0,0,0,0,0,0,0,0,0,0,"Equal",8,8,10,18,10,18
"54",2,"LIP8-LIP9",0.267716569222222,0.307855819222222,0.0172804682222222,0.0750394462222222,0.119232495722222,-0.0301953402777778,0.124738724222222,0.0785173542222222,0.297450169722222,0.209006650222222,-0.0352970282777778,-0.251835668277778,-0.326239021277778,-0.175576835777778,0.0775133792222222,0.172419129222222,0.0390166577722222,-0.196125427227778,-0.360518152227778,-0.268355960227778,3082,"DG_s15",3.085,3.791,6.023,6.025,18,18,10,10,2.232,"Right",18,18,0,0,0,0,0,0,0,0,0,0,"Equal",8,8,10,18,10,18
"55",2,"LIP5-LIP6",0.140633665131313,0.0378788431313131,-0.0941058668686869,-0.329310576868687,-0.573416026868687,-0.806683261868687,-0.724510622368687,-0.485935952368687,-0.507857092368687,-0.449674112368687,-0.378547966868687,-0.558580561868687,-0.380928729918687,-0.305450427163687,-0.239998187163687,-0.290376571163687,-0.626162813113687,-0.690108805868687,-0.749674952868687,-0.667355589618687,3082,"DG_s15",3.085,3.791,6.023,6.025,18,18,10,10,2.232,"Right",18,18,0,0,0,0,0,0,0,0,0,0,"Equal",8,8,10,18,10,18
"56",2,"LHB6-LHB7",0.516657032626263,0.418335970541263,0.106780220541263,-0.140453129458737,-0.288723709458737,-0.278940362373737,-0.144748355873737,0.261856204126263,0.977553054126263,1.18697887912626,1.14131482762626,0.950583132626263,0.484325912626263,0.343719115726263,0.532908735726263,0.504857670226263,0.581127840226263,0.565446074626263,0.614122014626263,0.563793975126263,3082,"DG_s15",3.085,3.791,6.023,6.025,18,18,10,10,2.232,"Right",18,18,0,0,0,0,0,0,0,0,0,0,"Equal",8,8,10,18,10,18
"57",2,"LAM9-LAM10",0.80906642920202,0.63267510920202,0.46603066720202,0.30507740320202,-0.0166995317979798,-0.15295106679798,-0.14333731479798,-0.0340640847979798,-0.0181337757979798,0.0470431342020202,-0.0578115107979798,-0.24450376029798,-0.0478646842979798,0.18890704070202,0.18886164670202,0.30460586850202,0.15902011850202,0.0870153885020202,0.0604998625020202,-0.0882947002979798,3082,"DG_s15",3.085,3.791,6.023,6.025,18,18,10,10,2.232,"Right",18,18,0,0,0,0,0,0,0,0,0,0,"Equal",8,8,10,18,10,18
"58",2,"LHB7-LHB8",0.0857953668434343,0.0336723653434343,-0.0465721271565657,-0.334236200656566,-0.332727500656566,-0.235780306656566,-0.240649229156566,0.289462144343434,0.771287735843434,0.571474460843434,0.375402775843434,-0.155280924156566,-0.608343403156566,-0.320554069156566,-0.142486904156566,-0.211437604156566,-0.0620310106565657,-0.384313494656566,-0.261205774656566,-0.0939837526565657,3082,"DG_s15",3.085,3.791,6.023,6.025,18,18,10,10,2.232,"Right",18,18,0,0,0,0,0,0,0,0,0,0,"Equal",8,8,10,18,10,18
"59",3,"LAM2-LAM3",-0.053845408989899,-0.074998752489899,-0.034878845489899,-0.246792590489899,0.101626392010101,0.251660431010101,0.321694781010101,0.367981091010101,0.227527891010101,0.059243151010101,0.029903586010101,-0.034201698989899,0.032389096010101,0.188151776010101,0.122639626010101,0.308365411010101,0.259745971010101,0.176328848510101,0.142531601510101,0.343851611510101,3083,"DG_s15",7.026,7.731,9.383,9.385,10,26,10,10,1.652,"Right",10,26,16,16,0,0,16,0,16,0,-16,-16,"Disadvent",0,16,10,10,10,26
"60",3,"LHB8-LHB9",0.597323565878788,0.428432750878788,0.268539569378788,0.0742353803787879,0.260286402378788,0.254959157378788,0.204134009378788,0.546711326378788,0.333750688378788,0.305964853378788,0.345036476378788,-0.105776308621212,-0.152958614621212,0.0333904953787879,0.267479570378788,0.506214265378788,0.795060435878788,0.770502895878788,0.517355375878788,0.461945890878788,3083,"DG_s15",7.026,7.731,9.383,9.385,10,26,10,10,1.652,"Right",10,26,16,16,0,0,16,0,16,0,-16,-16,"Disadvent",0,16,10,10,10,26
"61",3,"LAM7-LAM8",-0.317295951626263,-0.388726511626263,-0.308746004476263,-0.192038569476263,-0.0212675944762626,-0.0776636994762626,0.164721097373737,0.103141905423737,-0.100531564576263,-0.235587104576263,-0.526999194576263,-0.451357842626263,-0.324141337626263,-0.352036680416263,-0.285386771916263,-0.337567766916263,-0.386994886916263,-0.240401579126263,-0.331125302126263,-0.346111178126263,3083,"DG_s15",7.026,7.731,9.383,9.385,10,26,10,10,1.652,"Right",10,26,16,16,0,0,16,0,16,0,-16,-16,"Disadvent",0,16,10,10,10,26
"62",3,"LAM4-LAM5",0.0608042496464646,0.184183097646465,0.275888527646465,0.228880097646465,0.157347697646465,0.349064924646465,0.411210934646465,0.0609705146464646,-0.146293905353535,-0.466114330353535,-0.682030060353535,-0.448359941703535,-0.316666481703535,0.0195935482964646,0.161515408296465,-0.0694146603535354,-0.180830035153535,-0.277823306653535,-0.303917386653535,-0.0969447716535354,3083,"DG_s15",7.026,7.731,9.383,9.385,10,26,10,10,1.652,"Right",10,26,16,16,0,0,16,0,16,0,-16,-16,"Disadvent",0,16,10,10,10,26
"63",3,"LHB9-LHB10",0.678440744949495,0.821234472949495,0.890886036449495,0.805154686449495,0.720518486449495,1.06802400844949,1.17737977494949,1.12610936744949,1.06373196744949,1.14920981744949,1.36421540244949,1.1090019852495,0.765030830249495,0.564040280249495,0.0943518352494949,0.147172211949495,0.348847652449495,0.124175837449495,0.298215692449495,0.361988940449495,3083,"DG_s15",7.026,7.731,9.383,9.385,10,26,10,10,1.652,"Right",10,26,16,16,0,0,16,0,16,0,-16,-16,"Disadvent",0,16,10,10,10,26
"64",3,"LHH4-LHH5",0.0535729413606061,0.108673150860606,0.379111634360606,0.344527335060606,0.235912330060606,0.0966651080606061,0.0565840095606061,-0.138927190439394,0.0115358095606061,0.310285796060606,0.219952266060606,0.259362981060606,0.160859081060606,-0.410031323939394,-0.349186913939394,-0.156561853939394,0.192998771060606,0.253646296060606,0.363160220560606,0.248144085510606,3083,"DG_s15",7.026,7.731,9.383,9.385,10,26,10,10,1.652,"Right",10,26,16,16,0,0,16,0,16,0,-16,-16,"Disadvent",0,16,10,10,10,26
"65",3,"LHH7-LHH8",0.493773105232323,1.07113874673232,1.21663162823232,1.39028441373232,1.48884552873232,0.826782983732323,0.671686233732323,0.746462348232323,0.766992313232323,1.08033895823232,1.20020057823232,0.906216508232323,0.478620593232323,0.103199593232323,-0.134206086767677,-0.0420947097676768,0.0294242902323232,0.121476644232323,0.0528991042323232,-0.0862007227676768,3083,"DG_s15",7.026,7.731,9.383,9.385,10,26,10,10,1.652,"Right",10,26,16,16,0,0,16,0,16,0,-16,-16,"Disadvent",0,16,10,10,10,26
"66",3,"LIP4-LIP5",0.095937406539394,0.046923750539394,-0.142004704460606,-0.252507174460606,-0.257522861060606,-0.338572976060606,-0.320199718160606,-0.156083908160606,-0.077058408160606,-0.065840443160606,-0.029991241560606,-0.351629381560606,-0.400959282060606,-0.362362887060606,-0.232835671560606,-0.265795721560606,-0.360854355560606,-0.385372085560606,-0.655596764560606,-0.585907469560606,3083,"DG_s15",7.026,7.731,9.383,9.385,10,26,10,10,1.652,"Right",10,26,16,16,0,0,16,0,16,0,-16,-16,"Disadvent",0,16,10,10,10,26
"67",3,"LAM9-LAM10",0.127638309707071,0.587753134707071,0.860177028707071,0.852034888707071,1.11275676070707,0.858304658707071,0.578988972207071,0.457522797207071,0.587263417207071,0.939562654207071,0.873203446957071,0.860863650457071,0.491050482957071,-0.0852555170429293,-0.258486253292929,-0.368391314792929,-0.364995311792929,-0.181672076242929,-0.110275166242929,0.135509081757071,3083,"DG_s15",7.026,7.731,9.383,9.385,10,26,10,10,1.652,"Right",10,26,16,16,0,0,16,0,16,0,-16,-16,"Disadvent",0,16,10,10,10,26
"68",3,"LAM3-LAM4",0.260342594543434,0.444266211543434,0.753501761543434,0.793136796843434,0.667105975843434,0.579012388843434,0.246845456343434,0.477556550843434,0.550607770843434,0.487612425843434,0.878126358343434,0.961526468343434,1.03269946734343,1.05015443784343,0.625525844843434,0.418199439843434,0.302991478843434,0.400994118343434,0.447276561343434,0.528693761343434,3083,"DG_s15",7.026,7.731,9.383,9.385,10,26,10,10,1.652,"Right",10,26,16,16,0,0,16,0,16,0,-16,-16,"Disadvent",0,16,10,10,10,26
"69",3,"LHB4-LHB5",0.879403820757576,0.909342698757576,0.995278658757576,0.677356450757576,0.708259835757576,0.629950532757576,0.430960469257576,0.567026182257576,0.423335527757576,0.412858059257576,0.446637757757576,0.239958136257576,0.384925560757576,0.358149859257576,0.221887394257576,0.136467405757576,-0.0853445882424242,-0.0853792532424242,0.0893838667575758,0.263383761757576,3083,"DG_s15",7.026,7.731,9.383,9.385,10,26,10,10,1.652,"Right",10,26,16,16,0,0,16,0,16,0,-16,-16,"Disadvent",0,16,10,10,10,26
"70",3,"LIP7-LIP8",-0.48208791900505,-0.469414335505051,-0.325827374005051,-0.0736184030050505,0.146171961494949,0.0253007559949495,0.0280190644949495,-0.104420536505051,-0.29292976600505,-0.229044990505051,-0.226349425505051,-0.170525223005051,-0.168753573005051,-0.34631861800505,-0.385592459005051,-0.14514459150505,-0.0185069890050505,-0.0616692390050505,0.00939604499494949,-0.394677695005051,3083,"DG_s15",7.026,7.731,9.383,9.385,10,26,10,10,1.652,"Right",10,26,16,16,0,0,16,0,16,0,-16,-16,"Disadvent",0,16,10,10,10,26
"71",3,"LAM1-LAM2",0.204907954646465,-0.0306491893535353,-0.277027329353535,-0.499424439353535,-0.401648344353535,-0.158757735353535,0.0229096371464647,0.345997327146465,0.497478442146465,0.364820247146465,0.292984876646465,0.312805816646465,0.250735846646465,0.455556998146465,0.350127876146465,0.190936471646465,0.0335929176464647,-0.415420938853535,-0.311487735803535,-0.303766045803535,3083,"DG_s15",7.026,7.731,9.383,9.385,10,26,10,10,1.652,"Right",10,26,16,16,0,0,16,0,16,0,-16,-16,"Disadvent",0,16,10,10,10,26
"72",3,"LIP1-LIP2",-0.189676524924242,0.0368925015757576,0.0233307980757576,0.175503464075758,0.280756834075758,0.136296682575758,0.163701092575758,-0.0539557210742424,-0.325559511074242,-0.262390100074242,-0.0722859800742424,-0.0714262914242424,-0.126061686424242,-0.0576768674242424,-0.236677272424242,0.225629557575758,0.310666407575758,0.0697073900757576,0.0544286095757576,-0.477787840424242,3083,"DG_s15",7.026,7.731,9.383,9.385,10,26,10,10,1.652,"Right",10,26,16,16,0,0,16,0,16,0,-16,-16,"Disadvent",0,16,10,10,10,26
"73",3,"LAM6-LAM7",-0.351886325338384,0.203828024661616,0.166533131161616,0.0800043446616162,0.113507729661616,-0.183646990338384,-0.0603548823383839,-0.204745615838384,-0.561208835838384,-0.813667265838384,-0.861136343838384,-0.667746986338384,-0.569805078058384,-0.389426841708384,-0.342710251708384,-0.468891739208384,-0.438537772488384,-0.387513725838384,-0.598411425838384,-0.349215538838384,3083,"DG_s15",7.026,7.731,9.383,9.385,10,26,10,10,1.652,"Right",10,26,16,16,0,0,16,0,16,0,-16,-16,"Disadvent",0,16,10,10,10,26
"74",3,"LHB6-LHB7",-0.103918486439394,-0.00130808193939391,-0.0485727669393939,-0.205227526939394,-0.289708888939394,-0.331096985439394,-0.0429171254393939,0.344225699560606,0.623731204560606,0.586275549410606,0.173656543910606,-0.0887513060893939,-0.270500891089394,-0.171324945439394,-0.0710540449393939,-0.128472430939394,-0.364658535939394,-0.480207671939394,-0.585939416939394,-0.657634695939394,3083,"DG_s15",7.026,7.731,9.383,9.385,10,26,10,10,1.652,"Right",10,26,16,16,0,0,16,0,16,0,-16,-16,"Disadvent",0,16,10,10,10,26
"75",3,"LTT8-LTT9",-0.275539846545454,-0.577979181545455,-0.522384136045455,-0.445338656045455,-0.415844539545455,-0.423844613545455,-0.381209403545455,-0.195514883045455,-0.512849092045454,-0.568674618045454,-0.800924548045455,-0.974629178545455,-0.896545151745455,-0.871949406745455,-0.479754662745455,-0.361656622745455,-0.405554601545455,-0.398346156545455,-0.725919095545455,-0.766387505545455,3083,"DG_s15",7.026,7.731,9.383,9.385,10,26,10,10,1.652,"Right",10,26,16,16,0,0,16,0,16,0,-16,-16,"Disadvent",0,16,10,10,10,26
"76",3,"LHH5-LHH6",0.301806444820707,0.663535194820707,0.579036869820707,0.206286550820707,0.205886907570707,0.208917157570707,0.404043457570707,0.381044526570707,0.336806956070707,0.123197536070707,0.0551983710707071,0.00632049057070705,0.126388791570707,0.320930961570707,0.378808621570707,0.276378844070707,0.269294089070707,0.118305490920707,0.133326700420707,0.196884963420707,3083,"DG_s15",7.026,7.731,9.383,9.385,10,26,10,10,1.652,"Right",10,26,16,16,0,0,16,0,16,0,-16,-16,"Disadvent",0,16,10,10,10,26
"77",3,"LHB7-LHB8",0.400356771660101,0.396865965160101,0.422778243460101,0.461280175810101,0.387564490810101,0.450666963810101,0.499133937010101,1.1706055925101,1.4388661025101,1.3441903710101,1.1744070060101,0.484448366010101,0.246197771510101,0.489207856510101,0.529863301510101,0.548639261510101,0.549015112510101,0.559298510510101,0.579408528010101,0.465562793010101,3083,"DG_s15",7.026,7.731,9.383,9.385,10,26,10,10,1.652,"Right",10,26,16,16,0,0,16,0,16,0,-16,-16,"Disadvent",0,16,10,10,10,26
"78",3,"LTT9-LTT10",0.456024279292929,0.456475943792929,0.306785488792929,0.333249738792929,0.278463273792929,0.304152328142929,0.271719500142929,0.451139950142929,0.451680320142929,0.356988746292929,0.275541789792929,0.00449124479292928,0.0198198747929292,0.0654313352929293,0.0987281247929293,0.198437694792929,0.207579335792929,0.402959850292929,0.218117100292929,0.120552470292929,3083,"DG_s15",7.026,7.731,9.383,9.385,10,26,10,10,1.652,"Right",10,26,16,16,0,0,16,0,16,0,-16,-16,"Disadvent",0,16,10,10,10,26
"79",3,"LAM8-LAM9",-0.142083439403535,-0.173451654403535,0.0541379021464646,0.0978242021464646,0.420248733146465,0.232744613646465,0.342053148646465,0.436480191146465,0.0213200325464646,-0.0586319479535354,-0.351680878453535,-0.571107883453535,-0.584350865853535,-0.616572050853535,-0.575442950353535,-0.530435515353535,-0.522012920353535,-0.465630265353535,-0.697604235353535,-0.651087610353535,3083,"DG_s15",7.026,7.731,9.383,9.385,10,26,10,10,1.652,"Right",10,26,16,16,0,0,16,0,16,0,-16,-16,"Disadvent",0,16,10,10,10,26
"80",3,"LIP5-LIP6",-0.0657358047676768,0.147262430232323,0.125883536732323,0.157057229732323,0.237614374732323,0.117976793732323,-0.0115644377676768,0.247199972232323,0.563906877232323,1.12934113323232,1.22244174323232,0.932055033232323,0.643889741732323,0.180393548732323,0.127159877232323,0.0764591872323232,0.251491806232323,0.322911194232323,0.382841355232323,0.352295979232323,3083,"DG_s15",7.026,7.731,9.383,9.385,10,26,10,10,1.652,"Right",10,26,16,16,0,0,16,0,16,0,-16,-16,"Disadvent",0,16,10,10,10,26
"81",3,"LIP6-LIP7",-0.150133876718182,-0.156100488218182,0.0198922947818182,0.103713081181818,0.150961351181818,0.222584156181818,0.0765610326818182,0.190241181681818,0.313905516681818,0.398446629181818,0.378614759181818,0.153978505681818,-0.0141015643181818,-0.0489662418181818,-0.102896137818182,0.0508844521818182,0.308473442181818,0.217633412181818,0.181033478181818,0.0431637216818182,3083,"DG_s15",7.026,7.731,9.383,9.385,10,26,10,10,1.652,"Right",10,26,16,16,0,0,16,0,16,0,-16,-16,"Disadvent",0,16,10,10,10,26
"82",3,"LIP3-LIP4",0.000363860404040406,0.10024253040404,-0.24880921959596,-0.43926800959596,-0.50192300459596,-0.59325658459596,-0.46631273109596,-0.28993152034596,-0.33151282534596,-0.36592184034596,-0.42200351384596,-0.37304902959596,-0.34851900109596,0.0724553969040404,0.0989844819040404,0.0556104069040404,0.17690385340404,-0.21578855009596,-0.24253875009596,-0.14567407009596,3083,"DG_s15",7.026,7.731,9.383,9.385,10,26,10,10,1.652,"Right",10,26,16,16,0,0,16,0,16,0,-16,-16,"Disadvent",0,16,10,10,10,26
"83",3,"LAM5-LAM6",0.727439905757576,0.412235790757576,0.482899080757576,0.339842809157576,0.529523374657576,0.460260304657576,0.288055077657576,0.497807875257576,0.526127129757576,0.657159094757576,0.979354821757576,0.794070553257576,0.996459922257576,0.940138192257576,0.750567235257576,0.910825807757576,0.606186488757576,0.774269905257576,0.837933735757576,0.811829315757576,3083,"DG_s15",7.026,7.731,9.383,9.385,10,26,10,10,1.652,"Right",10,26,16,16,0,0,16,0,16,0,-16,-16,"Disadvent",0,16,10,10,10,26
"84",3,"LIP2-LIP3",-0.22738917970202,-0.24404850970202,-0.32245243120202,-0.43838557870202,-0.39631404870202,-0.43833107020202,-0.19386631220202,0.0147875132979798,0.0416023832979798,0.18640399579798,0.24057988929798,0.32237063929798,0.55847134429798,0.51302113479798,0.40438833479798,0.50491343479798,0.42007325879798,0.30220357879798,0.10996646379798,-0.21876307430202,3083,"DG_s15",7.026,7.731,9.383,9.385,10,26,10,10,1.652,"Right",10,26,16,16,0,0,16,0,16,0,-16,-16,"Disadvent",0,16,10,10,10,26
"85",3,"LIP8-LIP9",0.131464630156566,0.274970830156566,0.219735690156566,0.122013327156566,0.317707355156566,0.0643339651565657,0.158942311656566,0.334535551656566,-0.0224079428434343,0.229592392156566,0.391228114156566,0.258731438656566,0.328919788656566,-0.00828486084343434,-0.0838125743434343,-0.222794263843434,-0.359514113843434,-0.294464109343434,-0.170751219343434,-0.118819269343434,3083,"DG_s15",7.026,7.731,9.383,9.385,10,26,10,10,1.652,"Right",10,26,16,16,0,0,16,0,16,0,-16,-16,"Disadvent",0,16,10,10,10,26
"86",3,"LHH6-LHH7",-0.1342860104,0.3698689396,0.1369489085,-0.00905548249999999,0.1275067854,-0.0977368096,0.205871799,0.1674204605,-0.041317289,-0.104516925,-0.33506753,-0.4766169105,-0.483456886,-0.5404789,-0.676809819,-0.781119994,-0.7453778093,-0.8492399643,-0.9186721903,-0.6413717223,3083,"DG_s15",7.026,7.731,9.383,9.385,10,26,10,10,1.652,"Right",10,26,16,16,0,0,16,0,16,0,-16,-16,"Disadvent",0,16,10,10,10,26
"87",3,"LHB5-LHB6",-0.543563764393939,-0.555298029893939,-0.457701929893939,-0.419554840893939,-0.315131900393939,-0.00888167389393935,0.00737371110606067,-0.115996388893939,0.145011535606061,0.00561225060606063,-0.000463349393939327,0.0149868456060607,-0.347568124393939,-0.554934293893939,-0.667400688893939,-0.784411498893939,-0.756315079893939,-0.581703675393939,-0.795579156393939,-0.755088868393939,3083,"DG_s15",7.026,7.731,9.383,9.385,10,26,10,10,1.652,"Right",10,26,16,16,0,0,16,0,16,0,-16,-16,"Disadvent",0,16,10,10,10,26
"88",4,"LHB9-LHB10",0.33909862569697,0.33424612569697,0.37328572569697,0.27847299319697,0.21275089469697,0.00652640969696971,-0.0848444303030303,0.0117520366969697,0.0189131976969697,0.0414999326969697,0.0617044046969697,0.0289626396969697,-0.0149678063030303,-0.18568830630303,-0.42313853830303,-0.43311133080303,-0.50915560080303,-0.29365420630303,0.0699538536969697,0.0419959086969697,3084,"DG_s15",10.386,11.091,13.747,13.749,16,4,10,10,2.656,"Right",16,4,12,12,0,0,0,-12,0,-12,12,12,"Advent",6,-6,10,16,10,4
"89",4,"LHH5-LHH6",-0.285114376414141,-0.636975153414141,-0.649461573414141,-0.417610021414141,-0.249682881414141,0.0514719335858587,0.0929929735858586,0.0285954785858586,0.0222915780858586,-0.265598896914141,-0.575183351914141,-0.897004476914141,-0.899939017914141,-0.828796407914141,-0.687945540914141,-0.596970342414141,-0.633657050914141,-0.547723748414141,-0.482006795414141,-0.518994680414141,3084,"DG_s15",10.386,11.091,13.747,13.749,16,4,10,10,2.656,"Right",16,4,12,12,0,0,0,-12,0,-12,12,12,"Advent",6,-6,10,16,10,4
"90",4,"LHH4-LHH5",-0.311403234376263,-0.166984293476263,0.152694191373737,0.155819946373737,0.0661360558737374,-0.0703267626262626,-0.236717462626263,-0.135883003626263,0.0772919413737374,0.220624510373737,0.140607155373737,-0.0154682131262626,-0.100355252626263,-0.376620356626263,-0.400600371626263,-0.463103087126263,-0.526490125626263,-0.324122969626263,-0.395156844626263,-0.367675371126263,3084,"DG_s15",10.386,11.091,13.747,13.749,16,4,10,10,2.656,"Right",16,4,12,12,0,0,0,-12,0,-12,12,12,"Advent",6,-6,10,16,10,4
"91",4,"LAM2-LAM3",0.0145483156868687,-0.391193102813131,-0.566769652813131,-0.568947664813131,0.0955314451868686,0.765006003686869,0.564342483686869,0.375004658686869,-0.215257181313131,-0.744114081313131,-0.682827491313131,-0.464145211313131,-0.407625386313131,-0.492597978813131,-0.198384728813131,-0.475123568813131,-0.484508913813131,-0.330914356313131,-0.0890531463131313,0.184681708686869,3084,"DG_s15",10.386,11.091,13.747,13.749,16,4,10,10,2.656,"Right",16,4,12,12,0,0,0,-12,0,-12,12,12,"Advent",6,-6,10,16,10,4
"92",4,"LAM3-LAM4",0.270111277777778,0.244052571777778,0.140825791777778,0.156682546777778,0.241345766777778,0.436063752777778,0.192217114777778,-0.0834580907222222,-0.336337620722222,-0.583074535722222,-0.459578374722222,-0.403237219222222,-0.333213729222222,-0.193161314222222,-0.253450675722222,-0.148795870722222,-0.132895814222222,-0.317881529222222,-0.410002030722222,-0.577948690722222,3084,"DG_s15",10.386,11.091,13.747,13.749,16,4,10,10,2.656,"Right",16,4,12,12,0,0,0,-12,0,-12,12,12,"Advent",6,-6,10,16,10,4
"93",4,"LAM8-LAM9",0.940384748868687,0.528532145368687,0.0713719703686869,0.00210062536868685,-0.0309245773813131,0.352902648618687,0.648900398618687,0.434469388618687,0.495950313368687,0.317338409868687,0.411101209868687,0.622176389868687,0.699550053368687,0.575213480368687,0.450998555368687,0.558973365368687,0.337423066168687,0.133240725168687,0.189620276268687,-0.121380993731313,3084,"DG_s15",10.386,11.091,13.747,13.749,16,4,10,10,2.656,"Right",16,4,12,12,0,0,0,-12,0,-12,12,12,"Advent",6,-6,10,16,10,4
"94",4,"LAM4-LAM5",0.0105035901414141,0.0825100856414141,-0.107162339358586,-0.223899564358586,-0.159943244358586,-0.0415976008585859,0.160485614141414,0.235237794141414,0.194237544641414,0.190759027341414,-0.0414342376585859,-0.229620052658586,-0.127687193158586,-0.108578723858586,-0.0512223896085859,0.0113198783914141,-0.0265185506085859,-0.0649312391085859,0.258564376641414,0.372248783641414,3084,"DG_s15",10.386,11.091,13.747,13.749,16,4,10,10,2.656,"Right",16,4,12,12,0,0,0,-12,0,-12,12,12,"Advent",6,-6,10,16,10,4
"95",4,"LIP1-LIP2",-0.393263651676768,-0.295089805676768,-0.224930043676768,-0.382897757676768,-0.579447827676768,-0.612550387676768,-0.762972794676768,-0.857346994676768,-0.996139279676768,-1.19310041967677,-0.997431028676768,-0.577396883676768,-0.501602803676768,-0.270211808676768,-0.420402427676768,-0.597685658676768,-0.533875859676768,-0.747518819676768,-0.660258096176768,-0.504762347676768,3084,"DG_s15",10.386,11.091,13.747,13.749,16,4,10,10,2.656,"Right",16,4,12,12,0,0,0,-12,0,-12,12,12,"Advent",6,-6,10,16,10,4
"96",4,"LHB8-LHB9",0.280164486818182,-0.112097413181818,-0.0519330981818182,0.200245991818182,0.569133761818182,0.771301795818182,0.803009885818182,0.647809140818182,0.420787125318182,0.689290191318182,1.08920322131818,1.33952641631818,1.63287364181818,1.34154044681818,0.854154094318182,0.494440231318182,0.488587721318182,0.687691466318182,0.673292428818182,0.575769886818182,3084,"DG_s15",10.386,11.091,13.747,13.749,16,4,10,10,2.656,"Right",16,4,12,12,0,0,0,-12,0,-12,12,12,"Advent",6,-6,10,16,10,4
"97",4,"LHB4-LHB5",-1.10647170015455,-1.24318775665455,-1.28379652315455,-1.01204760345455,-1.12898732445455,-1.17502134295455,-1.24606579645455,-1.36962608645455,-1.33513997145455,-1.27049106680455,-1.26756938180455,-1.32617858680455,-1.12392212080455,-1.13770794545455,-0.872799045454546,-0.802271431954546,-0.903824486954546,-0.987182861954546,-1.13629740195455,-1.34580352045455,3084,"DG_s15",10.386,11.091,13.747,13.749,16,4,10,10,2.656,"Right",16,4,12,12,0,0,0,-12,0,-12,12,12,"Advent",6,-6,10,16,10,4
"98",4,"LAM1-LAM2",-0.314956534414141,-0.212792769914141,-0.353653744914141,-0.402114362414141,-0.308294024914141,-0.538363422914141,-0.549562582914141,-0.340519447914141,-0.525324177914141,-0.291366097914141,-0.162707022914141,-0.0988239714141414,-0.0979563564141414,-0.217959712914141,-0.0893559734141414,-0.196382988414141,-0.0921392379141414,-0.157393226414141,-0.331507040914141,-0.437163633914141,3084,"DG_s15",10.386,11.091,13.747,13.749,16,4,10,10,2.656,"Right",16,4,12,12,0,0,0,-12,0,-12,12,12,"Advent",6,-6,10,16,10,4
"99",4,"LIP2-LIP3",-0.0455421487727273,-0.0164629852727273,-0.122816163772727,-0.322608858772727,-0.161331623272727,-0.0868855877727273,0.00109132722727272,-0.166400701722727,-0.323954447222727,-0.387213986722727,-0.504308341222727,-0.442522676772727,-0.451396326772727,-0.119105406772727,-0.0569732022727273,-0.0339798652727273,0.197413169727273,-0.00783168977272727,0.0844612207272727,-0.0471420417727273,3084,"DG_s15",10.386,11.091,13.747,13.749,16,4,10,10,2.656,"Right",16,4,12,12,0,0,0,-12,0,-12,12,12,"Advent",6,-6,10,16,10,4
"100",4,"LHB7-LHB8",0.239999664333333,0.288839294333333,0.486140499333333,0.516488193333333,0.414266671333333,0.596232686333333,0.630624036333333,0.835655606333333,0.912885268333333,1.19796269333333,1.40292926333333,1.63235894833333,1.83077507833333,1.23255907333333,0.777287823333333,0.338134718333333,0.296167925833333,0.435426950833333,0.798437600833333,1.28899920583333,3084,"DG_s15",10.386,11.091,13.747,13.749,16,4,10,10,2.656,"Right",16,4,12,12,0,0,0,-12,0,-12,12,12,"Advent",6,-6,10,16,10,4
"101",4,"LAM7-LAM8",0.362674250252525,-0.0665566797474748,-0.335648039747475,-0.490455159747475,-0.132905759747475,0.178892058752525,0.597937418752525,1.10961736375253,1.01308853025253,0.784458511752525,0.485062481052525,0.152566962552525,0.0318081310525252,0.106688676052525,0.377659356752525,0.368123391252525,0.183602756252525,0.161457721252525,0.0921514132525252,0.161024009752525,3084,"DG_s15",10.386,11.091,13.747,13.749,16,4,10,10,2.656,"Right",16,4,12,12,0,0,0,-12,0,-12,12,12,"Advent",6,-6,10,16,10,4
"102",4,"LIP4-LIP5",-0.610557340464646,-0.506823812464646,-0.714021127464646,-0.642357593464646,-0.834870433464646,-0.859625251964646,-0.873107205564646,-0.968363985564646,-0.897932515564646,-0.861789615064646,-0.829834094964646,-0.722273809964646,-0.575043054964646,-0.544247764964646,-0.592183336464646,-0.646272120464646,-0.739800946964646,-0.702712456964646,-0.647459979464647,-0.559528823964646,3084,"DG_s15",10.386,11.091,13.747,13.749,16,4,10,10,2.656,"Right",16,4,12,12,0,0,0,-12,0,-12,12,12,"Advent",6,-6,10,16,10,4
"103",4,"LIP3-LIP4",-0.348195810247475,-0.355965220247475,-0.415837310247475,-0.447230531747475,-0.608546651247475,-0.720746213247475,-0.539299838247475,-0.759536051747475,-0.796765252747475,-0.639382015747475,-0.605196595747475,-0.634761728747475,-0.547744642247475,-0.648932252247475,-0.912754622247475,-0.991743174247475,-1.14509983374747,-1.05892706974747,-1.04958368974747,-1.07915074974747,3084,"DG_s15",10.386,11.091,13.747,13.749,16,4,10,10,2.656,"Right",16,4,12,12,0,0,0,-12,0,-12,12,12,"Advent",6,-6,10,16,10,4
"104",4,"LIP6-LIP7",0.747457325848485,0.422652544348485,0.434380377848485,0.296427537848485,0.388638076848485,0.700053159348485,0.880466249848485,1.08761858484848,0.893714661848485,0.787059759548485,0.894854368048485,1.03936370804848,0.969203331048485,1.00087428284848,0.711773259348485,0.318344184848485,0.591334079848485,0.499170200348485,0.459228798248485,0.532589137748485,3084,"DG_s15",10.386,11.091,13.747,13.749,16,4,10,10,2.656,"Right",16,4,12,12,0,0,0,-12,0,-12,12,12,"Advent",6,-6,10,16,10,4
"105",4,"LHH7-LHH8",0.122358282342424,-0.0722551101575758,0.116833278342424,0.111594639242424,0.129255189242424,0.217853360242424,0.324386149242424,0.353366581242424,0.383260617892424,0.272814348892424,0.255362078892424,0.566278565392424,0.930479178742424,1.23202741924242,0.918124474242424,0.487060089242424,0.0952868742424242,-0.307993610757576,-0.0179842557575758,0.229084989242424,3084,"DG_s15",10.386,11.091,13.747,13.749,16,4,10,10,2.656,"Right",16,4,12,12,0,0,0,-12,0,-12,12,12,"Advent",6,-6,10,16,10,4
"106",4,"LHB6-LHB7",0.0784649227929293,0.130981385792929,0.154665831792929,-0.0044996502070707,0.0572074367929293,0.211856637792929,0.193417937792929,0.191780631792929,0.0615122122929293,0.0984323222929293,0.140363471692929,0.540648974692929,0.759456533692929,0.621244716752929,0.734537662352929,0.415659967352929,0.215617172352929,0.211640887792929,0.512480342792929,0.510490462792929,3084,"DG_s15",10.386,11.091,13.747,13.749,16,4,10,10,2.656,"Right",16,4,12,12,0,0,0,-12,0,-12,12,12,"Advent",6,-6,10,16,10,4
"107",4,"LAM9-LAM10",0.0672730514141414,-0.305136488585859,-0.386487123585859,-0.563369763585859,-0.521049613585859,-0.216309743585859,0.0554727914141414,0.0948185749141414,0.0826727249141414,-0.188010714885859,-0.414832098385859,-0.276226272885859,-0.270131512885859,-0.285829347085859,-0.0255587135858586,-0.0541658681358586,0.100897596864141,0.157746100864141,0.575662565864141,0.550551581414141,3084,"DG_s15",10.386,11.091,13.747,13.749,16,4,10,10,2.656,"Right",16,4,12,12,0,0,0,-12,0,-12,12,12,"Advent",6,-6,10,16,10,4
"108",4,"LIP8-LIP9",0.283945766989899,0.028084411989899,-0.00954159801010102,0.323579406489899,0.536757162989899,0.852233853989899,0.968317008989899,0.656044347489899,0.458596938489899,0.394493101489899,0.140240591489899,0.107430482989899,0.062417948089899,0.062847388089899,0.221003498089899,0.455303068089899,0.486097037989899,0.555837753989899,0.565014588489899,0.752974838489899,3084,"DG_s15",10.386,11.091,13.747,13.749,16,4,10,10,2.656,"Right",16,4,12,12,0,0,0,-12,0,-12,12,12,"Advent",6,-6,10,16,10,4
"109",4,"LHH6-LHH7",-0.00774613845242424,-0.0672595049524242,-0.0598594999524242,-0.0470143007424242,0.0695222977575758,0.463883439257576,0.464111679257576,0.552626778257576,0.402899799757576,0.299090651757576,0.371896991757576,0.570789812757576,1.13775376275758,1.17700502625758,0.917672351257576,0.472063416257576,-0.0780698987424242,-0.464653114242424,-0.0302268092424242,0.0506826907575758,3084,"DG_s15",10.386,11.091,13.747,13.749,16,4,10,10,2.656,"Right",16,4,12,12,0,0,0,-12,0,-12,12,12,"Advent",6,-6,10,16,10,4
"110",4,"LTT9-LTT10",1.95081724838889,2.14255845888889,1.31602395838889,0.559459300388889,0.538686965388889,0.682257360388889,1.05023121088889,1.03281366888889,0.807483238888889,0.487866468888889,0.342089618888889,0.311871418188889,0.632736148188889,0.716891478188889,0.468179698188889,0.461640863388889,0.517464433388889,0.381629594388889,0.437242645388889,0.440528930888889,3084,"DG_s15",10.386,11.091,13.747,13.749,16,4,10,10,2.656,"Right",16,4,12,12,0,0,0,-12,0,-12,12,12,"Advent",6,-6,10,16,10,4
"111",4,"LAM5-LAM6",-0.550987373419192,-0.252441603419192,0.0318692765808081,0.154630124580808,-0.132184982919192,-0.269704972919192,-0.271919619419192,-0.336910533419192,0.0508587315808081,-0.0290437584191919,0.0767379480808081,-0.0283613539191919,-0.0859259639191919,-0.0564611839191919,-0.132315049919192,-0.221163944419192,-0.394984454419192,-0.411210999419192,-0.600852521919192,-0.546976665419192,3084,"DG_s15",10.386,11.091,13.747,13.749,16,4,10,10,2.656,"Right",16,4,12,12,0,0,0,-12,0,-12,12,12,"Advent",6,-6,10,16,10,4
"112",4,"LIP5-LIP6",0.0351779661868687,0.0898695011868687,-0.133487158813131,-0.223237699313131,-0.177452333313131,0.0730106016868687,0.187066981686869,0.336452232686869,0.358333591186869,0.272264331186869,0.204524690686869,0.317379063286869,0.301274818786869,0.125398568786869,0.0620256767868687,0.0311299261868687,-0.00526970001313132,0.0575703429868687,0.389264090486869,0.245725179986869,3084,"DG_s15",10.386,11.091,13.747,13.749,16,4,10,10,2.656,"Right",16,4,12,12,0,0,0,-12,0,-12,12,12,"Advent",6,-6,10,16,10,4
"113",4,"LHB5-LHB6",0.137275572388889,0.0358830788888889,-0.230812756111111,-0.385315453111111,-0.0833253131111111,-0.100004693111111,0.0151212018888889,0.117292908888889,-0.422286641111111,-0.441354497611111,-0.665785223611111,-0.671293644611111,-0.425172544611111,-0.512997588111111,-0.231043072111111,-0.387615926111111,-0.540037326111111,-0.629505982611111,-0.430634282611111,-0.366937870256111,3084,"DG_s15",10.386,11.091,13.747,13.749,16,4,10,10,2.656,"Right",16,4,12,12,0,0,0,-12,0,-12,12,12,"Advent",6,-6,10,16,10,4
"114",4,"LTT8-LTT9",-0.149188763989899,-0.227618503989899,-0.171875211639899,-0.00674108363989899,-0.216074393639899,-0.230980108639899,-0.150782725989899,-0.149308418989899,0.078344620010101,0.431568370010101,0.624201690010101,0.446621345010101,0.239328901010101,-0.149141748989899,-0.335596529489899,-0.292403456089899,-0.128261546589899,0.167739745910101,0.316298871410101,0.252716878010101,3084,"DG_s15",10.386,11.091,13.747,13.749,16,4,10,10,2.656,"Right",16,4,12,12,0,0,0,-12,0,-12,12,12,"Advent",6,-6,10,16,10,4
"115",4,"LIP7-LIP8",0.0789153454949495,-0.0197890905050505,0.0158448444949495,0.240956674494949,0.306036689494949,0.686056689494949,0.809630224494949,0.722364974494949,0.66370013399495,0.360735601494949,0.604159581494949,0.779813901494949,0.602676821994949,0.550930491994949,0.15633723699495,0.0332513719949495,-0.00338706800505051,0.137501702494949,0.189162052994949,0.157805872994949,3084,"DG_s15",10.386,11.091,13.747,13.749,16,4,10,10,2.656,"Right",16,4,12,12,0,0,0,-12,0,-12,12,12,"Advent",6,-6,10,16,10,4
"116",4,"LAM6-LAM7",-0.547379209078788,-0.495338074078788,-0.616372501578788,-0.581718753878788,-0.296515473878788,0.0501835161212121,0.294984508121212,0.315016614621212,-0.0116441653787879,-0.504090950378788,-0.508347127378788,-0.416925767878788,-0.235281299878788,-0.0869193736787879,-0.333586623678788,-0.540223953678788,-0.697845371678788,-0.650000419528788,-0.259259628528788,-0.0100932590287879,3084,"DG_s15",10.386,11.091,13.747,13.749,16,4,10,10,2.656,"Right",16,4,12,12,0,0,0,-12,0,-12,12,12,"Advent",6,-6,10,16,10,4
"117",5,"LHB8-LHB9",-0.47590730610101,-0.22123586410101,-0.42114984910101,-0.52406583410101,-0.47017395960101,-0.64325921660101,-0.28125425160101,-0.26481135160101,-0.37465541010101,-0.38773343960101,-0.56503403360101,-0.33881472360101,-0.30908031660101,-0.0148333721010101,0.15905645239899,-0.0156780326010101,0.0496885743989899,-0.13128158060101,-0.35880532110101,-0.35263562260101,3085,"DG_s15",14.75,15.456,17.897,17.899,10,10,6,6,2.441,"Right",6,6,0,0,0,0,0,0,0,0,0,0,"10-10",4,4,6,10,6,10
"118",5,"LAM4-LAM5",-0.82268785469697,-0.65938386469697,-0.62895677469697,-0.62465650669697,-0.46485821041197,-0.72793335141197,-0.82457373141197,-0.88488852641197,-1.03191495819697,-0.95043650219697,-0.68856192719697,-0.69678554019697,-0.63977815469697,-0.55128063619697,-0.52554191119697,-0.42248010119697,-0.31203387119697,-0.47755292469697,-0.71582300469697,-0.88687410469697,3085,"DG_s15",14.75,15.456,17.897,17.899,10,10,6,6,2.441,"Right",6,6,0,0,0,0,0,0,0,0,0,0,"10-10",4,4,6,10,6,10
"119",5,"LIP1-LIP2",-0.259201970666667,-0.369592168166667,-0.301857868166667,0.0300995883333333,0.185605032333333,0.0981687048333333,0.431626054833333,0.373453753333333,0.317421470833333,0.418301172783333,0.343266732783333,0.358315042783333,0.511901641283333,0.576870009333333,0.470571464333333,0.681646674333333,0.523403186833333,0.249495981833333,0.366346831833333,-0.0479239736666667,3085,"DG_s15",14.75,15.456,17.897,17.899,10,10,6,6,2.441,"Right",6,6,0,0,0,0,0,0,0,0,0,0,"10-10",4,4,6,10,6,10
"120",5,"LAM3-LAM4",-0.0445547377727273,0.0286197422272727,-0.0677894622727273,0.0876790852272727,0.173325805227273,-0.0701412665727273,-0.0130690180727273,-0.133358112472727,-0.194276362472727,-0.252109362672727,-0.366955261172727,-0.280920559272727,-0.387031394272727,-0.408314440797727,-0.453648640797727,-0.564049110797727,-0.454007415797727,-0.275096733772727,-0.0497502287727273,0.00673023622727272,3085,"DG_s15",14.75,15.456,17.897,17.899,10,10,6,6,2.441,"Right",6,6,0,0,0,0,0,0,0,0,0,0,"10-10",4,4,6,10,6,10
"121",5,"LAM1-LAM2",0.317374467222222,0.162657607222222,-0.132241907777778,-0.431251242777778,-0.178861107777778,0.0945918922222222,0.359981780722222,0.503889951722222,0.413896386722222,0.232781836222222,0.170014806222222,0.304037500222222,0.265463042722222,0.629694343222222,0.612294780022222,0.404567570022222,0.435862462522222,0.00995606752222222,-0.0903443462777778,-0.118825534277778,3085,"DG_s15",14.75,15.456,17.897,17.899,10,10,6,6,2.441,"Right",6,6,0,0,0,0,0,0,0,0,0,0,"10-10",4,4,6,10,6,10
"122",5,"LIP5-LIP6",0.895169461233838,1.22798026138384,1.13112786338384,0.453880926383838,0.355654321383838,-0.0714605086161616,-0.00110614861616162,0.169908808883838,0.254547115883838,0.394815115883838,0.321767270883838,0.0867287353838384,0.277388203383838,0.333476898383838,0.382090664383838,0.534224175383838,0.348266732383838,0.189923784883838,-0.0269181511161616,-0.138538753116162,3085,"DG_s15",14.75,15.456,17.897,17.899,10,10,6,6,2.441,"Right",6,6,0,0,0,0,0,0,0,0,0,0,"10-10",4,4,6,10,6,10
"123",5,"LAM9-LAM10",0.451989727606061,0.511546727606061,0.588608438606061,0.613615793606061,0.813006951606061,0.626537805606061,0.440191394606061,0.673279853106061,0.365293696256061,0.164443197256061,0.241963315256061,0.0207275167560606,0.100073823606061,0.0432173536060606,0.0164599456060606,0.0100010516060606,-0.0347927323939394,0.0415825975060606,0.146195942506061,0.235886321506061,3085,"DG_s15",14.75,15.456,17.897,17.899,10,10,6,6,2.441,"Right",6,6,0,0,0,0,0,0,0,0,0,0,"10-10",4,4,6,10,6,10
"124",5,"LHB9-LHB10",-0.25325901039899,-0.15842039239899,0.12298833460101,0.0734724901010101,0.0363294431010101,-0.0252592003989899,-0.22819077739899,-0.37866370989899,-0.33935512789899,-0.13678977089899,-0.28785022389899,-0.34654806139899,-0.21979559139899,-0.26660155525899,0.34823804474101,0.66566512474101,0.66448041624101,0.58765940660101,0.33715899660101,0.40902142160101,3085,"DG_s15",14.75,15.456,17.897,17.899,10,10,6,6,2.441,"Right",6,6,0,0,0,0,0,0,0,0,0,0,"10-10",4,4,6,10,6,10
"125",5,"LAM8-LAM9",1.15939517752525,0.742036377525253,0.954393942525253,1.13782050752525,0.896043722525253,0.600463972525253,0.248131510525253,0.149301544525253,0.213060084525253,0.308706482525253,0.567805594525252,0.505394627025253,0.472003832025253,0.445828010525253,0.170739109025253,0.175820227525253,0.172224428025253,0.0816077965252525,0.299202236525253,0.465818501525253,3085,"DG_s15",14.75,15.456,17.897,17.899,10,10,6,6,2.441,"Right",6,6,0,0,0,0,0,0,0,0,0,0,"10-10",4,4,6,10,6,10
"126",5,"LIP2-LIP3",-0.225009057414141,-0.160188203414141,-0.214093573414141,0.0426692400858586,0.300597531085859,0.352766577085859,0.330672897085859,0.158737713585859,0.0165240625858586,0.0387910295858586,0.319325599585859,0.516022884585859,0.386485290585859,0.213824428585859,0.00208128858585858,-0.0604095904141414,0.0135807845858586,0.316197454585859,0.550188544585859,0.634271433585859,3085,"DG_s15",14.75,15.456,17.897,17.899,10,10,6,6,2.441,"Right",6,6,0,0,0,0,0,0,0,0,0,0,"10-10",4,4,6,10,6,10
"127",5,"LHH5-LHH6",0.305903748060606,0.226640068060606,0.026576793060606,0.177600641060606,0.328327940060606,0.094110760060606,-0.0926847299393939,0.0885296550606061,0.0412276010606061,0.184899201560606,0.306718495260606,0.00139332291060607,0.0550656264106061,0.114582780410606,0.297294311710606,0.335186618060606,0.380151949560606,0.377972165060606,0.0594278410606061,0.107350038060606,3085,"DG_s15",14.75,15.456,17.897,17.899,10,10,6,6,2.441,"Right",6,6,0,0,0,0,0,0,0,0,0,0,"10-10",4,4,6,10,6,10
"128",5,"LAM5-LAM6",-0.343326631050505,-0.112336109050505,0.072789950449495,-0.153205809550505,-0.302458443550505,-0.372322928050505,-0.107494759550505,0.165304536449495,0.095420798449495,-0.137913834050505,-0.349876592050505,-0.353489783050505,-0.326145210050505,-0.320918578800505,-0.452173823800505,-0.574048520300505,-0.629288685300505,-0.561332176550505,-0.590395756550505,-0.533415440050505,3085,"DG_s15",14.75,15.456,17.897,17.899,10,10,6,6,2.441,"Right",6,6,0,0,0,0,0,0,0,0,0,0,"10-10",4,4,6,10,6,10
"129",5,"LHH4-LHH5",0.309034242363636,0.225589422363636,0.485565999863636,0.470676108863636,0.499847341363636,0.257510971363636,0.246145971363636,0.355021826363636,0.246550721363636,0.187186491363636,-0.119083531636364,-0.321037288136364,-0.351267987136364,-0.283562002136364,-0.166337898636364,-0.0130040121363636,0.290127236863636,0.391532936863636,0.286128991363636,0.233301165863636,3085,"DG_s15",14.75,15.456,17.897,17.899,10,10,6,6,2.441,"Right",6,6,0,0,0,0,0,0,0,0,0,0,"10-10",4,4,6,10,6,10
"130",5,"LIP4-LIP5",-1.04308943531465,-0.955962651814646,-0.917562392364647,-0.844016926964646,-0.629882391464647,-0.814547796464646,-0.850268161464647,-0.872608726464646,-1.11529140146465,-1.21512026459465,-1.33883849459465,-1.15367585059465,-0.690786080594646,-0.0931037774646465,0.277060022535353,0.106122944535354,-0.229472950464647,-0.623663543964647,-0.844102846464647,-1.10768778746465,3085,"DG_s15",14.75,15.456,17.897,17.899,10,10,6,6,2.441,"Right",6,6,0,0,0,0,0,0,0,0,0,0,"10-10",4,4,6,10,6,10
"131",5,"LAM2-LAM3",0.0930817356717172,-0.0736652643282828,-0.356677944328283,-0.203602966828283,0.141389398171717,0.350340259671717,0.505885389671717,0.265856843671717,0.0232430036717172,-0.0577726263282828,-0.196350778828283,0.0775555711717172,0.307003046171717,0.588127764671717,0.637004233721717,0.476673297171717,0.378864477171717,0.279306206671717,0.227437383621717,0.479849010171717,3085,"DG_s15",14.75,15.456,17.897,17.899,10,10,6,6,2.441,"Right",6,6,0,0,0,0,0,0,0,0,0,0,"10-10",4,4,6,10,6,10
"132",5,"LHB7-LHB8",0.316538106656566,0.425332786656566,0.468566851656566,0.456527926656566,0.628334861656566,0.520235349456566,0.690620689456566,0.411271223456566,0.352253203456566,0.301882953606566,0.198496373606566,0.213362873606566,0.223531523606566,0.554884320656566,0.672085410656566,0.873151575656566,0.794153336156566,0.374359196156566,0.349723183156566,0.271083728156566,3085,"DG_s15",14.75,15.456,17.897,17.899,10,10,6,6,2.441,"Right",6,6,0,0,0,0,0,0,0,0,0,0,"10-10",4,4,6,10,6,10
"133",5,"LAM7-LAM8",0.500436004267677,0.815540416767677,0.551826652767677,0.399630907767677,0.476409347767677,0.0422708977676768,0.386539881767677,0.726304496767677,0.473929875767677,0.608742801267677,0.154189501267677,-0.120827349232323,0.512709426767677,0.484957316267677,0.358876296267677,0.201806341767677,-0.283948748232323,-0.271886103232323,-0.139402084232323,0.118686605767677,3085,"DG_s15",14.75,15.456,17.897,17.899,10,10,6,6,2.441,"Right",6,6,0,0,0,0,0,0,0,0,0,0,"10-10",4,4,6,10,6,10
"134",5,"LIP7-LIP8",0.33665386079798,0.0569537002979798,0.0291238252979798,-0.13785470970202,0.0048509397979798,0.15346738979798,-0.0923903852020202,0.17110481979798,0.14253687979798,0.0769699347979798,0.22415023679798,-0.0286779832020202,-0.18271511220202,-0.0920477322020202,0.0394802657979798,0.21154118579798,0.11108991479798,0.0786254997979798,-0.0384040252020202,-0.24479989020202,3085,"DG_s15",14.75,15.456,17.897,17.899,10,10,6,6,2.441,"Right",6,6,0,0,0,0,0,0,0,0,0,0,"10-10",4,4,6,10,6,10
"135",5,"LTT8-LTT9",0.281004627651515,0.202555057651515,0.227695438651515,0.312606829651515,0.377236309651515,0.591820093651515,0.609839736651515,0.548470454151515,0.640026409151515,0.482204960151515,0.449942017151515,0.256886622651515,0.372826451651515,0.495121925651515,0.482009860651515,0.862017790651515,0.709665545151515,0.507010149151515,0.437167794151515,0.567454054151515,3085,"DG_s15",14.75,15.456,17.897,17.899,10,10,6,6,2.441,"Right",6,6,0,0,0,0,0,0,0,0,0,0,"10-10",4,4,6,10,6,10
"136",5,"LIP3-LIP4",-0.130431278439394,-0.371966348939394,-0.570776838939394,-0.738849498939394,-0.475562018939394,-0.205565273939394,0.163822072560606,0.372417977560606,0.531994542560606,0.754764797560606,0.608190936060606,0.764181086060606,0.479304350560606,0.243927150560606,0.249274361560606,0.388563561560606,0.479407587560606,0.353146427060606,0.283387041060606,-0.166569293939394,3085,"DG_s15",14.75,15.456,17.897,17.899,10,10,6,6,2.441,"Right",6,6,0,0,0,0,0,0,0,0,0,0,"10-10",4,4,6,10,6,10
"137",5,"LHH7-LHH8",0.37563458774798,0.62487742624798,0.47460414479798,0.38014581479798,-0.11113561520202,-0.53607556520202,-0.47429200170202,-0.37237630470202,-0.17191300470202,-0.0508772347020202,-0.15202899820202,-0.20527989520202,0.0288248547979798,0.26223693479798,0.57580756479798,0.78142223979798,0.38917798979798,0.0508560897979798,-0.24112290020202,-0.23614121020202,3085,"DG_s15",14.75,15.456,17.897,17.899,10,10,6,6,2.441,"Right",6,6,0,0,0,0,0,0,0,0,0,0,"10-10",4,4,6,10,6,10
"138",5,"LHB6-LHB7",-0.112430988283838,-0.0133823382838384,0.128806526716162,0.0773232881161616,0.0468856631161616,0.216869123116162,0.303495337616162,0.424278396116162,0.662036686116162,0.382950626116162,0.165705247116162,-0.0793169828838384,0.185708043616162,0.917443743616162,1.44252860661616,1.87628865161616,1.49298177311616,0.873785833116162,0.362739859616162,0.00622177111616162,3085,"DG_s15",14.75,15.456,17.897,17.899,10,10,6,6,2.441,"Right",6,6,0,0,0,0,0,0,0,0,0,0,"10-10",4,4,6,10,6,10
"139",5,"LAM6-LAM7",0.598031342656566,0.547283261656566,0.267320886656566,0.156483405656566,0.259939235656566,0.0368161256565657,0.0926356256565656,0.151727770656566,-0.289008564343434,-0.279404061143434,-0.290987811143434,-0.362310282643434,-0.0839908076434343,-0.0457811988434344,0.421797321156566,0.451872288656566,0.267639613656566,0.0661093816565656,-0.353143443343434,-0.205523949343434,3085,"DG_s15",14.75,15.456,17.897,17.899,10,10,6,6,2.441,"Right",6,6,0,0,0,0,0,0,0,0,0,0,"10-10",4,4,6,10,6,10
"140",5,"LHB5-LHB6",0.743734916333333,0.662123173333333,0.183708923333333,-0.0408466166666667,0.0609779583333334,0.0362640883333333,0.412175838333333,0.588498427833333,0.590741248833333,0.637393288833333,0.389517528833333,0.174686074333333,0.671557169333333,1.21225788433333,1.59301095083333,2.04651046583333,1.85050693483333,1.23170556983333,0.792591156333333,0.392582726333333,3085,"DG_s15",14.75,15.456,17.897,17.899,10,10,6,6,2.441,"Right",6,6,0,0,0,0,0,0,0,0,0,0,"10-10",4,4,6,10,6,10
"141",5,"LHB4-LHB5",0.0206721243828283,-0.101748767117172,-0.442425055417172,-0.240721099417172,-0.186564938417172,-0.0717001299171717,-0.128634537717172,-0.0684315897171717,-0.104602587217172,-0.188355809217172,0.0575665507828283,-0.199295109217172,-0.124318816217172,0.110957438782828,0.202920118282828,0.141876393282828,0.0860232077828283,-0.318359082217172,-0.632129571717172,-0.667986121717172,3085,"DG_s15",14.75,15.456,17.897,17.899,10,10,6,6,2.441,"Right",6,6,0,0,0,0,0,0,0,0,0,0,"10-10",4,4,6,10,6,10
"142",5,"LTT9-LTT10",-0.109636481262626,0.0640629632373737,0.240978163237374,0.326396933237374,0.178673778737374,0.0110648637373737,-0.282948387762626,-0.0456016227626263,0.0106527082373737,0.392798893237374,0.590325729237374,0.471134311737374,1.19520948073737,0.967762043237374,0.800321531737374,0.768789754237374,0.267031704237374,0.423446156737374,0.584348928737374,0.707448318737374,3085,"DG_s15",14.75,15.456,17.897,17.899,10,10,6,6,2.441,"Right",6,6,0,0,0,0,0,0,0,0,0,0,"10-10",4,4,6,10,6,10
"143",5,"LHH6-LHH7",0.368593704929293,0.457112279929293,0.260712972929293,0.344152203429293,-0.100368117070707,-0.227114517070707,-0.201180162070707,0.166481907429293,0.128972098929293,-0.0309748460707071,-0.00903216607070707,-0.243663892070707,-0.364930933070707,0.0317360169292929,0.522985972429293,0.652317953679293,1.06814014867929,0.775311913679293,0.348467423179293,0.129665360179293,3085,"DG_s15",14.75,15.456,17.897,17.899,10,10,6,6,2.441,"Right",6,6,0,0,0,0,0,0,0,0,0,0,"10-10",4,4,6,10,6,10
"144",5,"LIP6-LIP7",0.258598505900505,0.312579748050505,0.386660853050505,0.129380273050505,-0.055925361949495,-0.169694704949495,-0.137134947949495,-0.0553950074494949,-0.292545722449495,-0.250455266449495,-0.0845835584494949,-0.078775033449495,0.212209271550505,0.181596465550505,0.119982724350505,0.0935603138505051,-0.089453091149495,0.0724933138505051,-0.062709792449495,-0.123161613299495,3085,"DG_s15",14.75,15.456,17.897,17.899,10,10,6,6,2.441,"Right",6,6,0,0,0,0,0,0,0,0,0,0,"10-10",4,4,6,10,6,10
"145",5,"LIP8-LIP9",-0.159738385538384,-0.379930770538384,-0.466987320538384,-0.598740889038384,-0.725066723338384,-0.474311218338384,-0.0454536853383838,0.183076503161616,0.0997757741616162,-0.0612644978383838,-0.325912081838384,-0.207169701838384,-0.155262539838384,0.104045506361616,0.219976359861616,0.112063704861616,0.0399275428616162,-0.226828695338384,-0.316046242838384,-0.469540942838384,3085,"DG_s15",14.75,15.456,17.897,17.899,10,10,6,6,2.441,"Right",6,6,0,0,0,0,0,0,0,0,0,0,"10-10",4,4,6,10,6,10
"146",6,"LAM8-LAM9",-0.0744155552474747,-0.0175509852474748,0.0529549852525253,0.168942055252525,0.264993055252525,0.0895778802525252,-0.137194654747475,-0.0119575097474748,0.293724050252525,0.286174350252525,0.354021165752525,0.182020550752525,-0.119037759247475,-0.0827797942474747,-0.0642876847474748,0.0258806857525253,0.0686879311525253,0.163676339652525,0.490938014652525,0.546812668652525,3086,"DG_s15",18.9,19.605,22.571,22.573,10,10,8,11,2.966,"Right",8,11,3,0,3,3,3,0,0,0,-3,0,"10-10",2,-1,8,10,11,10
"147",6,"LHB9-LHB10",-0.207866251257576,0.0110586237424243,-0.00922017725757573,-0.176273975757576,-0.267100960757576,-0.504761335757576,-0.0183984407575757,0.218820035742424,0.232309167242424,0.146733267242424,-0.158310042757576,0.167356765742424,0.243469452442424,0.396687767442424,0.217870727442424,-0.319871572557576,-0.479613640757576,-0.592892333757576,-0.449259981257576,-0.190474481257576,3086,"DG_s15",18.9,19.605,22.571,22.573,10,10,8,11,2.966,"Right",8,11,3,0,3,3,3,0,0,0,-3,0,"10-10",2,-1,8,10,11,10
"148",6,"LHH4-LHH5",-0.638601184838384,-0.697300906838384,-0.586222886838384,-0.502635768838384,-0.214196668838384,-0.136309073838384,-0.148534828838384,-0.351000158838384,-0.465267505838384,-0.650953020838384,-0.618930275838384,-0.344489290838384,-0.324476657838384,-0.138143077838384,-0.355053937838384,-0.536205700338384,-0.479297129838384,-0.219889159838384,0.129644478661616,0.328498150661616,3086,"DG_s15",18.9,19.605,22.571,22.573,10,10,8,11,2.966,"Right",8,11,3,0,3,3,3,0,0,0,-3,0,"10-10",2,-1,8,10,11,10
"149",6,"LAM1-LAM2",-0.48911410635303,-0.48159989135303,-0.57549127685303,-0.65614141685303,-0.57623374080303,-0.30380462080303,-0.14658526780303,-0.18248480780303,0.0228695021969697,0.21526610269697,0.53204042019697,0.65318912019697,0.48070759019697,0.37649084969697,-0.0660313228030303,-0.11064004280303,-0.37057138780303,-0.59575950780303,-0.32659449030303,-0.35828355530303,3086,"DG_s15",18.9,19.605,22.571,22.573,10,10,8,11,2.966,"Right",8,11,3,0,3,3,3,0,0,0,-3,0,"10-10",2,-1,8,10,11,10
"150",6,"LHB8-LHB9",0.492055238737374,0.405464903737374,0.164186473737374,0.258158538737374,0.0991677337373737,-0.106126831262626,-0.123275586262626,-0.123021036262626,-0.0753093562626263,0.121326777237374,0.393082047237374,0.296541157237374,0.125439297237374,0.0489736387373737,-0.213183661262626,-0.254864596262626,0.198046153737374,0.375220893737374,0.506917757737374,0.504925151237374,3086,"DG_s15",18.9,19.605,22.571,22.573,10,10,8,11,2.966,"Right",8,11,3,0,3,3,3,0,0,0,-3,0,"10-10",2,-1,8,10,11,10
"151",6,"LAM3-LAM4",0.146620551585859,0.340421103585859,0.292051982585859,0.00552962258585854,-0.183083474564141,-0.436714809564141,-0.436871158064141,-0.478203598064141,-0.325164558414141,-0.129887153414141,-0.320073498914141,-0.193184648914141,-0.226528121414141,-0.116460706414141,-0.0972651914141414,-0.235496121414141,-0.355200526414141,-0.564269251414141,-0.435149036414141,-0.302531843214141,3086,"DG_s15",18.9,19.605,22.571,22.573,10,10,8,11,2.966,"Right",8,11,3,0,3,3,3,0,0,0,-3,0,"10-10",2,-1,8,10,11,10
"152",6,"LIP4-LIP5",-0.506466715707071,-0.254952350707071,-0.325858800707071,-0.216128307707071,-0.122610945557071,-0.295548188057071,-0.161410157557071,-0.140561967557071,0.0236776332929293,0.495371984792929,0.457332349292929,0.355682259292929,0.0773761792929293,-0.282678826807071,-0.351742973307071,-0.303239368307071,-0.273294017807071,-0.453662836207071,-0.0458474047070707,0.0506829402929293,3086,"DG_s15",18.9,19.605,22.571,22.573,10,10,8,11,2.966,"Right",8,11,3,0,3,3,3,0,0,0,-3,0,"10-10",2,-1,8,10,11,10
"153",6,"LIP5-LIP6",0.475859843323232,0.383996023323232,0.349293255323232,0.178611130323232,-0.179394399676768,-0.193152644676768,-0.0299850076767676,0.0147948923232323,0.166499572323232,0.449389992323232,0.485682837323232,0.563142942823232,0.817968863323232,0.663182461823232,0.552718686823232,0.669657251323232,0.401587915823232,0.346311096323232,0.298953579323232,0.188515859323232,3086,"DG_s15",18.9,19.605,22.571,22.573,10,10,8,11,2.966,"Right",8,11,3,0,3,3,3,0,0,0,-3,0,"10-10",2,-1,8,10,11,10
"154",6,"LHH5-LHH6",-0.0108492357979798,-0.17171151529798,-0.30600251579798,-0.28832192179798,-0.13589068679798,0.15647894920202,0.17207648470202,0.0339816497020202,-0.0433417857979798,-0.23651941869798,-0.0558631536979798,0.00799805330202019,0.0767837278020202,0.00447867320202019,-0.20287517879798,-0.0926208107979798,-0.16192301979798,-0.13511011129798,0.19403284070202,0.29167232570202,3086,"DG_s15",18.9,19.605,22.571,22.573,10,10,8,11,2.966,"Right",8,11,3,0,3,3,3,0,0,0,-3,0,"10-10",2,-1,8,10,11,10
"155",6,"LHB4-LHB5",0.03836798775,0.38623210775,0.48893043,0.555723441,0.960868126,0.950029276,0.811940323,0.674851832,0.4333086215,0.3743862765,0.6524305745,0.7931696645,0.807604325,0.5381381,0.25598409,0.113628404,0.097970963,0.128170018,0.412308328,0.60202288,3086,"DG_s15",18.9,19.605,22.571,22.573,10,10,8,11,2.966,"Right",8,11,3,0,3,3,3,0,0,0,-3,0,"10-10",2,-1,8,10,11,10
"156",6,"LHH7-LHH8",1.49930270684848,1.34034767334848,1.00180796034848,0.537475920348485,0.519013570348485,0.455217506848485,0.499719970348485,0.575916990348485,0.461298540348485,0.449357115348485,0.391368260848485,0.160195243348485,0.0876681433484849,0.273049969348485,0.165880933348485,0.378325290148485,0.789714610148485,0.568290784148485,0.613777854148485,0.499268744848485,3086,"DG_s15",18.9,19.605,22.571,22.573,10,10,8,11,2.966,"Right",8,11,3,0,3,3,3,0,0,0,-3,0,"10-10",2,-1,8,10,11,10
"157",6,"LAM5-LAM6",-0.134696031339899,-0.306480261339899,-0.110050599489899,-0.104540472489899,0.097570713010101,0.139112723010101,0.172261580010101,-0.105012747489899,-0.217260648989899,-0.326320000489899,-0.416859755489899,-0.263058895989899,-0.177124947689899,-0.199713241189899,-0.333286509189899,-0.234603496189899,-0.292140777489899,-0.205959087489899,-0.097921209489899,0.069581948010101,3086,"DG_s15",18.9,19.605,22.571,22.573,10,10,8,11,2.966,"Right",8,11,3,0,3,3,3,0,0,0,-3,0,"10-10",2,-1,8,10,11,10
"158",6,"LAM2-LAM3",-0.774004586666667,-0.860429221666667,-0.791149946666667,-0.849530561166667,-1.10632327916667,-1.16912711096667,-1.20745956296667,-1.20976727346667,-1.19776846646667,-1.26106681466667,-1.24852857966667,-0.972641854666667,-0.685656211666667,-0.618324432666667,-0.672393239166667,-0.983166479666667,-1.31721507166667,-1.29066398766667,-1.23985681746667,-1.02250826896667,3086,"DG_s15",18.9,19.605,22.571,22.573,10,10,8,11,2.966,"Right",8,11,3,0,3,3,3,0,0,0,-3,0,"10-10",2,-1,8,10,11,10
"159",6,"LHB7-LHB8",1.07100087160101,1.00065088965101,0.87143444865101,0.55052161215101,0.25466373715101,0.0487524426010101,0.0986692486010101,0.57345021510101,0.44720550010101,0.55329530610101,0.50752910810101,0.26633861710101,0.39873706460101,0.29528995410101,0.21581504710101,0.16897048810101,0.17077658560101,0.33038720010101,0.72773940510101,0.61100556860101,3086,"DG_s15",18.9,19.605,22.571,22.573,10,10,8,11,2.966,"Right",8,11,3,0,3,3,3,0,0,0,-3,0,"10-10",2,-1,8,10,11,10
"160",6,"LIP7-LIP8",0.238756444979798,0.369298401479798,0.135972306479798,-0.014232578520202,-0.041877953520202,0.052064380479798,0.115287310479798,0.267609350479798,0.254824620479798,0.042866582979798,0.470364497979798,0.345483697979798,0.080333047979798,0.193684624979798,-0.318845575020202,-0.149169705020202,0.018908334479798,0.032080312479798,0.133545652479798,-0.077481547520202,3086,"DG_s15",18.9,19.605,22.571,22.573,10,10,8,11,2.966,"Right",8,11,3,0,3,3,3,0,0,0,-3,0,"10-10",2,-1,8,10,11,10
"161",6,"LHB6-LHB7",1.23576576712626,1.08091529362626,0.861452155626263,0.577102569126263,0.388009889126263,0.327832428126263,0.394168065626263,0.441117457126263,0.324014607126263,0.463999095626263,0.565113236126263,0.385282268626263,0.394347922626263,0.328696219126263,0.134078579126263,0.0158205916262626,-0.0671618323737374,-0.159087767373737,0.0648343876262626,0.229351798626263,3086,"DG_s15",18.9,19.605,22.571,22.573,10,10,8,11,2.966,"Right",8,11,3,0,3,3,3,0,0,0,-3,0,"10-10",2,-1,8,10,11,10
"162",6,"LIP3-LIP4",0.0359003122171717,0.179912836717172,-0.293517608282828,-0.497644013282828,-0.441829117682828,-0.278879872682828,-0.0607092626828283,-0.124985737682828,-0.0145601482828283,0.0429722717171717,0.0221401037171717,0.0914102392171717,-0.0801467807828283,-0.223922328782828,-0.243551580782828,-0.193632247282828,-0.0525189622828283,0.109266055717172,0.437448015717172,0.441083634717172,3086,"DG_s15",18.9,19.605,22.571,22.573,10,10,8,11,2.966,"Right",8,11,3,0,3,3,3,0,0,0,-3,0,"10-10",2,-1,8,10,11,10
"163",6,"LIP2-LIP3",0.0551722880151515,0.0939645730151515,0.00396077801515151,0.155163283015152,0.152953155015151,0.107586128515152,0.0585927535151515,-0.173954711984848,-0.332961588984849,-0.215907648984848,0.0161246606151515,-0.00993579617484849,0.0755601288251515,0.0618538443251515,0.0239728112251515,0.182322638515152,0.287303233515152,0.102032398015152,-0.0280745264848485,-0.108075071484848,3086,"DG_s15",18.9,19.605,22.571,22.573,10,10,8,11,2.966,"Right",8,11,3,0,3,3,3,0,0,0,-3,0,"10-10",2,-1,8,10,11,10
"164",6,"LTT9-LTT10",1.23755334040404,1.02910249040404,0.84779583790404,0.57295761790404,0.19149936790404,0.0828466604040404,-0.0155948370959596,-0.24020910209596,-0.22254166559596,-0.24228711439596,-0.0754888583959596,0.0684247801040404,0.38114155060404,0.39474279190404,0.33151378790404,0.29010941440404,-0.12941150109596,-0.19961451909596,-0.26138921759596,-0.21001485059596,3086,"DG_s15",18.9,19.605,22.571,22.573,10,10,8,11,2.966,"Right",8,11,3,0,3,3,3,0,0,0,-3,0,"10-10",2,-1,8,10,11,10
"165",6,"LAM4-LAM5",-0.399424844747475,-0.239917091747475,-0.0815037317474748,-0.0994942237474748,-0.0793038487474748,-0.358451401747475,-0.460857635747475,-0.484278110747475,-0.591548655047475,-0.197346910047475,0.0360877704525253,0.0512945524525252,0.0954179417525253,-0.191681553247475,-0.137047109747475,-0.116023099747475,-0.153424429747475,-0.122937553747475,-0.332920376397475,-0.478508841397475,3086,"DG_s15",18.9,19.605,22.571,22.573,10,10,8,11,2.966,"Right",8,11,3,0,3,3,3,0,0,0,-3,0,"10-10",2,-1,8,10,11,10
"166",6,"LAM9-LAM10",0.275261745929293,0.254700123429293,0.369420153429293,0.208712703929293,0.234602268429293,0.247490348429293,0.0392950749292929,0.121480806029293,0.0597055780292929,-0.155755561970707,-0.279408243470707,-0.335442088920707,-0.336876605420707,-0.230703830420707,-0.241791775420707,-0.198932617070707,-0.0161683720707071,0.0905274064292929,0.592599906429293,0.753867286429293,3086,"DG_s15",18.9,19.605,22.571,22.573,10,10,8,11,2.966,"Right",8,11,3,0,3,3,3,0,0,0,-3,0,"10-10",2,-1,8,10,11,10
"167",6,"LAM6-LAM7",0.489562771444444,0.305192886944444,-0.0336457027555556,-0.0668924205555556,0.123406064444444,0.235006339444444,0.335988020444444,0.569385075444444,0.231288110444444,0.0720064604444444,0.112449584444444,0.0972257044444444,0.0593820364444445,0.181780421444444,0.141087442944444,-0.0325652005555556,0.334140237444444,0.353626952444444,0.373766033944444,0.229260477444444,3086,"DG_s15",18.9,19.605,22.571,22.573,10,10,8,11,2.966,"Right",8,11,3,0,3,3,3,0,0,0,-3,0,"10-10",2,-1,8,10,11,10
"168",6,"LIP1-LIP2",0.540362669934343,0.303880583434343,0.150803760434343,0.170338215434343,0.0422475884343434,0.343077918434343,0.384339761434343,0.385902529934343,0.478925511934343,0.219480776934343,-0.0285382780656566,-0.0779889465656566,-0.170450826565657,-0.0320455615656566,0.121726628934343,-0.0263787610656566,-0.0853441210656565,-0.00926990406565656,-0.0168390445656566,-0.0144477735656566,3086,"DG_s15",18.9,19.605,22.571,22.573,10,10,8,11,2.966,"Right",8,11,3,0,3,3,3,0,0,0,-3,0,"10-10",2,-1,8,10,11,10
"169",6,"LIP6-LIP7",0.359141484489899,0.423539538989899,0.569689773989899,0.548173880489899,0.352496624489899,0.254833752489899,0.145233632489899,-0.066800739510101,0.221308331489899,0.398342051489899,0.775122291489899,0.874410134989899,0.594220084989899,0.351793807489899,0.421052495489899,0.470762454489899,0.483016724489899,0.607173459489899,0.150691577989899,0.288181148989899,3086,"DG_s15",18.9,19.605,22.571,22.573,10,10,8,11,2.966,"Right",8,11,3,0,3,3,3,0,0,0,-3,0,"10-10",2,-1,8,10,11,10
"170",6,"LAM7-LAM8",0.429281827070707,0.278511061570707,0.0102890190707071,-0.184509385929293,-0.243250075929293,-0.388515765429293,-0.623832762929293,-0.219964137929293,0.0441634670707071,0.183042117070707,0.136585657070707,-0.317425642929293,-0.563615792929293,-0.580905982929293,-0.434533627429293,-0.247726538429293,0.447762211570707,0.592712026570707,0.600155496070707,0.683225592570707,3086,"DG_s15",18.9,19.605,22.571,22.573,10,10,8,11,2.966,"Right",8,11,3,0,3,3,3,0,0,0,-3,0,"10-10",2,-1,8,10,11,10
"171",6,"LIP8-LIP9",0.0581291634141414,0.130161621164141,0.0653991011641414,0.0927740246641414,0.169336969664141,0.341445193914141,0.336888836414141,0.331719839414141,0.215587124914141,0.0481295884141414,0.174302742664141,0.0638965026641414,-0.0442054878358586,0.217939101664141,0.0704039279141414,0.149233651414141,0.249731471914141,-0.187041313085859,-0.263946148085859,-0.392051076085859,3086,"DG_s15",18.9,19.605,22.571,22.573,10,10,8,11,2.966,"Right",8,11,3,0,3,3,3,0,0,0,-3,0,"10-10",2,-1,8,10,11,10
"172",6,"LHH6-LHH7",0.204639121363636,0.190208841363636,0.124376467713636,0.106255807713636,0.294817467713636,0.334433244713636,0.258311803363636,0.317374363363636,0.0484054383636364,-0.0474394586363636,0.188535822863636,-0.0704633596363636,0.0388715310636363,0.253021886063636,0.261600889563636,0.717053622063636,0.942327076363636,0.909618972863636,0.705034837863636,0.107513187863636,3086,"DG_s15",18.9,19.605,22.571,22.573,10,10,8,11,2.966,"Right",8,11,3,0,3,3,3,0,0,0,-3,0,"10-10",2,-1,8,10,11,10
"173",6,"LHB5-LHB6",0.631136868131313,0.868479823131313,0.678305505631313,0.510297537131313,0.709987197131313,0.923579512131313,0.944619159631313,0.768540283131313,0.630359033131313,0.364744813131313,0.470001103131313,0.462113523131313,0.110168233131313,0.116261598131313,0.393810293131313,0.599385458131313,0.611700850631313,0.479464175631313,-0.0441368743686869,-0.186767189918687,3086,"DG_s15",18.9,19.605,22.571,22.573,10,10,8,11,2.966,"Right",8,11,3,0,3,3,3,0,0,0,-3,0,"10-10",2,-1,8,10,11,10
"174",6,"LTT8-LTT9",1.23683661617172,1.22455154067172,1.08407280767172,0.782153612671717,1.02608191367172,0.779469668671717,0.825301228171717,0.824235338171717,0.516343798171717,1.05622823817172,1.36700364717172,1.49553362717172,1.47969119417172,1.06924654967172,0.673945554171717,0.683597749171717,0.656843053671717,0.894134398171717,0.967972083671717,0.663060648671717,3086,"DG_s15",18.9,19.605,22.571,22.573,10,10,8,11,2.966,"Right",8,11,3,0,3,3,3,0,0,0,-3,0,"10-10",2,-1,8,10,11,10
"175",7,"LHB7-LHB8",-0.180090168722222,-0.116824099222222,-0.0105041427222222,-0.270352590722222,-0.466272770222222,-0.458963250222222,-0.444742871722222,-0.288690496722222,-0.181162251222222,-0.308766657222222,-0.338777857222222,-0.213540442222222,-0.299528648222222,-0.212588591222222,-0.361761999222222,-0.315588784222222,-0.396404284222222,-0.242190990222222,-0.149294376222222,-0.253616611222222,3087,"DG_s15",23.575,24.28,26.332,26.334,28,4,10,10,2.052,"Left",28,4,24,24,0,0,0,-24,0,-24,24,24,"Advent",18,-6,28,10,4,10
"176",7,"LHH7-LHH8",-0.040046108499495,0.071490691050505,0.382142270050505,0.550583970050505,0.989604635050505,0.928390917050505,0.606956257050505,0.408536187050505,-0.039264212949495,-0.196929974949495,-0.350411201449495,-0.520137853949495,-0.497307953949495,-0.392966753949495,-0.245395302449495,0.114670680050505,0.460461730050505,0.480328210050505,0.459459113050505,0.252304668050505,3087,"DG_s15",23.575,24.28,26.332,26.334,28,4,10,10,2.052,"Left",28,4,24,24,0,0,0,-24,0,-24,24,24,"Advent",18,-6,28,10,4,10
"177",7,"LHB8-LHB9",-0.75221540010101,-1.00667569510101,-0.95330303010101,-0.82994587010101,-0.59387264010101,-0.33261254510101,-0.46019934510101,-0.72888333510101,-0.90670811510101,-0.98341984760101,-0.98861755510101,-0.94917520010101,-0.67653138510101,-0.76889534260101,-0.69805572010101,-0.48794574510101,-0.73394168510101,-0.71533259010101,-0.80880867560101,-0.68983113560101,3087,"DG_s15",23.575,24.28,26.332,26.334,28,4,10,10,2.052,"Left",28,4,24,24,0,0,0,-24,0,-24,24,24,"Advent",18,-6,28,10,4,10
"178",7,"LHB9-LHB10",0.245581508818182,0.132088168818182,0.245173941818182,0.172940401818182,0.246459270818182,0.554660435818182,0.427330786318182,0.509923318818182,0.464875573818182,0.293244971668182,0.305660163168182,0.586137133168182,0.552761794668182,0.390430231818182,0.323825192818182,0.0756483028181819,0.361742007818182,0.476938997818182,0.533986361818182,0.688141801818182,3087,"DG_s15",23.575,24.28,26.332,26.334,28,4,10,10,2.052,"Left",28,4,24,24,0,0,0,-24,0,-24,24,24,"Advent",18,-6,28,10,4,10
"179",7,"LAM4-LAM5",0.076346307470202,-0.014572095479798,0.146507014520202,0.263575003020202,0.317946508020202,0.726926092020202,0.573238765520202,0.517281176520202,0.281487261520202,0.021680341520202,0.102255828020202,0.060146435020202,0.224038801020202,0.189802611020202,0.185315896020202,0.080243608020202,0.030047212020202,-0.055583097979798,-0.205037242979798,-0.239318342979798,3087,"DG_s15",23.575,24.28,26.332,26.334,28,4,10,10,2.052,"Left",28,4,24,24,0,0,0,-24,0,-24,24,24,"Advent",18,-6,28,10,4,10
"180",7,"LIP7-LIP8",0.460553171464646,0.481665932464646,0.315610137464646,-0.0404824112353535,-0.146494531235354,-0.0190403927353535,-0.0552624777353535,-0.211409110535354,-0.0936861255353535,-0.153807996035354,-0.0258725760353535,-0.0176740740353535,-0.118126109035354,0.0679782269646464,-0.156462088035354,-0.215210668535354,-0.195807102585354,-0.379739959085354,-0.331701880585354,-0.175998876585354,3087,"DG_s15",23.575,24.28,26.332,26.334,28,4,10,10,2.052,"Left",28,4,24,24,0,0,0,-24,0,-24,24,24,"Advent",18,-6,28,10,4,10
"181",7,"LHH6-LHH7",-0.137372119313131,0.295968280686869,0.988756180686869,1.20856183568687,1.05748668368687,0.782929613686869,0.156852463686869,0.0136048106868687,-0.156991320913131,-0.289068981913131,-0.190274781913131,-0.263294695913131,-0.470920264313131,-0.318500963313131,-0.197997528313131,-0.0879373413131313,0.192499539186869,-0.0237103333131313,-0.0923978623131313,-0.159104172313131,3087,"DG_s15",23.575,24.28,26.332,26.334,28,4,10,10,2.052,"Left",28,4,24,24,0,0,0,-24,0,-24,24,24,"Advent",18,-6,28,10,4,10
"182",7,"LAM3-LAM4",0.381903992212121,0.101814936712121,0.0177950122121212,0.130651325712121,0.324040060712121,0.555678626212121,0.629537002212121,0.217522227712121,0.0286762827121212,-0.219075676787879,-0.150066661287879,-0.155060652787879,-0.00948660278787879,0.296569756712121,0.146543855212121,0.171735521212121,0.422428671212121,0.747093656212121,0.810287881212121,0.651612756212121,3087,"DG_s15",23.575,24.28,26.332,26.334,28,4,10,10,2.052,"Left",28,4,24,24,0,0,0,-24,0,-24,24,24,"Advent",18,-6,28,10,4,10
"183",7,"LTT9-LTT10",-0.760625384711667,-0.348530684711667,0.237865758333333,0.344641623333333,0.499176044833333,0.378545294833333,-0.103774505166667,-0.0964328501666666,-0.232325266666667,-0.521442216666667,-0.650390136666667,-0.574622666666667,-0.689090125666667,-0.461349345666667,-0.256443905666667,-0.513882055666667,-0.650883116666667,-0.843626696666667,-1.01449605166667,-0.890449312166667,3087,"DG_s15",23.575,24.28,26.332,26.334,28,4,10,10,2.052,"Left",28,4,24,24,0,0,0,-24,0,-24,24,24,"Advent",18,-6,28,10,4,10
"184",7,"LAM2-LAM3",-0.320446976212121,-0.427201414712121,-0.356826779712121,-0.144104358212121,-0.157600048212121,-0.162832048212121,-0.209081009712121,-0.293360450712121,-0.255217785712121,-0.350691398912121,-0.366787516412121,-0.571283480912121,-0.594400982312121,-0.606768294112121,-0.595637470112121,-0.279934265112121,-0.330276082312121,-0.162539154312121,-0.187330293812121,-0.519206048812121,3087,"DG_s15",23.575,24.28,26.332,26.334,28,4,10,10,2.052,"Left",28,4,24,24,0,0,0,-24,0,-24,24,24,"Advent",18,-6,28,10,4,10
"185",7,"LAM1-LAM2",0.807752970343434,0.459995160343434,0.242093626843434,0.245503175843434,0.166590370843434,0.467512280843434,0.458657019343434,0.236002289343434,0.0782540693434344,-0.0348981606565656,0.466384584343434,0.587310714343434,0.656589256343434,0.493675636343434,0.0697983013434344,0.00947074634343437,-0.129136365656566,0.165370265843434,0.243633332843434,0.104612847843434,3087,"DG_s15",23.575,24.28,26.332,26.334,28,4,10,10,2.052,"Left",28,4,24,24,0,0,0,-24,0,-24,24,24,"Advent",18,-6,28,10,4,10
"186",7,"LAM7-LAM8",-0.283913948020202,0.000425801979797968,0.416011431979798,0.351386329979798,0.207754830979798,0.030979167779798,-0.325438797670202,-0.347501973670202,-0.200216839670202,-0.266427526470202,-0.256750571820202,-0.316883753320202,-0.562052932320202,-0.489003882320202,-0.379210356520202,-0.401794792020202,-0.275219289020202,-0.516638689020202,-0.639161780020202,-0.486428609020202,3087,"DG_s15",23.575,24.28,26.332,26.334,28,4,10,10,2.052,"Left",28,4,24,24,0,0,0,-24,0,-24,24,24,"Advent",18,-6,28,10,4,10
"187",7,"LAM8-LAM9",0.99271573910101,1.02380798910101,1.39317305010101,1.26470107660101,0.90695721160101,0.94994464360101,0.53077491460101,0.34015719810101,0.11091701310101,0.0209202711010101,-0.0830918498989899,-0.10373394989899,0.0847920001010101,0.31721829160101,0.77168314160101,1.12084974160101,1.16175114160101,0.92190822510101,0.53312165510101,0.40960322310101,3087,"DG_s15",23.575,24.28,26.332,26.334,28,4,10,10,2.052,"Left",28,4,24,24,0,0,0,-24,0,-24,24,24,"Advent",18,-6,28,10,4,10
"188",7,"LAM9-LAM10",0.870991081414141,1.50146134141414,1.56650729641414,1.49511307641414,0.896209521414141,0.187496421414141,0.0840332464141414,-0.142650833585859,0.0234000764141414,0.0152933664141414,-0.134715998585859,-0.116353008585859,-0.164801622085859,-0.00753356958585857,-0.0322940545858586,-0.0656180645858586,0.0159460049141414,-0.0497967485858586,0.0688909564141414,0.183269510914141,3087,"DG_s15",23.575,24.28,26.332,26.334,28,4,10,10,2.052,"Left",28,4,24,24,0,0,0,-24,0,-24,24,24,"Advent",18,-6,28,10,4,10
"189",7,"LIP1-LIP2",0.057142342510101,0.122402191010101,0.236684956010101,0.365784582010101,0.264976588010101,0.129561243010101,0.044365907510101,-0.113058403489899,0.00657778551010101,0.092291430510101,0.068474919510101,0.114312938510101,0.159320401060101,-0.00409405843989899,-0.017697279439899,0.072525451560101,-0.045920045989899,-0.090226151989899,-0.178260300489899,-0.260453195489899,3087,"DG_s15",23.575,24.28,26.332,26.334,28,4,10,10,2.052,"Left",28,4,24,24,0,0,0,-24,0,-24,24,24,"Advent",18,-6,28,10,4,10
"190",7,"LIP5-LIP6",-0.449901691787879,-0.388366497287879,-0.261441128287879,-0.00150409728787879,0.0154497687121212,-0.110369212787879,-0.114878282787879,-0.324106873787879,-0.114070689787879,-0.0113083172878788,0.0824914017121212,0.126104360212121,0.436946270212121,0.268886899212121,0.188425861212121,0.280545034212121,-0.0572633342878788,-0.0234228192878788,0.00878063886212121,0.0843441873621212,3087,"DG_s15",23.575,24.28,26.332,26.334,28,4,10,10,2.052,"Left",28,4,24,24,0,0,0,-24,0,-24,24,24,"Advent",18,-6,28,10,4,10
"191",7,"LHH5-LHH6",-0.201474512772727,-0.230742357772727,-0.0796418022727273,-0.122842567272727,-0.246309242272727,0.128160002727273,-0.110026522272727,-0.0207670662727273,0.0663698952272727,-0.176051511272727,-0.137725613272727,-0.0957219912727273,-0.0377667677727273,0.349203468727273,0.482566194877273,0.341894913877273,0.429828913877273,0.0985104188772727,0.0124245222272727,0.196403305227273,3087,"DG_s15",23.575,24.28,26.332,26.334,28,4,10,10,2.052,"Left",28,4,24,24,0,0,0,-24,0,-24,24,24,"Advent",18,-6,28,10,4,10
"192",7,"LAM5-LAM6",-0.229674009343434,-0.251422633343434,-0.283546353943434,-0.313886304443434,-0.215917019443434,-0.155032377943434,-0.174666752343434,-0.260551729693434,-0.227436178193434,-0.164733600693434,-0.395517026193434,-0.330568469343434,-0.594641945843434,-0.559662130843434,-0.423772448943434,-0.410746547943434,-0.461455417943434,-0.549049301443434,-0.628291297843434,-0.503451557343434,3087,"DG_s15",23.575,24.28,26.332,26.334,28,4,10,10,2.052,"Left",28,4,24,24,0,0,0,-24,0,-24,24,24,"Advent",18,-6,28,10,4,10
"193",7,"LHB6-LHB7",0.39341867629798,0.52639739779798,0.61375013979798,0.59715867229798,0.45855486229798,0.47549722379798,0.39774002679798,0.41820039379798,0.46162551879798,0.26359973579798,0.0264623907979798,0.0742685397979798,0.21089526979798,0.60418214484798,0.89827829484798,0.84186039684798,0.64629452184798,0.44789561029798,0.28288107329798,0.27965507479798,3087,"DG_s15",23.575,24.28,26.332,26.334,28,4,10,10,2.052,"Left",28,4,24,24,0,0,0,-24,0,-24,24,24,"Advent",18,-6,28,10,4,10
"194",7,"LHH4-LHH5",-0.123617212935354,-0.157286812935354,-0.114401713535354,0.0367955714646465,-0.241027408535354,-0.298036601735354,-0.332853731735354,-0.301659180235354,-0.00621173523535354,0.0873291279646465,-0.155992492035354,-0.207053968535354,-0.253116513535354,0.165460776464646,0.568404456464646,0.400372496464646,0.278301696964646,-0.112828889035354,-0.362413054035354,-0.154994679035354,3087,"DG_s15",23.575,24.28,26.332,26.334,28,4,10,10,2.052,"Left",28,4,24,24,0,0,0,-24,0,-24,24,24,"Advent",18,-6,28,10,4,10
"195",7,"LAM6-LAM7",0.120881988388889,-0.0634345626111111,0.311604043888889,0.553751543888889,0.646613053388889,0.771436953888889,0.279005753888889,0.0646478258888889,0.0983038063888889,0.124715253388889,0.262360318888889,0.353986237388889,0.291747898388889,0.325057168888889,0.240569158388889,0.0302964507388889,0.0949433647388889,-0.0221222932611111,0.0594630792388889,0.212286521388889,3087,"DG_s15",23.575,24.28,26.332,26.334,28,4,10,10,2.052,"Left",28,4,24,24,0,0,0,-24,0,-24,24,24,"Advent",18,-6,28,10,4,10
