"","trial","electrodes","pre_13","pre_12","pre_11","pre_10","pre_9","pre_8","pre_7","pre_6","pre_5","pre_4","pre_3","pre_2","pre_1","post_1","post_2","post_3","post_4","post_5","post_6","post_7","X","SID","newround_time","choice_time","buttonpress_time","reveal_time","self_payoff","other_payoff","self_foregone","other_foregone","RT","side_chosen","self_var_payoff","other_var_payoff","ineq_var_abs","ineq_choice_abs","ineq_foregone_abs","ineq_foregone","ineq_disadvent","ineq_advent","ineq_disadvent_choice","ineq_advent_choice","ineq_var","ineq_choice","chose_equality","self_diff","other_diff","L_self","R_self","L_other","R_other"
"1",1,"LAM1-LAM2",-0.407151806252525,-0.414072151752525,-0.738110351752525,-1.01935420175253,-1.18659405175253,-1.24580052525253,-1.28696667525253,-1.29337230025253,-1.18434375775253,-0.910140557752525,-0.517033707752525,-0.304349982752525,-0.289433575252525,-0.400705425252525,-0.515423974752525,-0.680455604752525,-0.935314404752525,-1.05841951425253,-0.986770024752525,-0.756816444752525,3081,"DG_s15",-0.702,0.00200000000007,2.082,2.084,10,10,6,6,2.08,"Left",6,6,0,0,0,0,0,0,0,0,0,0,"10-10",4,4,10,6,10,6
"2",1,"LHH5-LHH6",-1.16910978914141,-1.29059888914141,-1.30116278914141,-1.25395738914141,-1.07576979664141,-0.826725486641414,-0.659607739141414,-0.604387844141414,-0.714377986641414,-0.715754786641414,-0.429874584141414,0.0478308708585858,0.493036570858586,0.515414649858586,0.103210699858586,-0.368613000141414,-0.672909862841414,-0.755431256841414,-0.675058106841414,-0.669638606841414,3081,"DG_s15",-0.702,0.00200000000007,2.082,2.084,10,10,6,6,2.08,"Left",6,6,0,0,0,0,0,0,0,0,0,0,"10-10",4,4,10,6,10,6
"3",1,"LAM6-LAM7",0.10225967029798,0.0230930222979798,-0.0679760282020202,-0.12242734770202,0.00130794029797981,0.29199434029798,0.41822778479798,0.29007747429798,0.17043744579798,0.21383144579798,0.57915295129798,1.15352920129798,1.46918067979798,1.30030861979798,0.81721851979798,0.35073854479798,0.0181865497979798,-0.0566061402020202,0.0164501097979798,-0.0113807152020202,3081,"DG_s15",-0.702,0.00200000000007,2.082,2.084,10,10,6,6,2.08,"Left",6,6,0,0,0,0,0,0,0,0,0,0,"10-10",4,4,10,6,10,6
"4",1,"LAM7-LAM8",0.00451248692424241,-0.128755414075758,-0.268121249125758,-0.289309449125758,-0.136045642625758,0.0384067888742424,-0.0766839760757576,-0.295479026075758,-0.452884181075758,-0.496142522575758,-0.333421712075758,-0.0753539620757576,0.0874319429242424,0.0750012024242424,-0.121004258075758,-0.345446963075758,-0.458507276575758,-0.408521201075758,-0.259586793075758,-0.238962138075758,3081,"DG_s15",-0.702,0.00200000000007,2.082,2.084,10,10,6,6,2.08,"Left",6,6,0,0,0,0,0,0,0,0,0,0,"10-10",4,4,10,6,10,6
"5",1,"LAM2-LAM3",-1.03581539527273,-0.996376905022727,-1.04936704502273,-1.18671653452273,-1.31967133702273,-1.32319450087273,-1.12671170087273,-0.742994850872727,-0.331089100872727,-0.0867849772727273,-0.126898749272727,-0.461396129272727,-0.978911829272727,-1.37796367927273,-1.53480325727273,-1.49245942727273,-1.32319512727273,-1.12923386132273,-0.872011311322727,-0.563891561322727,3081,"DG_s15",-0.702,0.00200000000007,2.082,2.084,10,10,6,6,2.08,"Left",6,6,0,0,0,0,0,0,0,0,0,0,"10-10",4,4,10,6,10,6
"6",1,"LHH6-LHH7",-0.0802814086868687,-0.237349898686869,-0.302146298686869,-0.344227098686869,-0.261566498686869,-0.0633915611868687,0.209573938813131,0.517070938813131,0.674909893813131,0.787246056313131,0.959640706313131,1.19322030631313,1.38600515131313,1.18713100081313,0.704210150813131,0.274306615813131,0.00105397581313127,-0.00389617368686873,0.0554363263131313,0.0219602913131313,3081,"DG_s15",-0.702,0.00200000000007,2.082,2.084,10,10,6,6,2.08,"Left",6,6,0,0,0,0,0,0,0,0,0,0,"10-10",4,4,10,6,10,6
"7",1,"LAM3-LAM4",-0.355198333699444,-0.163191383699444,0.0260958663005555,0.231366991300556,0.388710205555556,0.403649805555556,0.360310955555556,0.433216055555556,0.613521305555556,0.858686805555556,0.977647005555556,0.873895605555556,0.763612655555556,0.696861005555556,0.572346091055556,0.243145891055556,-0.0423852654444445,-0.145272365444444,-0.0268627009444445,0.304141699055556,3081,"DG_s15",-0.702,0.00200000000007,2.082,2.084,10,10,6,6,2.08,"Left",6,6,0,0,0,0,0,0,0,0,0,0,"10-10",4,4,10,6,10,6
"8",1,"LHH7-LHH8",-1.36855046353535,-1.34332204853535,-1.09067262853535,-0.810413728535354,-0.602059168035354,-0.411859424535354,-0.0946008945353536,0.266524055464646,0.549932344964646,0.662791396464646,0.718450246464646,0.844206746464646,0.981201046464646,0.871570011464646,0.459567973464646,-0.0225045265353535,-0.370477301535354,-0.522072223285354,-0.693588935285353,-0.946401085285353,3081,"DG_s15",-0.702,0.00200000000007,2.082,2.084,10,10,6,6,2.08,"Left",6,6,0,0,0,0,0,0,0,0,0,0,"10-10",4,4,10,6,10,6
"9",1,"LIP5-LIP6",0.438960277866667,0.0266403278666666,-0.0562385833333333,0.173741800666667,0.528818123666667,0.681482338666667,0.658981438666667,0.648733036166667,0.514730458166667,0.453100543166667,0.687007483166667,0.891001201666667,0.981984630166667,0.996788453166667,1.10379665816667,1.41987815816667,2.07747098466667,2.69047631166667,2.55109570016667,1.82404340016667,3081,"DG_s15",-0.702,0.00200000000007,2.082,2.084,10,10,6,6,2.08,"Left",6,6,0,0,0,0,0,0,0,0,0,0,"10-10",4,4,10,6,10,6
"10",1,"LAM4-LAM5",-1.24623003320707,-1.03288501070707,-1.09255064070707,-1.25430084820707,-1.33983025320707,-1.27486357570707,-1.09575078570707,-0.930079305707071,-0.754191850707071,-0.473076650707071,-0.0532966407070706,0.356409729292929,0.432700079292929,0.0385250617929294,-0.331948663207071,-0.449225013207071,-0.310718163207071,0.0381439042929292,0.237306279292929,0.199194129292929,3081,"DG_s15",-0.702,0.00200000000007,2.082,2.084,10,10,6,6,2.08,"Left",6,6,0,0,0,0,0,0,0,0,0,0,"10-10",4,4,10,6,10,6
"11",1,"LIP1-LIP2",0.730179786737374,0.775486423737374,0.746955194237374,0.574662234237374,0.329296994237374,0.161595044237374,-0.0121079262626264,-0.0427783262626263,0.140765542787374,0.356767272787374,0.715309922787374,1.12292562278737,1.35115395373737,1.32156493573737,1.00315018573737,0.593901985737374,0.238562885737374,0.0611667737373737,0.182661552487374,0.470094902487374,3081,"DG_s15",-0.702,0.00200000000007,2.082,2.084,10,10,6,6,2.08,"Left",6,6,0,0,0,0,0,0,0,0,0,0,"10-10",4,4,10,6,10,6
"12",1,"LHB4-LHB5",-0.351770091461616,-0.0913824764616162,-0.0673454534616162,-0.179251663161616,-0.332137513161616,-0.450417228161616,-0.538674616161616,-0.684536516161616,-0.817443266161616,-0.797104790661616,-0.565421890661616,-0.168883690661616,0.112652231338384,0.0987863158383838,-0.00797200566161618,-0.0215543556616162,0.141027872338384,0.394164512338384,0.442059055638384,0.235637255638384,3081,"DG_s15",-0.702,0.00200000000007,2.082,2.084,10,10,6,6,2.08,"Left",6,6,0,0,0,0,0,0,0,0,0,0,"10-10",4,4,10,6,10,6
"13",1,"LAM5-LAM6",-0.142229199959596,-0.375645549959596,-0.691354399959596,-1.0449993159596,-1.2049183959596,-1.1322944674596,-0.830264396959596,-0.344722296959596,0.055794503040404,0.259575924540404,0.281851704040404,0.237784804040404,0.139725123540404,-0.123578881459596,-0.491543331459596,-0.626786255459596,-0.534236774959596,-0.174179769959596,0.301708130040404,0.433157054040404,3081,"DG_s15",-0.702,0.00200000000007,2.082,2.084,10,10,6,6,2.08,"Left",6,6,0,0,0,0,0,0,0,0,0,0,"10-10",4,4,10,6,10,6
"14",1,"LIP2-LIP3",0.821504736363636,0.565412496363636,0.174489997363636,-0.284435402636364,-0.703465302636364,-0.976457512636364,-1.03633253363636,-0.797147689636364,-0.403768789636364,-0.0873343896363636,0.00214730926363638,-0.173929534736364,-0.549293734736364,-0.873531684736364,-0.938905533636364,-0.824170893636364,-0.593043488636364,-0.361933139136364,-0.0922292191363636,0.413952840863636,3081,"DG_s15",-0.702,0.00200000000007,2.082,2.084,10,10,6,6,2.08,"Left",6,6,0,0,0,0,0,0,0,0,0,0,"10-10",4,4,10,6,10,6
"15",1,"LHH4-LHH5",-1.9604619989596,-2.1178424959596,-2.0676884459596,-1.9786350959596,-1.9149153459596,-1.8606705459596,-1.9055542959596,-2.0037532959596,-2.0301525959596,-2.0100830959596,-1.8376988219596,-1.5522729719596,-1.3789202069096,-1.4378549369096,-1.6295042109096,-1.6659976374096,-1.5844467524596,-1.4221510214596,-1.3341139214596,-1.4003106249596,3081,"DG_s15",-0.702,0.00200000000007,2.082,2.084,10,10,6,6,2.08,"Left",6,6,0,0,0,0,0,0,0,0,0,0,"10-10",4,4,10,6,10,6
"16",1,"LHB5-LHB6",-1.56942369646465,-1.38990128056465,-1.28265149551465,-1.32247864551465,-1.45644859551465,-1.41672198091465,-1.17889096596465,-0.825397565964647,-0.587749028964647,-0.583875166964647,-0.646793166964647,-0.706218966964647,-0.774480889964647,-0.954167382464647,-1.09321775696465,-1.09353085696465,-0.846539720964647,-0.503223220964647,-0.382353346464647,-0.460577496464647,3081,"DG_s15",-0.702,0.00200000000007,2.082,2.084,10,10,6,6,2.08,"Left",6,6,0,0,0,0,0,0,0,0,0,0,"10-10",4,4,10,6,10,6
"17",1,"LHB6-LHB7",-0.564886954829798,-0.787056654829798,-0.794817738809798,-0.698566450309798,-0.699956950309798,-0.492909798809798,-0.122841907979798,0.295885253520202,0.775054953520202,0.961508002020202,0.852433602020202,0.717149602020202,0.620054602020202,0.528627602020202,0.476298802020202,0.437719352020202,0.437394002020202,0.371908406520202,0.235523663520202,0.235516863520202,3081,"DG_s15",-0.702,0.00200000000007,2.082,2.084,10,10,6,6,2.08,"Left",6,6,0,0,0,0,0,0,0,0,0,0,"10-10",4,4,10,6,10,6
"18",1,"LIP4-LIP5",1.53291202020202,1.37943497020202,1.19093362020202,0.93776972020202,0.56717419320202,0.0832041432020202,-0.28660090679798,-0.51015235679798,-0.66100767979798,-0.60696857979798,-0.38402872579798,-0.15504302579798,-0.0194731744079798,0.0950792370920202,0.29121338309202,0.51843503309202,0.79223193170202,1.00394697020202,1.15660037020202,1.39720737020202,3081,"DG_s15",-0.702,0.00200000000007,2.082,2.084,10,10,6,6,2.08,"Left",6,6,0,0,0,0,0,0,0,0,0,0,"10-10",4,4,10,6,10,6
"19",1,"LAM9-LAM10",-1.64079959726768,-1.88116544726768,-2.02676039176768,-2.05985502676768,-1.92652342826768,-1.67630677826768,-1.26484017826768,-0.676351928267677,-0.0768829267676767,0.300838273232323,0.319453023232323,0.0523074232323233,-0.245984276767677,-0.470872376767677,-0.644133026767677,-0.875877551267677,-1.25343045126768,-1.62316400126768,-1.82306190126768,-1.82505969676768,3081,"DG_s15",-0.702,0.00200000000007,2.082,2.084,10,10,6,6,2.08,"Left",6,6,0,0,0,0,0,0,0,0,0,0,"10-10",4,4,10,6,10,6
"20",1,"LHB7-LHB8",-0.484365408838384,-0.422806098838384,-0.269477326838384,-0.146691010338384,-0.225400936338384,-0.320865406338384,-0.150615513338384,0.151781436661616,0.586356871161616,0.991157981161616,0.983564266161616,0.833182366161616,0.775584366161616,0.797221466161616,0.768325316161616,0.523922743161616,0.109430643161616,-0.415552106838384,-0.633127028338384,-0.459493755338384,3081,"DG_s15",-0.702,0.00200000000007,2.082,2.084,10,10,6,6,2.08,"Left",6,6,0,0,0,0,0,0,0,0,0,0,"10-10",4,4,10,6,10,6
"21",1,"LAM8-LAM9",-1.02832764198535,-1.22005870353535,-1.31149331853535,-1.34774120353535,-1.33281875353535,-1.25071390353535,-1.16259474303535,-1.00072804303535,-0.746032993035354,-0.457048643035353,-0.235788853535354,-0.0232796535353534,0.183163096464647,0.284342846464647,0.154837770114647,-0.223821459885354,-0.622369402885353,-0.893308422885354,-0.932571226535354,-0.780763096535353,3081,"DG_s15",-0.702,0.00200000000007,2.082,2.084,10,10,6,6,2.08,"Left",6,6,0,0,0,0,0,0,0,0,0,0,"10-10",4,4,10,6,10,6
"22",1,"LIP7-LIP8",0.438561216686869,1.04244306668687,1.58551899868687,1.86235476868687,1.77246411868687,1.36920961568687,0.793549565686869,0.367477526686869,0.227165018686869,0.235646374186869,0.296319319186869,0.297764408186869,0.223870916186869,0.159970513686869,0.103932568686869,-0.0166401313131313,-0.148089381313131,-0.140526335813131,-0.0441434593131313,0.0667975506868687,3081,"DG_s15",-0.702,0.00200000000007,2.082,2.084,10,10,6,6,2.08,"Left",6,6,0,0,0,0,0,0,0,0,0,0,"10-10",4,4,10,6,10,6
"23",1,"LTT8-LTT9",0.472003977393939,0.348687537393939,0.283609037393939,0.333859399393939,0.514741226393939,0.427836643893939,0.309838543893939,0.376934243893939,0.595720616893939,0.692031289393939,0.654214289393939,0.538411289393939,0.390125339393939,0.380786139393939,0.559040589393939,0.805321139393939,1.00614398939394,0.964778641893939,0.581763361893939,0.0914495618939394,3081,"DG_s15",-0.702,0.00200000000007,2.082,2.084,10,10,6,6,2.08,"Left",6,6,0,0,0,0,0,0,0,0,0,0,"10-10",4,4,10,6,10,6
"24",1,"LIP6-LIP7",0.632584793631818,0.482428533631818,0.482890749681818,0.632511234681818,0.872502534681818,1.08056013468182,1.16198041818182,1.13283501818182,1.03511814118182,0.924534646181818,0.807461971181818,0.699703071181818,0.578993598181818,0.413499093181818,0.289471718181818,0.225955218181818,0.377894600681818,0.766384750681818,1.15827860068182,1.41330510068182,3081,"DG_s15",-0.702,0.00200000000007,2.082,2.084,10,10,6,6,2.08,"Left",6,6,0,0,0,0,0,0,0,0,0,0,"10-10",4,4,10,6,10,6
"25",1,"LIP8-LIP9",0.75420383389899,1.15774902389899,1.24058538989899,0.96138716939899,0.46582326939899,-0.0452494306010101,-0.51780123060101,-0.87233416010101,-0.99644826010101,-0.95485826010101,-0.88722226010101,-0.81657146010101,-0.61610695360101,-0.37071910360101,-0.11012217360101,0.0437834618989899,-0.10321814460101,-0.26923789460101,-0.32526601160101,-0.26933166885101,3081,"DG_s15",-0.702,0.00200000000007,2.082,2.084,10,10,6,6,2.08,"Left",6,6,0,0,0,0,0,0,0,0,0,0,"10-10",4,4,10,6,10,6
"26",1,"LTT9-LTT10",-0.66592802652702,-0.75520732652702,-1.01777095520202,-1.08582226720202,-0.82724928220202,-0.23728778220202,0.39268711779798,0.68636502979798,0.62693427979798,0.34543832979798,0.0331219797979797,-0.12825292020202,-0.23727194570202,-0.44088599570202,-0.54508252570202,-0.39879817570202,-0.0419453002020203,0.40540219979798,0.60807182979798,0.39201081579798,3081,"DG_s15",-0.702,0.00200000000007,2.082,2.084,10,10,6,6,2.08,"Left",6,6,0,0,0,0,0,0,0,0,0,0,"10-10",4,4,10,6,10,6
"27",1,"LHB9-LHB10",-1.96528972424242,-2.01683232424242,-2.01731547424242,-1.98213737424242,-1.71896186524242,-1.32023861524242,-0.898982765242424,-0.578410165242424,-0.592177742242424,-0.955130692242424,-1.35632544224242,-1.60808039224242,-1.69138247424242,-1.60249582424242,-1.55360477424242,-1.61765087424242,-1.70848732424242,-1.81713747424242,-1.89661987424242,-1.92651157424242,3081,"DG_s15",-0.702,0.00200000000007,2.082,2.084,10,10,6,6,2.08,"Left",6,6,0,0,0,0,0,0,0,0,0,0,"10-10",4,4,10,6,10,6
"28",1,"LHB8-LHB9",-1.39470677575758,-1.46930387575758,-1.44237179175758,-1.22392231675758,-0.878070616757576,-0.514030966757576,-0.274371900757576,-0.187875325757576,-0.141353675757576,-0.0545934257575759,0.0109917242424242,-0.0810861752575758,-0.397427305257576,-0.808007105257576,-1.12148185525758,-1.28915145575758,-1.33504887575758,-1.35734542575758,-1.42920547575758,-1.48629712575758,3081,"DG_s15",-0.702,0.00200000000007,2.082,2.084,10,10,6,6,2.08,"Left",6,6,0,0,0,0,0,0,0,0,0,0,"10-10",4,4,10,6,10,6
"29",1,"LIP3-LIP4",-0.829521281974748,-0.949260367474748,-0.819191665474748,-0.453488065474748,0.0588426345252525,0.588288229525252,0.977776252525253,1.05654960252525,0.775836652525253,0.354393102525252,-0.0346859564747475,-0.392178010974748,-0.592239515474748,-0.627264735474747,-0.729573569474747,-0.886636564974748,-0.929665820474748,-0.908887324974748,-0.712871031974748,-0.425188161974748,3081,"DG_s15",-0.702,0.00200000000007,2.082,2.084,10,10,6,6,2.08,"Left",6,6,0,0,0,0,0,0,0,0,0,0,"10-10",4,4,10,6,10,6
"30",2,"LIP1-LIP2",-1.29769360133333,-1.50096493883333,-1.48164974583333,-1.34127151583333,-1.26892457833333,-1.41046864083333,-1.69430846583333,-1.98675874583333,-2.13302553333333,-2.20188073333333,-2.17403768333333,-2.11768898333333,-2.10398698333333,-1.81495347583333,-1.42177382583333,-1.04806672583333,-0.686128425833333,-0.591387583333333,-0.808544436083333,-1.12265673608333,3082,"DG_s15",3.085,3.791,6.023,6.025,18,18,10,10,2.232,"Right",18,18,0,0,0,0,0,0,0,0,0,0,"Equal",8,8,10,18,10,18
"31",2,"LHH7-LHH8",1.1788597439798,0.915372243979798,0.733457570479798,0.788732505479798,0.991281674479798,1.1691969489798,1.1692775784798,1.1446264784798,1.2132386784798,1.3887605039798,1.4350645044798,1.2346147044798,1.0139243934798,0.872262643479798,0.865975630979798,0.926892313479798,0.909376337979798,0.878422617979798,0.908841873979798,0.987068241479798,3082,"DG_s15",3.085,3.791,6.023,6.025,18,18,10,10,2.232,"Right",18,18,0,0,0,0,0,0,0,0,0,0,"Equal",8,8,10,18,10,18
"32",2,"LIP4-LIP5",-0.561743124787879,-0.637394589787879,-0.721563033787879,-0.810427578787879,-0.953911728787879,-1.13378642878788,-1.20685557878788,-1.11621202878788,-0.964876078787879,-0.750971449587879,-0.504284749587879,-0.401767333587879,-0.502947233587879,-0.513987272787879,-0.413169872787879,-0.180016688787879,0.225717161212121,0.405417271212121,0.280513371212121,-0.00475708728787877,3082,"DG_s15",3.085,3.791,6.023,6.025,18,18,10,10,2.232,"Right",18,18,0,0,0,0,0,0,0,0,0,0,"Equal",8,8,10,18,10,18
"33",2,"LHH5-LHH6",0.419052613693434,0.570008184343434,0.550425834343434,0.461162795278434,0.265640495278434,0.00986404527843435,-0.147831434721566,-0.116516660656566,0.00568857484343435,0.0523984248434343,0.0395898598434344,0.122954330343434,0.392100694843434,0.914380244843434,1.51044708984343,1.87952868434343,1.93476003434343,1.61854802784343,0.973099192843434,0.464189269843434,3082,"DG_s15",3.085,3.791,6.023,6.025,18,18,10,10,2.232,"Right",18,18,0,0,0,0,0,0,0,0,0,0,"Equal",8,8,10,18,10,18
"34",2,"LAM1-LAM2",0.320476148755556,0.266659948755556,0.147447378755556,0.116642182155556,0.205692787555556,0.400099637555556,0.610851112555556,0.592202835555556,0.293073785555556,0.0962663055555556,0.0688901585555556,0.174622653555556,0.546804203555556,0.981527933555556,1.40535070555556,1.75263825555556,1.77538896555556,1.34805695705556,0.780634857055556,0.217825107055556,3082,"DG_s15",3.085,3.791,6.023,6.025,18,18,10,10,2.232,"Right",18,18,0,0,0,0,0,0,0,0,0,0,"Equal",8,8,10,18,10,18
"35",2,"LIP7-LIP8",0.290310487111111,0.119372511111111,0.0106317611111112,0.0667620111111111,0.140090661111111,0.212700161111111,0.375400011111111,0.450963861111111,0.474249111111111,0.500973061111111,0.511467411111111,0.505416061111111,0.558960161111111,0.575399261111111,0.507640811111111,0.471195661111111,0.403149411111111,0.276822211111111,0.264432561111111,0.314232711111111,3082,"DG_s15",3.085,3.791,6.023,6.025,18,18,10,10,2.232,"Right",18,18,0,0,0,0,0,0,0,0,0,0,"Equal",8,8,10,18,10,18
"36",2,"LIP2-LIP3",-1.42048029931313,-1.56713481381313,-1.47498514581313,-1.19095089581313,-0.940217145813131,-1.00740454381313,-1.44593409381313,-1.96771594381313,-2.39398589381313,-2.46994958131313,-2.05803645981313,-1.38908840981313,-0.576351909813131,0.126041290186869,0.377232418686869,0.266352968686869,0.115903468686869,0.000109468686868563,-0.0530014313131313,-0.178078281313131,3082,"DG_s15",3.085,3.791,6.023,6.025,18,18,10,10,2.232,"Right",18,18,0,0,0,0,0,0,0,0,0,0,"Equal",8,8,10,18,10,18
"37",2,"LAM7-LAM8",1.130155849,0.759246529,0.595342929,0.74413493,1.05636093,1.06324245,0.9237955935,0.8800106435,0.9744239435,1.2032443935,1.3028069,1.0459457355,0.6343749855,0.4143526292,0.4535617792,0.7171272937,1.0340587437,1.11008825,0.98183435,0.85993205,3082,"DG_s15",3.085,3.791,6.023,6.025,18,18,10,10,2.232,"Right",18,18,0,0,0,0,0,0,0,0,0,0,"Equal",8,8,10,18,10,18
"38",2,"LAM8-LAM9",0.633001885775253,0.355494852275253,0.320429302275253,0.582224504025252,0.959579469025252,1.01156674402525,0.707189809025253,0.374554929025253,0.177347279025253,0.172808587525253,0.220620433025253,0.0553933630252525,-0.235572086974747,-0.401042286974747,-0.425388647474747,-0.305334690074747,-0.102462921074747,0.0111476889252525,0.0580106289252525,0.0575399480252525,3082,"DG_s15",3.085,3.791,6.023,6.025,18,18,10,10,2.232,"Right",18,18,0,0,0,0,0,0,0,0,0,0,"Equal",8,8,10,18,10,18
"39",2,"LTT9-LTT10",-0.438370456570707,-0.175025506570707,0.202461443429293,0.532138243429293,0.471810146429293,0.0152858964292929,-0.432612853570707,-0.644595586070707,-0.451253869570707,-0.0313152195707071,0.153728785429293,0.126377642929293,0.0672229335292929,-0.0542414814707071,-0.0607590364707071,0.0507020485292929,-0.0494336765707071,-0.318531911570707,-0.454003621570707,-0.431797869070707,3082,"DG_s15",3.085,3.791,6.023,6.025,18,18,10,10,2.232,"Right",18,18,0,0,0,0,0,0,0,0,0,0,"Equal",8,8,10,18,10,18
"40",2,"LTT8-LTT9",-0.186158945944444,-0.189794060944444,-0.284423996444444,-0.402662014444444,-0.517602844444444,-0.683147444444444,-0.857666294444444,-0.931893694444444,-0.831171714444444,-0.569144538944444,-0.265258988944444,0.0156198110555556,0.258474381055556,0.404280255555556,0.390631910605556,0.146333110605556,-0.206528739394444,-0.450222789394444,-0.547064394444444,-0.458330724444444,3082,"DG_s15",3.085,3.791,6.023,6.025,18,18,10,10,2.232,"Right",18,18,0,0,0,0,0,0,0,0,0,0,"Equal",8,8,10,18,10,18
"41",2,"LHB8-LHB9",0.617936786636364,0.559748840136364,0.761983797136364,1.21672521213636,1.78982701213636,2.25166466363636,2.34986101363636,2.07400576363636,1.47717937063636,0.982598079136364,0.950558779136364,1.23688302913636,1.76540942213636,2.18479121363636,2.20350106363636,1.94642151363636,1.49747700213636,0.952960702136364,0.560992452136364,0.303991102136364,3082,"DG_s15",3.085,3.791,6.023,6.025,18,18,10,10,2.232,"Right",18,18,0,0,0,0,0,0,0,0,0,0,"Equal",8,8,10,18,10,18
"42",2,"LHH4-LHH5",-0.852602775141414,-0.728531105141414,-0.537098436141414,-0.554135386141414,-0.779566245141414,-0.994392395141414,-0.969763031141414,-0.653755231141414,-0.265458531141414,-0.126124637141414,-0.318274870141414,-0.458060042141414,-0.391100042141414,-0.00774523614141415,0.529900263858586,0.689674335858586,0.417090739058586,-0.157311710941414,-0.663844360941414,-0.921298760941414,3082,"DG_s15",3.085,3.791,6.023,6.025,18,18,10,10,2.232,"Right",18,18,0,0,0,0,0,0,0,0,0,0,"Equal",8,8,10,18,10,18
"43",2,"LAM5-LAM6",-0.859269577818182,-0.713853277818182,-0.430919096818182,0.0586878531818182,0.422493818181818,0.632226418181818,0.774148318181818,0.800075318181818,0.617377468181818,0.205290720481818,-0.309459729518182,-0.781325429518182,-1.07877262951818,-1.07414697081818,-0.928744943318182,-0.850793768318182,-0.882762818318182,-1.04726957931818,-1.27059470681818,-1.45622073181818,3082,"DG_s15",3.085,3.791,6.023,6.025,18,18,10,10,2.232,"Right",18,18,0,0,0,0,0,0,0,0,0,0,"Equal",8,8,10,18,10,18
"44",2,"LHB9-LHB10",0.412673710368687,0.205539923368687,0.111783223368687,0.150975054868687,0.202073354868687,0.0489678418686869,-0.204645258131313,-0.245343303451313,-0.00675620345131314,0.430545046548687,0.868614996548687,0.985388631868687,0.869151681868687,0.661190831868687,0.531733831868687,0.682130031868687,0.895735681868687,0.990512231868687,0.975593131868687,0.831470081868687,3082,"DG_s15",3.085,3.791,6.023,6.025,18,18,10,10,2.232,"Right",18,18,0,0,0,0,0,0,0,0,0,0,"Equal",8,8,10,18,10,18
"45",2,"LHB4-LHB5",0.426911284454545,0.381042290704545,0.416055411204545,0.473940679704545,0.588942959704545,0.710311528454545,0.803023463954545,0.837697815454545,0.749646057804545,0.595972352804546,0.504115130004545,0.531930560004545,0.632310467654545,0.822960972654545,1.05841854545455,1.24396979545455,1.36309919545455,1.27370806095455,0.900146055954545,0.485160755954545,3082,"DG_s15",3.085,3.791,6.023,6.025,18,18,10,10,2.232,"Right",18,18,0,0,0,0,0,0,0,0,0,0,"Equal",8,8,10,18,10,18
"46",2,"LAM6-LAM7",2.13425704545455,1.93788899545455,1.53257986045455,1.21070267545455,1.00518607545455,0.816838564754546,0.680720464754546,0.649591711254546,0.720923111254546,0.919729171954546,1.12771500695455,1.01398586445455,0.758008279954546,0.650710929954545,0.770744829954546,1.10838896095455,1.30507664545455,1.14746265695455,0.793506956954545,0.518078239454545,3082,"DG_s15",3.085,3.791,6.023,6.025,18,18,10,10,2.232,"Right",18,18,0,0,0,0,0,0,0,0,0,0,"Equal",8,8,10,18,10,18
"47",2,"LHH6-LHH7",1.96715731010101,1.79628366010101,1.18432497760101,0.59069567760101,0.20658430445101,0.0086919924510101,-0.0423750250489899,0.0397624829510101,0.20003305610101,0.44738626810101,0.64987577460101,0.54502885160101,0.40966077460101,0.45694122460101,0.72085741810101,1.09669098310101,1.18742141010101,0.91467864110101,0.43778189110101,0.10363441160101,3082,"DG_s15",3.085,3.791,6.023,6.025,18,18,10,10,2.232,"Right",18,18,0,0,0,0,0,0,0,0,0,0,"Equal",8,8,10,18,10,18
"48",2,"LAM2-LAM3",0.284515543333333,0.335639323333333,0.304909037333333,0.102068487333333,-0.143688312666667,-0.272504923166667,-0.253874377166667,-0.171839160816667,-0.206900810816667,-0.344498435316667,-0.285761480316667,-0.0578353466666667,0.314899053333333,0.697860038333333,0.814520128333333,0.718986578333333,0.549306978333333,0.408452328333333,0.314346328333333,0.232132068333333,3082,"DG_s15",3.085,3.791,6.023,6.025,18,18,10,10,2.232,"Right",18,18,0,0,0,0,0,0,0,0,0,0,"Equal",8,8,10,18,10,18
"49",2,"LIP3-LIP4",-1.06641212873737,-1.15457342123737,-1.07589396323737,-0.893604998737374,-0.670327814237374,-0.722942054237374,-0.885185514237374,-1.04761027473737,-1.15979419423737,-1.11772299423737,-1.00165794373737,-0.700776483237374,-0.0576861482373737,0.739284151762626,1.22395907626263,1.23096197626263,1.02563547626263,0.822714976262626,0.718872976262626,0.616712826262626,3082,"DG_s15",3.085,3.791,6.023,6.025,18,18,10,10,2.232,"Right",18,18,0,0,0,0,0,0,0,0,0,0,"Equal",8,8,10,18,10,18
"50",2,"LAM3-LAM4",-0.829784041080808,-0.906374953080808,-0.861142898080808,-0.779910398080808,-0.788214098080808,-0.952112093080808,-1.15789805808081,-1.25523015808081,-1.16808591737931,-0.898759937379308,-0.611515087379308,-0.471452527879308,-0.477474638580808,-0.498843047080808,-0.474468197080808,-0.406872341580808,-0.387432405580808,-0.539435177080808,-0.783785727080808,-0.981712892080808,3082,"DG_s15",3.085,3.791,6.023,6.025,18,18,10,10,2.232,"Right",18,18,0,0,0,0,0,0,0,0,0,0,"Equal",8,8,10,18,10,18
"51",2,"LHB5-LHB6",0.568380745555556,0.283746302555556,-0.175363247444444,-0.299482220444444,-0.288814250444444,-0.272881730444444,-0.266192880444444,-0.387865707444444,-0.509451657444444,-0.574572434444445,-0.591285134444445,-0.497850555444444,-0.312414805444444,0.0177430445555556,0.412823644555556,0.479278771555556,0.347808886555556,0.0811183715555556,-0.316358528444444,-0.578707284444445,3082,"DG_s15",3.085,3.791,6.023,6.025,18,18,10,10,2.232,"Right",18,18,0,0,0,0,0,0,0,0,0,0,"Equal",8,8,10,18,10,18
"52",2,"LIP6-LIP7",0.205167074836364,0.00461501483636367,-0.0507397163636363,-0.00369756636363633,-0.0520130163636364,-0.0443097198636364,0.150253600136364,0.517939700136364,0.928336300136364,1.21923961363636,1.23308051363636,0.989738371136364,0.975307021136364,1.06445802113636,1.09400962113636,0.996601510136364,0.617033710136364,0.243645661636364,0.0133474666363637,-0.0578706798636364,3082,"DG_s15",3.085,3.791,6.023,6.025,18,18,10,10,2.232,"Right",18,18,0,0,0,0,0,0,0,0,0,0,"Equal",8,8,10,18,10,18
"53",2,"LAM4-LAM5",0.786004448838384,1.27092264883838,1.60201869883838,1.48219163283838,0.949335782838384,0.373602632838384,-0.0795572171616162,-0.306074116161616,-0.216336066161616,-0.0553742341616162,0.0911521513383838,0.165268301338384,0.162414901338384,0.216681898288384,0.430563012788384,0.748776862788384,0.853587764288384,0.690317585338384,0.426695135338384,0.260644907488384,3082,"DG_s15",3.085,3.791,6.023,6.025,18,18,10,10,2.232,"Right",18,18,0,0,0,0,0,0,0,0,0,0,"Equal",8,8,10,18,10,18
"54",2,"LIP8-LIP9",0.0870826409090909,0.0524305409090909,0.0635151409090909,0.0800697909090909,0.0862914409090909,0.211587646909091,0.346575896909091,0.415952534909091,0.434999734909091,0.483295081909091,0.529532381909091,0.547603266909091,0.611595399409091,0.648753396409091,0.577392702409091,0.399057629409091,0.130937596909091,-0.214470353090909,-0.457370959090909,-0.415967109090909,3082,"DG_s15",3.085,3.791,6.023,6.025,18,18,10,10,2.232,"Right",18,18,0,0,0,0,0,0,0,0,0,0,"Equal",8,8,10,18,10,18
"55",2,"LIP5-LIP6",0.107855805408586,-0.0158088830914141,-0.114085482141414,-0.136232922141414,-0.265322522641414,-0.412751234141414,-0.583861364141414,-0.765094264141414,-0.662063413641414,-0.386079613641414,-0.0908903436414141,0.0704325683585858,-0.175536382141414,-0.423271333141414,-0.420761068141414,-0.171971630141414,0.134608038858586,0.104240439858586,-0.227219945141414,-0.601867595141414,3082,"DG_s15",3.085,3.791,6.023,6.025,18,18,10,10,2.232,"Right",18,18,0,0,0,0,0,0,0,0,0,0,"Equal",8,8,10,18,10,18
"56",2,"LHB6-LHB7",0.869209729732323,0.791309718232323,0.260744168232323,-0.0128831657676768,-0.0914184657676768,-0.0835697207676768,0.0289593257323232,-0.0615494280676768,-0.248135868067677,-0.400822328067677,-0.459929724567677,-0.462898375267677,-0.422156135267677,-0.343131269767677,-0.334732689767677,-0.474093551267677,-0.667488751267677,-0.799484196767677,-0.713421034767677,-0.482725389767677,3082,"DG_s15",3.085,3.791,6.023,6.025,18,18,10,10,2.232,"Right",18,18,0,0,0,0,0,0,0,0,0,0,"Equal",8,8,10,18,10,18
"57",2,"LAM9-LAM10",0.775296711616162,0.685424661616162,0.505190911616162,0.342588171616162,0.195496186616162,-0.0179665633838384,-0.259447263383838,-0.449138723383838,-0.454652865883838,-0.212743915883838,0.121158834116162,0.412503784116162,0.598203111616162,0.629449961616162,0.442095110616162,0.151376910616162,-0.0409065243838384,-0.157097457383838,-0.139352601383838,-0.0542485513838384,3082,"DG_s15",3.085,3.791,6.023,6.025,18,18,10,10,2.232,"Right",18,18,0,0,0,0,0,0,0,0,0,0,"Equal",8,8,10,18,10,18
"58",2,"LHB7-LHB8",0.598476865494949,0.530725769994949,0.586737979994949,0.974703329994949,1.50945513499495,2.12810560949495,2.41789594949495,2.28463944949495,1.85938364949495,1.30964965899495,0.92322838399495,0.639097883994949,0.45714573889495,0.44420622439495,0.38048794939495,0.216076599394949,0.0126263444949495,-0.105784900505051,-0.16187370050505,-0.17554340050505,3082,"DG_s15",3.085,3.791,6.023,6.025,18,18,10,10,2.232,"Right",18,18,0,0,0,0,0,0,0,0,0,0,"Equal",8,8,10,18,10,18
"59",3,"LAM2-LAM3",-0.804778130808081,-0.864694480808081,-0.785540530808081,-0.570735470808081,-0.259060020808081,0.0473050291919192,0.151971123691919,0.0533905086919192,0.0102562996919192,0.114769899691919,0.333661205191919,0.473590810191919,0.421676589191919,0.305303989191919,0.198861039191919,0.0993680256919192,-0.113829494308081,-0.262830003808081,-0.271186253808081,-0.156713040308081,3083,"DG_s15",7.026,7.731,9.383,9.385,10,26,10,10,1.652,"Right",10,26,16,16,0,0,16,0,16,0,-16,-16,"Disadvent",0,16,10,10,10,26
"60",3,"LHB8-LHB9",1.1242755450404,0.745368245040404,0.388687545040404,0.0995426450404041,-0.105110045959596,-0.203355995959596,-0.189884995959596,-0.0945592959595959,0.0601669540404041,0.173420754040404,0.222149504040404,0.292422649540404,0.421936349540404,0.605082349540404,0.706117767040404,0.599145521540404,0.398474571540404,0.269924765540404,0.316897502540404,0.557728102540404,3083,"DG_s15",7.026,7.731,9.383,9.385,10,26,10,10,1.652,"Right",10,26,16,16,0,0,16,0,16,0,-16,-16,"Disadvent",0,16,10,10,10,26
"61",3,"LAM7-LAM8",-0.453638022222222,-0.464786672222222,-0.488412572222222,-0.493960872222222,-0.426438672222222,-0.314927443222222,-0.179090683222222,-0.0368529257222222,-0.00384848422222222,-0.174029713222222,-0.439298223222222,-0.598987030722222,-0.559603739722222,-0.319453929722222,-0.0411041797222222,0.0819560967777778,-0.0188426357222222,-0.313944895722222,-0.563977845722222,-0.673027322222222,3083,"DG_s15",7.026,7.731,9.383,9.385,10,26,10,10,1.652,"Right",10,26,16,16,0,0,16,0,16,0,-16,-16,"Disadvent",0,16,10,10,10,26
"62",3,"LAM4-LAM5",-0.0314783357171717,-0.0201842647671717,0.0968335352328283,0.317524985232828,0.626181580232828,0.968377378282828,1.19258892828283,1.12310710228283,0.709618152282828,0.213194702282828,0.00237716528282828,0.235464491282828,0.836251991282828,1.45460544128283,1.72432077828283,1.45303505528283,0.831019655282828,0.421148415282828,0.247030715282828,0.364120238282828,3083,"DG_s15",7.026,7.731,9.383,9.385,10,26,10,10,1.652,"Right",10,26,16,16,0,0,16,0,16,0,-16,-16,"Disadvent",0,16,10,10,10,26
"63",3,"LHB9-LHB10",-0.524855412262626,-0.756200112262626,-0.987216462262626,-1.18578694626263,-1.33794652626263,-1.33198867626263,-1.25358482626263,-1.17077027626263,-1.14194622626263,-1.20904047626263,-1.25301012626263,-1.25965197626263,-1.15754407626263,-1.02357122626263,-0.991009176262626,-1.04906897626263,-1.14574742626263,-1.28912097626263,-1.34974237626263,-1.26371462626263,3083,"DG_s15",7.026,7.731,9.383,9.385,10,26,10,10,1.652,"Right",10,26,16,16,0,0,16,0,16,0,-16,-16,"Disadvent",0,16,10,10,10,26
"64",3,"LHH4-LHH5",-0.513010197373737,-0.507544347373737,-0.352352366373737,-0.0225913163737374,0.409658883626263,0.789680183626263,0.925531052626263,0.702015352626263,0.292038252626263,-0.0213431823737374,-0.226212567373737,-0.200752122373737,0.0557400776262626,0.277695562626263,0.427576197626263,0.404664982626263,0.206525532626263,0.0459186851262626,0.0634326851262626,0.313548555126263,3083,"DG_s15",7.026,7.731,9.383,9.385,10,26,10,10,1.652,"Right",10,26,16,16,0,0,16,0,16,0,-16,-16,"Disadvent",0,16,10,10,10,26
"65",3,"LHH7-LHH8",-0.267741424212121,-0.0608067542121212,0.156351720787879,0.361732570787879,0.371475943787879,0.175972602287879,-0.0780089477121212,-0.286583447712121,-0.420392252712121,-0.478760511212121,-0.486767111212121,-0.552140761212121,-0.704231711212121,-0.760673711212121,-0.729190111212121,-0.640948561212121,-0.546163611212121,-0.539127111212121,-0.583195211212121,-0.680479211212121,3083,"DG_s15",7.026,7.731,9.383,9.385,10,26,10,10,1.652,"Right",10,26,16,16,0,0,16,0,16,0,-16,-16,"Disadvent",0,16,10,10,10,26
"66",3,"LIP4-LIP5",1.22743352373737,1.32594482373737,1.39528037373737,1.30060040973737,1.01897700973737,0.693988059737374,0.497638009737374,0.368164873737374,0.290852873737374,0.295552173737374,0.223892923737374,0.111124973737374,0.156548323737374,0.203678023737374,0.240711073737374,0.279065673737374,0.272558573737374,0.313940131737374,0.389463870887374,0.418994270887374,3083,"DG_s15",7.026,7.731,9.383,9.385,10,26,10,10,1.652,"Right",10,26,16,16,0,0,16,0,16,0,-16,-16,"Disadvent",0,16,10,10,10,26
"67",3,"LAM9-LAM10",0.0926226318181818,0.0670651818181818,0.0103739818181818,-0.0168266681818182,0.0425756618181818,0.143390051403182,0.240438195903182,0.261357295903182,0.344904988903182,0.493779849318182,0.762066054818182,1.12616925481818,1.20510603181818,1.04919111061818,0.823281042018182,0.587190114018182,0.403945314018182,0.313115685218182,0.243860253818182,0.130779381818182,3083,"DG_s15",7.026,7.731,9.383,9.385,10,26,10,10,1.652,"Right",10,26,16,16,0,0,16,0,16,0,-16,-16,"Disadvent",0,16,10,10,10,26
"68",3,"LAM3-LAM4",-0.122857166828283,0.259889033171717,0.439619037171717,0.245386871171717,-0.146350878828283,-0.445437378828283,-0.434102172328283,-0.197322841628283,-0.0686432466282828,-0.195486996628283,-0.295368452128283,-0.259690498328283,0.0658219066717172,0.636995056671717,1.01036275167172,1.03050634567172,0.626504995671717,0.240452873121717,0.101124273121717,0.259695994621717,3083,"DG_s15",7.026,7.731,9.383,9.385,10,26,10,10,1.652,"Right",10,26,16,16,0,0,16,0,16,0,-16,-16,"Disadvent",0,16,10,10,10,26
"69",3,"LHB4-LHB5",-1.39144957020202,-1.27257792020202,-0.93508615770202,-0.53598960770202,-0.11915025770202,0.31283614229798,0.59078237979798,0.70559872979798,0.68713512979798,0.45682450729798,0.00725275729797981,-0.52642369270202,-0.89613024270202,-1.08743052020202,-1.05401497020202,-0.86800417020202,-0.76588287020202,-0.69388877020202,-0.51187896970202,-0.22012131970202,3083,"DG_s15",7.026,7.731,9.383,9.385,10,26,10,10,1.652,"Right",10,26,16,16,0,0,16,0,16,0,-16,-16,"Disadvent",0,16,10,10,10,26
"70",3,"LIP7-LIP8",1.85216635100606,1.26904510100606,0.775998201006061,0.513423851006061,0.436593360606061,0.300076460606061,0.288961711106061,0.433803376106061,0.581698874106061,0.713652259106061,0.562476408606061,0.315710793606061,0.0966405956060606,0.0175542606060607,0.170135110606061,0.339555135606061,0.498485096506061,0.490422746506061,0.438534871506061,0.506064813056061,3083,"DG_s15",7.026,7.731,9.383,9.385,10,26,10,10,1.652,"Right",10,26,16,16,0,0,16,0,16,0,-16,-16,"Disadvent",0,16,10,10,10,26
"71",3,"LAM1-LAM2",-0.283969437409091,-0.0133351074090909,0.0969717390409091,-0.175356064459091,-0.484790014459091,-0.649758194459091,-0.687195540909091,-0.446279118259091,-0.105585268259091,0.179410181740909,0.417490631740909,0.519373259090909,0.656009859090909,0.987329059090909,1.43028845909091,1.77293060909091,1.62725979909091,0.927742299090909,0.304941957090909,-0.123389397409091,3083,"DG_s15",7.026,7.731,9.383,9.385,10,26,10,10,1.652,"Right",10,26,16,16,0,0,16,0,16,0,-16,-16,"Disadvent",0,16,10,10,10,26
"72",3,"LIP1-LIP2",-0.381126254611111,-0.495189561111111,-0.536339511111111,-0.575409911111111,-0.518162016111111,-0.412020390611111,-0.352727043111111,-0.381281843111111,-0.316795200111111,-0.158445125611111,0.176635826888889,0.631886626888889,0.807332238888889,0.717655188888889,0.434936855738889,0.0575975057388889,-0.241257244261111,-0.378066244261111,-0.395853261111111,-0.355686761111111,3083,"DG_s15",7.026,7.731,9.383,9.385,10,26,10,10,1.652,"Right",10,26,16,16,0,0,16,0,16,0,-16,-16,"Disadvent",0,16,10,10,10,26
"73",3,"LAM6-LAM7",-0.700804638888889,-0.799503138888889,-0.771456838888889,-0.648719018888889,-0.408548523888889,-0.168392322888889,-0.114823992888889,-0.286861412888889,-0.403097407888889,-0.399351950888889,-0.256365430888889,0.00571816911111111,0.0656324883611111,-0.0191994446388889,-0.0866947971388889,-0.143964971488889,-0.182194490738889,-0.247648765738889,-0.357894113238889,-0.389409338888889,3083,"DG_s15",7.026,7.731,9.383,9.385,10,26,10,10,1.652,"Right",10,26,16,16,0,0,16,0,16,0,-16,-16,"Disadvent",0,16,10,10,10,26
"74",3,"LHB6-LHB7",-0.443881108787879,-0.262464673787879,-0.138183108787879,-0.0697646612878788,-0.0617058462878788,-0.132403560787879,-0.152066310787879,-0.0769615082878788,-0.0242780480378788,-0.121863668537879,-0.348673568537879,-0.630589968537879,-0.879616843787879,-0.925787393787879,-0.862274843787879,-0.780590643787879,-0.620930393787879,-0.517675943787879,-0.569304993787879,-0.634732293787879,3083,"DG_s15",7.026,7.731,9.383,9.385,10,26,10,10,1.652,"Right",10,26,16,16,0,0,16,0,16,0,-16,-16,"Disadvent",0,16,10,10,10,26
"75",3,"LTT8-LTT9",-0.52551657760101,-0.46779677760101,-0.38302817760101,-0.36467817760101,-0.37762947760101,-0.40512327760101,-0.44551942760101,-0.36223656610101,-0.15086366610101,0.0979635338989899,0.21972673389899,0.0523102723989899,-0.32886407760101,-0.67701562760101,-0.83571707760101,-0.75842197760101,-0.47378358415101,-0.11577303415101,0.24691341584899,0.59185486584899,3083,"DG_s15",7.026,7.731,9.383,9.385,10,26,10,10,1.652,"Right",10,26,16,16,0,0,16,0,16,0,-16,-16,"Disadvent",0,16,10,10,10,26
"76",3,"LHH5-LHH6",-1.71345678333333,-1.72516473333333,-1.55772237333333,-1.27110601433333,-0.906727414333333,-0.535827214333333,-0.345779574333333,-0.328123933333333,-0.332357733333333,-0.377900433333333,-0.553509647333333,-0.768717347333333,-0.841555255333333,-0.818943955333333,-0.663598623833333,-0.631624593833333,-0.942707885833333,-1.22823538583333,-1.29891227483333,-1.00635870483333,3083,"DG_s15",7.026,7.731,9.383,9.385,10,26,10,10,1.652,"Right",10,26,16,16,0,0,16,0,16,0,-16,-16,"Disadvent",0,16,10,10,10,26
"77",3,"LHB7-LHB8",-0.389365511298485,-0.604668311298485,-0.792509366298485,-0.901000784848485,-0.896674734848485,-0.776407653848485,-0.568117043848485,-0.410802661848485,-0.487160311848485,-0.699070892848485,-0.950859702848485,-1.27283453484848,-1.23484396984848,-0.898346199348485,-0.547123549348485,-0.176114631848485,-0.108783111848485,-0.394679932348485,-0.781362832348485,-0.787392729848485,3083,"DG_s15",7.026,7.731,9.383,9.385,10,26,10,10,1.652,"Right",10,26,16,16,0,0,16,0,16,0,-16,-16,"Disadvent",0,16,10,10,10,26
"78",3,"LTT9-LTT10",-0.673036598989899,-0.609713548989899,-0.540249587489899,-0.462769987989899,-0.327451092039899,-0.106628642039899,0.111946246460101,0.288041846960101,0.438097051010101,0.576694551010101,0.775545651010101,1.0847403010101,1.3874358010101,1.4508933510101,1.1473424165101,0.571553781510101,-0.002415018489899,-0.382113518489899,-0.551897083989899,-0.542160348989899,3083,"DG_s15",7.026,7.731,9.383,9.385,10,26,10,10,1.652,"Right",10,26,16,16,0,0,16,0,16,0,-16,-16,"Disadvent",0,16,10,10,10,26
"79",3,"LAM8-LAM9",0.823589949949495,0.837369994949495,0.763479887449495,0.630866927449495,0.416417977449495,0.175582527449495,0.111443547949495,0.200588177949495,0.343079252449495,0.395526802449495,0.312509189449495,0.247852923449495,0.257132073949495,0.378338961449495,0.461778076449495,0.378712222449495,0.184664097449495,-0.049474040050505,-0.204895605050505,-0.256003805050505,3083,"DG_s15",7.026,7.731,9.383,9.385,10,26,10,10,1.652,"Right",10,26,16,16,0,0,16,0,16,0,-16,-16,"Disadvent",0,16,10,10,10,26
"80",3,"LIP5-LIP6",1.2802542540404,1.0490728540404,0.704571104040404,0.465720554040404,0.312328004040404,0.194427303040404,0.081618648040404,-0.116874801959596,-0.424651101959596,-0.676613250959596,-0.859653795959596,-0.880027845959596,-0.643017515459596,-0.319003765459596,-0.033036875459596,0.076204484040404,0.095740652390404,0.120558352390404,0.226052862390404,0.383944302890404,3083,"DG_s15",7.026,7.731,9.383,9.385,10,26,10,10,1.652,"Right",10,26,16,16,0,0,16,0,16,0,-16,-16,"Disadvent",0,16,10,10,10,26
"81",3,"LIP6-LIP7",0.787069621055556,0.674525533055556,0.372004933055556,0.0561863830555556,-0.192838659444444,-0.215558359444444,-0.120557024444444,-0.0471938744444444,0.0145221255555556,-0.124427574444444,-0.224250759444444,-0.107983202944444,0.130119097055556,0.430823497055556,0.661640847055556,0.854660340555556,1.03609569055556,1.08297339055556,1.08513764055556,1.06744629055556,3083,"DG_s15",7.026,7.731,9.383,9.385,10,26,10,10,1.652,"Right",10,26,16,16,0,0,16,0,16,0,-16,-16,"Disadvent",0,16,10,10,10,26
"82",3,"LIP3-LIP4",-1.21727047681818,-1.16980732681818,-1.21696602681818,-1.28143257681818,-1.28268162681818,-1.19086462681818,-1.05888267681818,-1.01526672681818,-1.00782632681818,-0.997488976818182,-0.956443026818182,-0.853136326818182,-0.788539176818182,-0.805984426818182,-0.883135476818182,-0.989435626818182,-1.04579192681818,-0.976367747318182,-0.800468897318182,-0.606514802318182,3083,"DG_s15",7.026,7.731,9.383,9.385,10,26,10,10,1.652,"Right",10,26,16,16,0,0,16,0,16,0,-16,-16,"Disadvent",0,16,10,10,10,26
"83",3,"LAM5-LAM6",0.869490969343434,1.28342032434343,1.32872032434343,1.08979652434343,0.705270104343434,0.266953704343434,-0.204801345656566,-0.456372595656566,-0.468304308006566,-0.312133208006566,0.0576642919934343,0.301117841993434,0.318823281843434,0.150471031843434,-0.150772668156566,-0.395484218156566,-0.500097775656566,-0.453572875656566,-0.301841915656566,-0.101855034806566,3083,"DG_s15",7.026,7.731,9.383,9.385,10,26,10,10,1.652,"Right",10,26,16,16,0,0,16,0,16,0,-16,-16,"Disadvent",0,16,10,10,10,26
"84",3,"LIP2-LIP3",-1.67729408756212,-1.59944905671712,-1.70716645671712,-1.90010665671712,-1.95906678536712,-1.96638150621212,-1.98610540621212,-1.91495635621212,-1.75638428421212,-1.46880164421212,-0.999371294212121,-0.675897394212121,-0.759684617712121,-1.08817531771212,-1.49367326771212,-1.84655871771212,-2.10532922121212,-2.20105097121212,-2.09451945421212,-1.80925593421212,3083,"DG_s15",7.026,7.731,9.383,9.385,10,26,10,10,1.652,"Right",10,26,16,16,0,0,16,0,16,0,-16,-16,"Disadvent",0,16,10,10,10,26
"85",3,"LIP8-LIP9",1.87519740555556,2.01951210555556,1.98173600555556,1.72193450555556,1.46165075555556,1.14937607055556,0.738434770555556,0.601547770555556,0.556633670555556,0.481650111555556,0.678720904455556,0.998173104455556,1.22967430445556,1.39775133695556,1.39047453805556,1.13741883305556,0.906011183055556,0.801842390555556,0.622319296555556,0.317245351555556,3083,"DG_s15",7.026,7.731,9.383,9.385,10,26,10,10,1.652,"Right",10,26,16,16,0,0,16,0,16,0,-16,-16,"Disadvent",0,16,10,10,10,26
"86",3,"LHH6-LHH7",-0.354502353686869,-0.392367464186869,-0.423191164186869,-0.371832264186869,-0.244959325686869,-0.244221183686869,-0.455672083686869,-0.687440883686869,-0.796519583186869,-0.836059158186869,-0.858755208186869,-0.958764208186869,-1.14167680868687,-1.22215636868687,-1.14019573868687,-0.946368823081869,-0.696886273081869,-0.548879248081869,-0.599769677081869,-0.775259692686869,3083,"DG_s15",7.026,7.731,9.383,9.385,10,26,10,10,1.652,"Right",10,26,16,16,0,0,16,0,16,0,-16,-16,"Disadvent",0,16,10,10,10,26
"87",3,"LHB5-LHB6",-0.503910062121212,-0.188175084621212,0.213588015378788,0.446187565378788,0.541493440378788,0.538705062878788,0.460796862878788,0.404792412878788,0.335473383878788,0.114832783878788,-0.245668766121212,-0.556838916121212,-0.804518337121212,-0.964960637121212,-0.994418137121212,-0.974826687121212,-0.772098617121212,-0.451626887621212,-0.186998487621212,0.0430698203287879,3083,"DG_s15",7.026,7.731,9.383,9.385,10,26,10,10,1.652,"Right",10,26,16,16,0,0,16,0,16,0,-16,-16,"Disadvent",0,16,10,10,10,26
"88",4,"LHB9-LHB10",-0.516997014439394,-0.375508752189394,-0.318879777189394,-0.429423277189394,-0.548514306689394,-0.637379618939394,-0.645523193939394,-0.496870493939394,-0.417158993939394,-0.445307293939394,-0.574676743939394,-0.609419964889394,-0.431367764889394,-0.120454114889394,0.271756535110606,0.507413906060606,0.440562289060606,0.169740489060606,-0.0853367609393939,-0.274355160939394,3084,"DG_s15",10.386,11.091,13.747,13.749,16,4,10,10,2.656,"Right",16,4,12,12,0,0,0,-12,0,-12,12,12,"Advent",6,-6,10,16,10,4
"89",4,"LHH5-LHH6",-0.66772438687101,-0.35577518687101,0.0616990631289899,0.27858848272899,0.17594963449899,-0.12623511550101,-0.24063989550101,-0.0210518151010101,0.55188344989899,1.16037834989899,1.27795710489899,0.92261490439899,0.24115845439899,-0.31799767060101,-0.40984893660101,-0.18573853610101,0.21138846389899,0.38104168539899,0.10692257639899,0.0423431768989899,3084,"DG_s15",10.386,11.091,13.747,13.749,16,4,10,10,2.656,"Right",16,4,12,12,0,0,0,-12,0,-12,12,12,"Advent",6,-6,10,16,10,4
"90",4,"LHH4-LHH5",-0.769418439393939,-0.696430889393939,-0.615569789393939,-0.583461889393939,-0.599224789393939,-0.625772689393939,-0.634944389393939,-0.515239432893939,-0.196973382893939,0.179871817106061,0.328323997606061,0.196075541106061,-0.122172758893939,-0.502583458893939,-0.628735489393939,-0.430099016893939,-0.0439634168939394,0.396961183106061,0.654165033106061,0.697303610606061,3084,"DG_s15",10.386,11.091,13.747,13.749,16,4,10,10,2.656,"Right",16,4,12,12,0,0,0,-12,0,-12,12,12,"Advent",6,-6,10,16,10,4
"91",4,"LAM2-LAM3",-0.152018354353535,-0.129600476853535,0.178225173146465,0.690991273146465,1.13152867314646,1.11798130914646,0.665545759146465,0.186093709146465,-0.0766666287035354,-0.0933396965185354,0.0954023584814646,0.201195158481465,0.0810940463314646,-0.156433190353535,-0.222492445353535,-0.198764195353535,-0.132894595353535,-0.0985335453535354,-0.156110495353535,-0.125940275853535,3084,"DG_s15",10.386,11.091,13.747,13.749,16,4,10,10,2.656,"Right",16,4,12,12,0,0,0,-12,0,-12,12,12,"Advent",6,-6,10,16,10,4
"92",4,"LAM3-LAM4",-1.07970392878788,-0.925184678787879,-0.911523678787879,-1.04541267878788,-1.18494982878788,-1.24896407878788,-1.30445922878788,-1.31928932878788,-1.17051035978788,-0.914123809787879,-0.557375109787879,-0.152969459787879,0.151948821212121,0.358668621212121,0.458619121212121,0.391133366212121,0.0801724662121212,-0.398399433787879,-0.829468583787879,-1.06565112878788,3084,"DG_s15",10.386,11.091,13.747,13.749,16,4,10,10,2.656,"Right",16,4,12,12,0,0,0,-12,0,-12,12,12,"Advent",6,-6,10,16,10,4
"93",4,"LAM8-LAM9",-0.352554297676768,-0.567502837676768,-0.747846217676768,-0.795177117676768,-0.724280567676768,-0.645045317676768,-0.583497217676768,-0.605620917676768,-0.592705517676768,-0.526963062676768,-0.264628569176768,0.298261630823232,0.935645930823232,1.40587572582323,1.48665208232323,1.17856208232323,0.736230882323232,0.398766832323232,0.254404624273232,0.207084040023232,3084,"DG_s15",10.386,11.091,13.747,13.749,16,4,10,10,2.656,"Right",16,4,12,12,0,0,0,-12,0,-12,12,12,"Advent",6,-6,10,16,10,4
"94",4,"LAM4-LAM5",-0.265090520707071,-0.0930159207070707,0.00185273429292929,0.00340052929292931,-0.0739110707070707,-0.232403820707071,-0.353209075707071,-0.416018770707071,-0.415660120707071,-0.413131070707071,-0.275200987207071,0.0403655127929293,0.464920962792929,0.974901462792929,1.21508642929293,1.11429347929293,0.885033799292929,0.591098444292929,0.323262488292929,0.394867238292929,3084,"DG_s15",10.386,11.091,13.747,13.749,16,4,10,10,2.656,"Right",16,4,12,12,0,0,0,-12,0,-12,12,12,"Advent",6,-6,10,16,10,4
"95",4,"LIP1-LIP2",-0.3900110705,-0.1637456255,0.3463915245,0.9357091245,1.2726453,1.11936952,0.65240737,0.217190808,0.136069708,0.513814088,1.039428238,1.32465265,1.142388381,0.665754331,0.167705181,-0.247041869,-0.3984989,-0.4555588,-0.63113,-0.5071888155,3084,"DG_s15",10.386,11.091,13.747,13.749,16,4,10,10,2.656,"Right",16,4,12,12,0,0,0,-12,0,-12,12,12,"Advent",6,-6,10,16,10,4
"96",4,"LHB8-LHB9",-0.781452852020202,-0.605752802020202,-0.508299202020202,-0.589967602020202,-0.674416952020202,-0.692608052020202,-0.737414202020202,-0.680511052020202,-0.494302492720202,-0.310720342720202,-0.105045342720202,0.121853407279798,0.377556297979798,0.711905947979798,1.0229232979798,1.1869522979798,1.1167224979798,0.863276497979798,0.517186118479798,0.175684118479798,3084,"DG_s15",10.386,11.091,13.747,13.749,16,4,10,10,2.656,"Right",16,4,12,12,0,0,0,-12,0,-12,12,12,"Advent",6,-6,10,16,10,4
"97",4,"LHB4-LHB5",0.671094192211111,0.602122942211111,0.911931092211111,1.31967250361111,1.50048637161111,1.10023077161111,0.549492703611111,0.285221068611111,0.433040433111111,0.904748033111111,1.11760849561111,0.906778785611111,0.551367685611111,0.292730012016111,0.236753622516111,0.381355017516111,0.583251567516111,0.668236399261111,0.510152529261111,0.180423479261111,3084,"DG_s15",10.386,11.091,13.747,13.749,16,4,10,10,2.656,"Right",16,4,12,12,0,0,0,-12,0,-12,12,12,"Advent",6,-6,10,16,10,4
"98",4,"LAM1-LAM2",0.45165901295303,0.38351687340303,0.56187462340303,0.89568205640303,1.21253484075303,1.21828745680303,0.83086015180303,0.31061165180303,-0.0618538981969697,-0.25677422469697,-0.37860956969697,-0.43393766969697,-0.56698256969697,-0.68594731969697,-0.52797276419697,-0.26132417419697,0.0943476258030303,0.40138491580303,0.37287701880303,0.0750743288030303,3084,"DG_s15",10.386,11.091,13.747,13.749,16,4,10,10,2.656,"Right",16,4,12,12,0,0,0,-12,0,-12,12,12,"Advent",6,-6,10,16,10,4
"99",4,"LIP2-LIP3",-0.429388365186869,-0.558908705186869,-0.691051014186869,-0.576578514186869,-0.336870317686869,-0.0966113942368687,-0.152905690236869,-0.366045257236869,-0.518079307236869,-0.492852630686869,-0.354526214186869,-0.423824547186869,-0.561509117686869,-0.517296517686869,-0.367506684186869,-0.231936293186869,-0.278907972686869,-0.583972522686869,-0.806525113186869,-0.593140504186869,3084,"DG_s15",10.386,11.091,13.747,13.749,16,4,10,10,2.656,"Right",16,4,12,12,0,0,0,-12,0,-12,12,12,"Advent",6,-6,10,16,10,4
"100",4,"LHB7-LHB8",-1.86698817838889,-1.82138878438889,-1.50474511938889,-1.40331219588889,-1.53247866538889,-1.52735009538889,-1.46696011038889,-1.35780378338889,-1.12904307503889,-0.960505480038889,-0.806485130038889,-0.731208743038889,-1.01387420138889,-1.32859400138889,-1.63946730138889,-1.80710258888889,-1.63406598888889,-1.63443383888889,-1.73684573888889,-1.70394408728889,3084,"DG_s15",10.386,11.091,13.747,13.749,16,4,10,10,2.656,"Right",16,4,12,12,0,0,0,-12,0,-12,12,12,"Advent",6,-6,10,16,10,4
"101",4,"LAM7-LAM8",0.121500373789899,0.160880424289899,0.272073512289899,0.200865612289899,-0.042529883010101,-0.294580008010101,-0.428905346010101,-0.317341665510101,-0.00269786551010098,0.386556234489899,0.805265084489899,1.2019275039899,1.4524468039899,1.4685912039899,1.3331562539899,1.1233034039899,0.869269253989899,0.682255299489899,0.542511629489899,0.419831408839899,3084,"DG_s15",10.386,11.091,13.747,13.749,16,4,10,10,2.656,"Right",16,4,12,12,0,0,0,-12,0,-12,12,12,"Advent",6,-6,10,16,10,4
"102",4,"LIP4-LIP5",2.58423633838384,1.92662988683384,1.04257003683384,0.417586586833838,0.106304086833838,0.0853737383838383,0.0753833883838383,0.0576999583838383,0.197638286883838,0.430116986883838,0.738478561883838,0.829188236883838,0.765931832883838,0.850235232883838,1.10707135788384,1.40984876288384,1.48525275588384,1.11483560588384,0.564228455883838,0.107235405883838,3084,"DG_s15",10.386,11.091,13.747,13.749,16,4,10,10,2.656,"Right",16,4,12,12,0,0,0,-12,0,-12,12,12,"Advent",6,-6,10,16,10,4
"103",4,"LIP3-LIP4",0.863339164141414,0.807248688141414,0.520615338141414,0.310686258141414,0.183540713141414,0.0518102221414141,-0.0954211278585858,-0.261870897858586,-0.470629202858586,-0.590785635858586,-0.568924435858586,-0.589188135858586,-0.593331135858586,-0.532450785858586,-0.449828985858586,-0.463542585858586,-0.464825420858586,-0.152140724858586,0.405596775141414,1.10203407514141,3084,"DG_s15",10.386,11.091,13.747,13.749,16,4,10,10,2.656,"Right",16,4,12,12,0,0,0,-12,0,-12,12,12,"Advent",6,-6,10,16,10,4
"104",4,"LIP6-LIP7",-0.00943637525252528,-0.332880364252525,-0.724599664252525,-1.15539811425253,-1.38802221425253,-1.37038562390253,-1.19157430390253,-1.00503752640253,-0.986334276402525,-0.891766735752525,-0.729755105752525,-0.593001833252525,-0.280655383252525,0.106938474747475,0.438802524747475,0.751007574747475,0.716226739747475,0.162721962747475,-0.597429737252525,-1.19118128725253,3084,"DG_s15",10.386,11.091,13.747,13.749,16,4,10,10,2.656,"Right",16,4,12,12,0,0,0,-12,0,-12,12,12,"Advent",6,-6,10,16,10,4
"105",4,"LHH7-LHH8",1.86457539040404,1.86171624040404,1.73152973905404,1.28405999905404,0.77060754905404,0.611769571054041,0.69097147240404,0.97123866240404,1.32364586240404,1.44184374040404,1.39342064040404,1.22676573290404,0.96130918290404,0.73134712790404,0.59342464790404,0.50699265540404,0.39584040540404,0.29024381040404,0.214723340404041,0.18415404040404,3084,"DG_s15",10.386,11.091,13.747,13.749,16,4,10,10,2.656,"Right",16,4,12,12,0,0,0,-12,0,-12,12,12,"Advent",6,-6,10,16,10,4
"106",4,"LHB6-LHB7",-0.153482639674242,-0.311573789674242,-0.246284471124242,-0.183474424424242,-0.359845229424242,-0.595197624424242,-0.659974030924242,-0.534841848924242,-0.200861943924242,0.110821451075758,0.101864424575758,-0.251317525424242,-0.685712225424242,-0.988998375424242,-1.21182409242424,-1.27251119242424,-1.31674559242424,-1.41875929242424,-1.34665934242424,-1.14471672742424,3084,"DG_s15",10.386,11.091,13.747,13.749,16,4,10,10,2.656,"Right",16,4,12,12,0,0,0,-12,0,-12,12,12,"Advent",6,-6,10,16,10,4
"107",4,"LAM9-LAM10",-0.158760438590909,-0.180243257840909,-0.231421379090909,-0.242613809090909,-0.253391209090909,-0.298921659090909,-0.342005959090909,-0.312480139090909,-0.164364546390909,-0.00191064639090909,0.0321921541090909,0.0672890111090909,0.314514218409091,0.662900018409091,1.01593491790909,1.14630304090909,0.965724640909091,0.690077790909091,0.471844390909091,0.375358170909091,3084,"DG_s15",10.386,11.091,13.747,13.749,16,4,10,10,2.656,"Right",16,4,12,12,0,0,0,-12,0,-12,12,12,"Advent",6,-6,10,16,10,4
"108",4,"LIP8-LIP9",0.9850799315,1.05782713,1.0125039435,0.7471989935,0.5959292635,0.4366449135,0.16751115,0.20768914,0.364290634,0.488653334,0.6502164145,0.5630652745,0.5620381155,0.6664292655,0.79755426,1.0069601059,1.0753114209,1.1348475709,1.2704015459,1.43738745,3084,"DG_s15",10.386,11.091,13.747,13.749,16,4,10,10,2.656,"Right",16,4,12,12,0,0,0,-12,0,-12,12,12,"Advent",6,-6,10,16,10,4
"109",4,"LHH6-LHH7",0.209529669666667,0.140306819666667,0.336069209666667,0.619669709666667,0.533484334166667,0.191956134166667,0.00329069391666666,0.131975143916667,0.579089776416667,1.16782677641667,1.50700746666667,1.62093081666667,1.59147681666667,1.40257651666667,1.11048842966667,0.622144129666667,0.182996144166667,0.00454698416666666,0.00888634866666665,0.144003216666667,3084,"DG_s15",10.386,11.091,13.747,13.749,16,4,10,10,2.656,"Right",16,4,12,12,0,0,0,-12,0,-12,12,12,"Advent",6,-6,10,16,10,4
"110",4,"LTT9-LTT10",0.956097714242424,0.897136822742424,0.610472722742424,0.239031522742424,-0.0645785272575758,-0.231595425757576,-0.265271325757576,-0.161820781757576,0.0421048082424242,0.279618508242424,0.478323758242424,0.558940964242424,0.585403924242424,0.637041574242424,0.689266374242424,0.713711874242424,0.651994069242424,0.507395454242424,0.413826214242424,0.498001664242424,3084,"DG_s15",10.386,11.091,13.747,13.749,16,4,10,10,2.656,"Right",16,4,12,12,0,0,0,-12,0,-12,12,12,"Advent",6,-6,10,16,10,4
"111",4,"LAM5-LAM6",-0.438181302328788,-0.634433102328788,-0.859034502328788,-0.955838112328788,-0.888830094378788,-0.698431894378788,-0.413598294378788,-0.152691884378788,0.00177411212121215,0.00329811212121212,-0.178962493878788,-0.517698743878788,-0.869091793878788,-1.02621986187879,-0.867079255878788,-0.476735405878788,-0.0743909058787878,0.143412562121212,0.0783319106212121,-0.264489874378788,3084,"DG_s15",10.386,11.091,13.747,13.749,16,4,10,10,2.656,"Right",16,4,12,12,0,0,0,-12,0,-12,12,12,"Advent",6,-6,10,16,10,4
"112",4,"LIP5-LIP6",2.07941141010101,1.38564293810101,0.40066443810101,-0.29138758959899,-0.62234288959899,-0.68527828364899,-0.65569588364899,-0.80127715594899,-0.87661544494899,-0.82531237889899,-0.65698293639899,-0.52414991139899,-0.59238282239899,-0.78922302239899,-1.06061191489899,-1.20231753989899,-1.14627638989899,-1.04181868489899,-0.97555763489899,-0.94496618489899,3084,"DG_s15",10.386,11.091,13.747,13.749,16,4,10,10,2.656,"Right",16,4,12,12,0,0,0,-12,0,-12,12,12,"Advent",6,-6,10,16,10,4
"113",4,"LHB5-LHB6",-0.577363259909091,-0.471538217409091,-0.0643609674090909,0.377985282590909,0.430514385590909,0.0612686555909091,-0.283531694409091,-0.366124008909091,-0.140011155409091,0.264066044590909,0.425196633590909,0.287720198090909,-0.0129562519090909,-0.315364251909091,-0.481675240909091,-0.473180320909091,-0.307268242909091,-0.100233292909091,0.0135391328909091,-0.0547610871090909,3084,"DG_s15",10.386,11.091,13.747,13.749,16,4,10,10,2.656,"Right",16,4,12,12,0,0,0,-12,0,-12,12,12,"Advent",6,-6,10,16,10,4
"114",4,"LTT8-LTT9",-0.287295831271919,-0.103934269191919,-0.0228175691919191,-0.0532183191919192,-0.172593014191919,-0.348845116641919,-0.510668281641919,-0.602554131641919,-0.604467929641919,-0.509473227191919,-0.338023812191919,-0.149259962191919,-0.0863653341919192,-0.194018250691919,-0.232959050691919,-0.0528720506919191,0.392814964308081,0.968873030808081,1.26385303080808,1.06735348080808,3084,"DG_s15",10.386,11.091,13.747,13.749,16,4,10,10,2.656,"Right",16,4,12,12,0,0,0,-12,0,-12,12,12,"Advent",6,-6,10,16,10,4
"115",4,"LIP7-LIP8",-0.905607670308081,-1.23566327030808,-1.41489513080808,-1.43715538080808,-1.28572628080808,-1.03755851780808,-0.828177537808081,-0.782800109458081,-0.911442159458081,-0.826211378458081,-0.565331758458081,-0.233263236808081,0.400214063191919,1.01057301919192,1.38058601919192,1.54078591919192,1.17079255219192,0.262052602191919,-0.546149397808081,-0.912790092308081,3084,"DG_s15",10.386,11.091,13.747,13.749,16,4,10,10,2.656,"Right",16,4,12,12,0,0,0,-12,0,-12,12,12,"Advent",6,-6,10,16,10,4
"116",4,"LAM6-LAM7",0.0905987568939394,0.172306547893939,0.430445147893939,0.528362088393939,0.346253229893939,0.0668800298939394,-0.0979536201060606,-0.0216888936060606,0.305245406393939,0.759910656393939,1.21345230639394,1.64062463939394,1.91445453939394,1.85519648939394,1.53937868939394,1.11440233939394,0.768699339393939,0.676310639393939,0.636202353393939,0.545938581893939,3084,"DG_s15",10.386,11.091,13.747,13.749,16,4,10,10,2.656,"Right",16,4,12,12,0,0,0,-12,0,-12,12,12,"Advent",6,-6,10,16,10,4
"117",5,"LHB8-LHB9",0.456530132010101,0.445942632010101,0.617769506010101,0.766789245010101,0.597238640010101,0.521692689010101,0.760153539010101,1.3988176000101,2.1457875000101,2.4026579510101,2.0488287765101,1.5320429000101,1.1224298000101,0.911208850010101,0.899834793510101,0.775434370010101,0.543290420010101,0.416041175010101,0.444412944260101,0.504132054260101,3085,"DG_s15",14.75,15.456,17.897,17.899,10,10,6,6,2.441,"Right",6,6,0,0,0,0,0,0,0,0,0,0,"10-10",4,4,6,10,6,10
"118",5,"LAM4-LAM5",-0.138033984336313,-0.286581694336313,-0.356879522236313,-0.287930251031313,-0.121168151031313,-0.0219331018313131,-0.130141038931313,-0.369035288931313,-0.631503488931313,-0.792615278131313,-0.604486611631313,-0.168996061631313,0.348341638368687,0.817758838368687,1.03684083686869,1.00856973686869,0.822410686868687,0.581821386868687,0.380205936868687,0.293768986868687,3085,"DG_s15",14.75,15.456,17.897,17.899,10,10,6,6,2.441,"Right",6,6,0,0,0,0,0,0,0,0,0,0,"10-10",4,4,6,10,6,10
"119",5,"LIP1-LIP2",-0.342469761641414,-0.103328108641414,-0.153925123641414,-0.329922851141414,-0.462553101141414,-0.614024354141414,-0.705145804141414,-0.699232704141414,-0.746294004141414,-0.724490154141414,-0.594181804141414,-0.525763304141414,-0.455208804141414,-0.371172804141414,-0.267668964641414,-0.100230164641414,0.121823535358586,0.442645685358586,0.832853345858586,1.12326444585859,3085,"DG_s15",14.75,15.456,17.897,17.899,10,10,6,6,2.441,"Right",6,6,0,0,0,0,0,0,0,0,0,0,"10-10",4,4,6,10,6,10
"120",5,"LAM3-LAM4",-0.0792717780454545,-0.266132743195455,-0.289170523195455,-0.114971949695455,0.208953350304545,0.404506565454546,0.264964360454546,-0.0814115395454545,-0.439537489545455,-0.729600839545455,-0.839838704545455,-0.767920304545454,-0.706016004545455,-0.722524104545454,-0.716662754545454,-0.729521004545455,-0.701510019545455,-0.522616227295455,-0.330921822295455,-0.218794122295455,3085,"DG_s15",14.75,15.456,17.897,17.899,10,10,6,6,2.441,"Right",6,6,0,0,0,0,0,0,0,0,0,0,"10-10",4,4,6,10,6,10
"121",5,"LAM1-LAM2",0.173362018686869,0.200150068686869,0.344387218686869,0.379030268686869,0.265468168686869,0.190422518686869,0.178656868686869,0.189516268686869,0.215531218686869,0.173321568686869,0.115788118686869,0.174906368686869,0.362947678686869,0.568936055636869,0.737468664286869,0.792236689286869,0.697728429286869,0.504780852336869,0.249071393686869,0.226993339186869,3085,"DG_s15",14.75,15.456,17.897,17.899,10,10,6,6,2.441,"Right",6,6,0,0,0,0,0,0,0,0,0,0,"10-10",4,4,6,10,6,10
"122",5,"LIP5-LIP6",0.171537562838384,0.158429462838384,0.237307073838384,0.486053023838384,0.879493918838384,1.36893811883838,1.20555151283838,0.538939912838384,0.00678121283838384,-0.222396219161616,-0.135273836381616,-0.0853158863816162,-0.0642160158816162,0.116488016118384,0.428417904338384,0.906222904338384,1.04104841183838,0.693821411838384,0.100444561838384,-0.363371538161616,3085,"DG_s15",14.75,15.456,17.897,17.899,10,10,6,6,2.441,"Right",6,6,0,0,0,0,0,0,0,0,0,0,"10-10",4,4,6,10,6,10
"123",5,"LAM9-LAM10",-0.756383366684849,-1.03869681668485,-1.18321006068485,-1.11290871068485,-0.788551292484849,-0.325952542484849,0.00407990151515136,0.0628224015151515,-0.179986950484849,-0.629014130484849,-1.07931693048485,-1.36630578048485,-1.48672627848485,-1.47054474848485,-1.42561979848485,-1.42053244848485,-1.43175594848485,-1.48134219848485,-1.57085944848485,-1.65987384848485,3085,"DG_s15",14.75,15.456,17.897,17.899,10,10,6,6,2.441,"Right",6,6,0,0,0,0,0,0,0,0,0,0,"10-10",4,4,6,10,6,10
"124",5,"LHB9-LHB10",0.324659273888889,0.457873533888889,0.671637628888889,0.906957088888889,1.03701358888889,0.934806433888889,0.599603083888889,0.240194120038889,0.262825370038889,0.750532775038889,1.54580567503889,2.39767213888889,2.82994838888889,2.62032203888889,1.92658360838889,1.10909498838889,0.512891489388889,0.369960489388889,0.565760919888889,0.702775060888889,3085,"DG_s15",14.75,15.456,17.897,17.899,10,10,6,6,2.441,"Right",6,6,0,0,0,0,0,0,0,0,0,0,"10-10",4,4,6,10,6,10
"125",5,"LAM8-LAM9",-0.537121386363636,-0.722167701863636,-1.07822235186364,-1.39222017186364,-1.46318191356364,-1.26974734806364,-0.908803148063636,-0.645891378063636,-0.688114607863636,-1.03067090786364,-1.37483002286364,-1.51213437986364,-1.47771345836364,-1.34222490978864,-1.33953604478864,-1.53589033778864,-1.77658863778864,-1.94640453636364,-1.97974403636364,-1.90440063636364,3085,"DG_s15",14.75,15.456,17.897,17.899,10,10,6,6,2.441,"Right",6,6,0,0,0,0,0,0,0,0,0,0,"10-10",4,4,6,10,6,10
"126",5,"LIP2-LIP3",-1.10842591313636,-1.10813951263636,-1.01066734763636,-0.890205133636364,-0.796232014636364,-0.713895214636364,-0.645152749636364,-0.705762572286364,-0.990538922286364,-1.37451827228636,-1.62939492228636,-1.52971326363636,-1.14832566363636,-0.744710763636364,-0.536438003636364,-0.605227033286364,-0.899190183286364,-1.33401093328636,-1.56116104328636,-1.69599136363636,3085,"DG_s15",14.75,15.456,17.897,17.899,10,10,6,6,2.441,"Right",6,6,0,0,0,0,0,0,0,0,0,0,"10-10",4,4,6,10,6,10
"127",5,"LHH5-LHH6",-0.825771966525253,-0.505715466525253,-0.513508005525253,-0.618222479525252,-0.631830379525252,-0.524945079525252,-0.317730026525253,-0.321881992025252,-0.685718842025252,-1.03929506052525,-1.11798341052525,-0.982901671025252,-0.777047017025252,-0.743432748525253,-0.856610306525252,-0.932279406525253,-0.804890910525253,-0.589725760525252,-0.586324442525253,-0.860211792525252,3085,"DG_s15",14.75,15.456,17.897,17.899,10,10,6,6,2.441,"Right",6,6,0,0,0,0,0,0,0,0,0,0,"10-10",4,4,6,10,6,10
"128",5,"LAM5-LAM6",-0.231510773606061,0.130568176393939,0.536474476393939,0.887112756393939,1.12890977939394,1.12245423439394,0.754573034393939,0.446731632543939,0.257849282543939,0.0988395590439394,0.129684209043939,0.289184698893939,0.506359448893939,0.755428967393939,0.766783444393939,0.500706806393939,0.209432605393939,0.0651228053939394,0.261773328393939,0.520659928393939,3085,"DG_s15",14.75,15.456,17.897,17.899,10,10,6,6,2.441,"Right",6,6,0,0,0,0,0,0,0,0,0,0,"10-10",4,4,6,10,6,10
"129",5,"LHH4-LHH5",-1.22397485472727,-0.796053904727273,-0.498370419727273,-0.648613521727273,-0.944160413727273,-1.08150171372727,-1.00761874872727,-0.805064204727273,-0.823349852527273,-1.09148665252727,-1.24076093202727,-1.22832954202727,-1.13058520172727,-1.13611050172727,-1.31022442222727,-1.45568955527727,-1.43666491077727,-1.28155335827727,-1.20290950827727,-1.21067037522727,3085,"DG_s15",14.75,15.456,17.897,17.899,10,10,6,6,2.441,"Right",6,6,0,0,0,0,0,0,0,0,0,0,"10-10",4,4,6,10,6,10
"130",5,"LIP4-LIP5",0.50564540075404,0.31836373475404,0.19201549655404,0.14287378620404,0.13256748120404,0.0336380312040404,0.0257289771040404,0.19825929810404,0.51830699810404,0.81234623510404,0.80466640340404,0.73021183340404,0.73043618340404,0.90771509640404,1.08767302040404,0.97820628490404,0.60818103490404,0.28030633490404,0.0966092849040404,0.0664972044040404,3085,"DG_s15",14.75,15.456,17.897,17.899,10,10,6,6,2.441,"Right",6,6,0,0,0,0,0,0,0,0,0,0,"10-10",4,4,6,10,6,10
"131",5,"LAM2-LAM3",-0.515604268292929,-0.430112418292929,-0.325062918292929,-0.218703318292929,-0.0314332557929293,0.177610844207071,0.403914094207071,0.653064594207071,0.840690581707071,0.889162181707071,0.836104031707071,0.843193531707071,1.03040643170707,1.34379418170707,1.61298283170707,1.65524523170707,1.40370333170707,0.953214436707071,0.488647686707071,0.199596190707071,3085,"DG_s15",14.75,15.456,17.897,17.899,10,10,6,6,2.441,"Right",6,6,0,0,0,0,0,0,0,0,0,0,"10-10",4,4,6,10,6,10
"132",5,"LHB7-LHB8",0.876972773606061,1.31060761060606,1.72897786060606,2.00497486060606,1.91810986060606,1.40870731060606,0.593955810606061,-0.202071089393939,-0.606562599393939,-0.437090465393939,0.0808188846060606,0.680306784606061,1.21661779460606,1.37060461060606,1.03458683560606,0.579646915606061,0.150980693556061,-0.130230066443939,-0.0033856599439394,0.184951460056061,3085,"DG_s15",14.75,15.456,17.897,17.899,10,10,6,6,2.441,"Right",6,6,0,0,0,0,0,0,0,0,0,0,"10-10",4,4,6,10,6,10
"133",5,"LAM7-LAM8",-0.959628169191919,-0.919902019191919,-1.03214420569192,-1.29737240569192,-1.44999809419192,-1.30864059419192,-0.853444557691919,-0.273643407691919,0.0280289808080807,-0.163508344691919,-0.755005394691919,-1.24221154969192,-1.54637241519192,-1.65943288969192,-1.57097293969192,-1.65127193469192,-1.86047896919192,-1.88633891919192,-1.73670352119192,-1.46922582119192,3085,"DG_s15",14.75,15.456,17.897,17.899,10,10,6,6,2.441,"Right",6,6,0,0,0,0,0,0,0,0,0,0,"10-10",4,4,6,10,6,10
"134",5,"LIP7-LIP8",-0.477775397005051,-0.163004082005051,-0.118343350505051,-0.39405283150505,-0.82635873150505,-0.966468951505051,-0.762405201505051,-0.318761670505051,0.107578829494949,0.0377036789449495,-0.388873171055051,-0.81113947105505,-1.04769530705505,-1.04627444350505,-0.932917757155051,-0.879650877155051,-0.893803311155051,-0.986379354155051,-1.13824359050505,-1.28536837050505,3085,"DG_s15",14.75,15.456,17.897,17.899,10,10,6,6,2.441,"Right",6,6,0,0,0,0,0,0,0,0,0,0,"10-10",4,4,6,10,6,10
"135",5,"LTT8-LTT9",-0.301264239484848,-0.337902690484848,-0.218505344484848,-0.0104020444848485,0.0383861485151515,-0.263827350484848,-0.456253584484848,-0.371553084484848,-0.0524665824848485,0.416555067515152,0.551679521865152,0.273745206865152,-0.283452043134848,-0.669505893134849,-0.698293308484848,-0.406980993484849,0.159053256515152,0.644751756515151,0.895149101515151,0.957263451515151,3085,"DG_s15",14.75,15.456,17.897,17.899,10,10,6,6,2.441,"Right",6,6,0,0,0,0,0,0,0,0,0,0,"10-10",4,4,6,10,6,10
"136",5,"LIP3-LIP4",-0.622574192929293,-0.644899270029293,-0.834549120029293,-1.13442232002929,-1.31156822002929,-1.33195613242929,-1.23765126742929,-1.23028366742929,-1.24402634642929,-1.16474078692929,-1.06210379442929,-0.921078264429293,-0.876094725429293,-0.951401205229293,-0.894388912729293,-0.625249742729293,-0.370619852729293,-0.127497142929293,0.0947410570707071,0.225235307070707,3085,"DG_s15",14.75,15.456,17.897,17.899,10,10,6,6,2.441,"Right",6,6,0,0,0,0,0,0,0,0,0,0,"10-10",4,4,6,10,6,10
"137",5,"LHH7-LHH8",-1.35028424532828,-1.16420733782828,-1.29102141132828,-1.68881176132828,-2.08933126132828,-2.18579019332828,-1.93913751482828,-1.57190096482828,-1.40084679632828,-1.58230951432828,-1.79847506882828,-1.94618157882828,-2.05152673632828,-2.04609495132828,-1.95411184582828,-1.88479863582828,-1.81455414632828,-1.84750603132828,-1.96640722382828,-1.99626797382828,3085,"DG_s15",14.75,15.456,17.897,17.899,10,10,6,6,2.441,"Right",6,6,0,0,0,0,0,0,0,0,0,0,"10-10",4,4,6,10,6,10
"138",5,"LHB6-LHB7",0.487744609969697,0.737511696969697,0.903853696969697,0.973847696969697,0.844092083469697,0.541597938469697,0.336259946969697,0.205319246969697,0.178699465469697,0.281826519169697,0.360998560669697,0.390599760669697,0.391057282669697,0.234878508969697,0.00127647546969695,-0.159215524530303,-0.216766067030303,-0.189479247030303,-0.178391205030303,-0.171340955030303,3085,"DG_s15",14.75,15.456,17.897,17.899,10,10,6,6,2.441,"Right",6,6,0,0,0,0,0,0,0,0,0,0,"10-10",4,4,6,10,6,10
"139",5,"LAM6-LAM7",-0.835183008479798,-0.712522518479798,-0.820218763879798,-1.1409669638798,-1.3704489983798,-1.3933251783798,-1.1379301324798,-0.717982182479798,-0.510579447979798,-0.638843571479798,-0.989026321479798,-1.2023558499798,-1.2265458499798,-1.0617081764798,-0.880047179479798,-0.994060450979798,-1.2770595009798,-1.5580465009798,-1.7889431479798,-1.9047998979798,3085,"DG_s15",14.75,15.456,17.897,17.899,10,10,6,6,2.441,"Right",6,6,0,0,0,0,0,0,0,0,0,0,"10-10",4,4,6,10,6,10
"140",5,"LHB5-LHB6",0.0309775826010101,0.0100551008510101,-0.26156834914899,-0.49170255914899,-0.55899680914899,-0.50660923489899,-0.21791443489899,0.11656657510101,0.26188461510101,0.0906433786010101,-0.0054411563989899,0.0131020936010101,0.0435898536010101,0.12124323510101,-0.11341697989899,-0.47421977989899,-0.67482355039899,-0.64021330789899,-0.56480120789899,-0.54008379789899,3085,"DG_s15",14.75,15.456,17.897,17.899,10,10,6,6,2.441,"Right",6,6,0,0,0,0,0,0,0,0,0,0,"10-10",4,4,6,10,6,10
"141",5,"LHB4-LHB5",-0.198126690454545,-0.260576840454545,-0.530230491454545,-0.725891260454545,-0.772357945454546,-0.654086030454545,-0.317127475454545,0.0158057745454545,0.179897567045455,0.0649559520454545,0.0774929765454545,0.255794626545455,0.482356984045455,0.709041117545455,0.453313788045455,-0.0959257619545455,-0.508121861954545,-0.694779245454545,-0.690987145454545,-0.589703945454545,3085,"DG_s15",14.75,15.456,17.897,17.899,10,10,6,6,2.441,"Right",6,6,0,0,0,0,0,0,0,0,0,0,"10-10",4,4,6,10,6,10
"142",5,"LTT9-LTT10",0.699863120353535,0.408349288853535,-0.118110737646465,-0.551892782646465,-0.756256055496465,-0.732895358996465,-0.769269882496465,-0.918497587496465,-1.14802541464646,-1.27090461464646,-1.06911317814646,-0.578647928146465,0.125762471853535,0.632073521853535,0.648134935353535,0.403441235353535,0.166876585353535,0.0739499353535353,0.0162023023535354,-0.284993097646465,3085,"DG_s15",14.75,15.456,17.897,17.899,10,10,6,6,2.441,"Right",6,6,0,0,0,0,0,0,0,0,0,0,"10-10",4,4,6,10,6,10
"143",5,"LHH6-LHH7",-0.374418867671717,-0.0244883176717172,-0.0092042311717172,-0.338789881171717,-0.665034429671717,-0.805569379671717,-0.604345915671717,-0.182438815671717,0.0402982328282828,-0.0506298826717172,-0.409381732671717,-0.859329632671717,-1.18884903267172,-1.15832593687172,-0.846022786871717,-0.574414106871717,-0.540766471871717,-0.733440502171717,-0.978313602171717,-1.13757218217172,3085,"DG_s15",14.75,15.456,17.897,17.899,10,10,6,6,2.441,"Right",6,6,0,0,0,0,0,0,0,0,0,0,"10-10",4,4,6,10,6,10
"144",5,"LIP6-LIP7",0.809312798151515,1.23601731315152,1.25838376515152,1.08475816515152,0.855969715151515,0.547608760651515,0.253932060651515,0.130481367151515,0.131041517151515,0.300554771651515,0.336218276651515,0.151822700151515,0.101847700151515,0.145625000151515,0.336892995151515,0.511937415151515,0.449582265151515,0.314678415151515,0.227400640151515,0.137289097651515,3085,"DG_s15",14.75,15.456,17.897,17.899,10,10,6,6,2.441,"Right",6,6,0,0,0,0,0,0,0,0,0,0,"10-10",4,4,6,10,6,10
"145",5,"LIP8-LIP9",-0.852808288444444,-0.771124408944444,-0.773054458944444,-0.801739198944444,-0.597092918944444,-0.235087154444444,0.132052695555556,0.269507605555556,0.404170305555556,0.705374305555555,1.08931325555556,1.23422264055556,0.763568795555555,0.244151697555556,-0.0832043524444445,-0.0944648874444444,0.0345918552555555,-0.299923596744444,-0.644796896744444,-0.931961596744444,3085,"DG_s15",14.75,15.456,17.897,17.899,10,10,6,6,2.441,"Right",6,6,0,0,0,0,0,0,0,0,0,0,"10-10",4,4,6,10,6,10
"146",6,"LAM8-LAM9",0.42810657811803,0.43352886311803,0.31502163630303,0.16853313630303,0.0737200153030303,0.13516006980303,0.35382686980303,0.61877471980303,0.79632806980303,0.80922566030303,0.70951710030303,0.56104201030303,0.41354155945303,0.24324882945303,0.10598283945303,0.0671631634030303,0.17358216425303,0.47991131425303,0.85063531425303,1.14404283030303,3086,"DG_s15",18.9,19.605,22.571,22.573,10,10,8,11,2.966,"Right",8,11,3,0,3,3,3,0,0,0,-3,0,"10-10",2,-1,8,10,11,10
"147",6,"LHB9-LHB10",0.347465828555556,0.116177778555556,0.0643684055555556,0.200453405555556,0.289164605555556,0.255911955555556,0.139311655555556,0.0580396055555555,0.0204109555555556,0.0403329555555556,0.0814227055555556,0.0319472555555556,-0.00139769444444438,0.0242968555555556,0.144651225555556,0.370820616055556,0.593753416055556,0.762804616055556,0.823042803805556,0.742188703305556,3086,"DG_s15",18.9,19.605,22.571,22.573,10,10,8,11,2.966,"Right",8,11,3,0,3,3,3,0,0,0,-3,0,"10-10",2,-1,8,10,11,10
"148",6,"LHH4-LHH5",0.474388470891919,0.137670420891919,-0.0447171041080808,-0.0468732218080808,0.162854928191919,0.561089128191919,0.908702878191919,1.08141141919192,1.03023425544192,0.735854375441919,0.461875863941919,0.465870163941919,0.657119677691919,0.922752507691919,0.967945600191919,0.694198550191919,0.379898400191919,0.172876450191919,0.154813219191919,0.244784427191919,3086,"DG_s15",18.9,19.605,22.571,22.573,10,10,8,11,2.966,"Right",8,11,3,0,3,3,3,0,0,0,-3,0,"10-10",2,-1,8,10,11,10
"149",6,"LAM1-LAM2",-1.24926919435859,-0.811049894358586,-0.573139999358586,-0.575163085858586,-0.693706935858586,-0.771957335858586,-0.754025985858586,-0.674841635858586,-0.606420985858586,-0.547295585858586,-0.436020935858586,-0.326123885858586,-0.342038885858586,-0.620646733858586,-1.08051243385859,-1.39491155885859,-1.54578824885859,-1.54267275085859,-1.50152590085859,-1.62656147585859,3086,"DG_s15",18.9,19.605,22.571,22.573,10,10,8,11,2.966,"Right",8,11,3,0,3,3,3,0,0,0,-3,0,"10-10",2,-1,8,10,11,10
"150",6,"LHB8-LHB9",0.236614090707071,0.761241890707071,1.17511712070707,1.49738352070707,1.67553957070707,1.58058347070707,1.29297282070707,0.910648807807071,0.507018307807071,0.196928432807071,0.0303998778070707,0.0603895798570707,0.194192029857071,0.270138604857071,0.235641775407071,0.0635456862570707,-0.0612182087429293,-0.0391958087429293,0.164039525707071,0.424128775707071,3086,"DG_s15",18.9,19.605,22.571,22.573,10,10,8,11,2.966,"Right",8,11,3,0,3,3,3,0,0,0,-3,0,"10-10",2,-1,8,10,11,10
"151",6,"LAM3-LAM4",0.484807923634343,0.595892143634343,0.799040172884343,0.849966818434343,0.633494474484343,0.234500974484343,-0.00529124451565655,0.0246433704843434,0.299385064434343,0.688137364434343,0.849426283434343,0.718367524434343,0.343381674434343,-0.0640157255656565,-0.119361942065657,0.176757216934343,0.709428766934343,1.23098761693434,1.42139688343434,1.35640413343434,3086,"DG_s15",18.9,19.605,22.571,22.573,10,10,8,11,2.966,"Right",8,11,3,0,3,3,3,0,0,0,-3,0,"10-10",2,-1,8,10,11,10
"152",6,"LIP4-LIP5",-0.189566483221212,-0.303431308221212,-0.267854608221212,-0.0255910217212121,0.223945562878788,0.337713337878788,0.400356487878788,0.483416237878788,0.582287037878788,0.666765787878788,0.701293337878788,0.627968887878788,0.413568369878788,0.0623195448787879,-0.287900905121212,-0.500417630121212,-0.643899507121212,-0.822829782121212,-0.823390299021212,-0.724142224021212,3086,"DG_s15",18.9,19.605,22.571,22.573,10,10,8,11,2.966,"Right",8,11,3,0,3,3,3,0,0,0,-3,0,"10-10",2,-1,8,10,11,10
"153",6,"LIP5-LIP6",0.304135121841414,0.416984948691414,0.683804863691414,1.07861002734141,1.44041442734141,1.43597266414141,1.21581766414141,0.969941364141414,0.778824654141414,0.647553504141414,0.508932154141414,0.276672204141414,0.0125950641414141,-0.239961885858586,-0.429390285858586,-0.379569485858586,-0.174417385858586,0.0331433141414141,0.134975514141414,0.000946514141414112,3086,"DG_s15",18.9,19.605,22.571,22.573,10,10,8,11,2.966,"Right",8,11,3,0,3,3,3,0,0,0,-3,0,"10-10",2,-1,8,10,11,10
"154",6,"LHH5-LHH6",0.392076067566667,0.149913056666667,0.0770966166666667,0.172786654166667,0.483979204166667,0.899690254166667,1.17259905416667,1.29504221666667,1.19436128116667,0.842442581166667,0.532248911166667,0.433163027166667,0.502478012666667,0.723549287666667,0.842024974166667,0.807176255866667,0.730158884716667,0.590656534716667,0.354399068216667,0.0995700705166667,3086,"DG_s15",18.9,19.605,22.571,22.573,10,10,8,11,2.966,"Right",8,11,3,0,3,3,3,0,0,0,-3,0,"10-10",2,-1,8,10,11,10
"155",6,"LHB4-LHB5",0.240508502626263,0.368644291626263,0.296561881626263,0.165066289626263,0.144082689626263,0.279736300626263,0.377159556776263,0.343572083776263,0.228884833776263,0.0720397337762626,-0.124765522373737,-0.221129557373737,-0.178881039873737,-0.0550166748737374,0.113693958026263,0.205045814576263,0.192258891726263,0.0818967267262626,-0.0538975061737374,-0.198323212723737,3086,"DG_s15",18.9,19.605,22.571,22.573,10,10,8,11,2.966,"Right",8,11,3,0,3,3,3,0,0,0,-3,0,"10-10",2,-1,8,10,11,10
"156",6,"LHH7-LHH8",-0.174661202141414,0.129699612858586,0.604109162858586,1.05883526285859,1.18281385535859,1.02162830685859,0.839541756858586,0.564331023358586,0.448652232858586,0.738683316358586,1.02617006635859,1.24186484985859,1.17443901585859,0.781882465858586,0.377094345858586,0.0973179458585859,0.0987202658585858,0.210013260358586,0.326660930358586,0.548620980358586,3086,"DG_s15",18.9,19.605,22.571,22.573,10,10,8,11,2.966,"Right",8,11,3,0,3,3,3,0,0,0,-3,0,"10-10",2,-1,8,10,11,10
"157",6,"LAM5-LAM6",-0.0637957312121212,-0.334203581212121,-0.455526056212121,-0.390204396712121,-0.190485396712121,0.104482503287879,0.462506553287879,0.897581133787879,1.36509898378788,1.71194378378788,1.77280203378788,1.56219693378788,1.24330568378788,0.917068233787879,0.661607183787879,0.506184833787879,0.389561983787879,0.296083258787879,0.181867439787879,-0.0264711102121212,3086,"DG_s15",18.9,19.605,22.571,22.573,10,10,8,11,2.966,"Right",8,11,3,0,3,3,3,0,0,0,-3,0,"10-10",2,-1,8,10,11,10
"158",6,"LAM2-LAM3",-0.566647407222222,-0.498907107222222,-0.224254379222222,0.149938270777778,0.212103423277778,-0.123298426722222,-0.582697726722222,-0.965724826722222,-1.11087732222222,-0.870641743722222,-0.419461643722222,0.0221181062777778,0.231427558277778,0.0480012297777778,-0.335479820222222,-0.677051520222222,-0.866877122222222,-0.842193522222222,-0.761723822222222,-0.780033772222222,3086,"DG_s15",18.9,19.605,22.571,22.573,10,10,8,11,2.966,"Right",8,11,3,0,3,3,3,0,0,0,-3,0,"10-10",2,-1,8,10,11,10
"159",6,"LHB7-LHB8",-0.181466466666667,-0.0927034166666667,0.0426645028333333,0.262774452833333,0.562884202833333,0.757437952833333,0.694804075333333,0.513891150333333,0.436522347833333,0.577943147833333,0.853422105833333,1.08866518083333,1.14372493333333,1.02667433333333,0.842258583333333,0.600032043333333,0.308689343333333,0.275486911283333,0.482235611283333,0.800086201283333,3086,"DG_s15",18.9,19.605,22.571,22.573,10,10,8,11,2.966,"Right",8,11,3,0,3,3,3,0,0,0,-3,0,"10-10",2,-1,8,10,11,10
"160",6,"LIP7-LIP8",-0.287612412606061,-0.0762350626060606,0.196835887393939,0.343392195393939,0.388751697393939,0.376974897393939,0.528897247393939,0.794424009393939,0.836908559393939,0.744465959393939,0.577154509393939,0.373003759393939,0.213609240543939,0.170986483743939,0.180574033743939,0.106416692243939,-0.0536666389060606,-0.290318832106061,-0.567127782106061,-0.686982990606061,3086,"DG_s15",18.9,19.605,22.571,22.573,10,10,8,11,2.966,"Right",8,11,3,0,3,3,3,0,0,0,-3,0,"10-10",2,-1,8,10,11,10
"161",6,"LHB6-LHB7",-0.0119898895454545,0.329129260454545,0.842752410454545,1.34737331045455,1.64036624545455,1.56457144545455,1.18883304995455,0.669084799954545,0.171384649954545,-0.126068200045455,-0.236385954545455,-0.272234004545455,-0.203975604545455,-0.0775630045454545,0.0262753454545455,0.102629345454545,0.106902495454545,0.0746423954545454,0.112465042444545,0.236877320344545,3086,"DG_s15",18.9,19.605,22.571,22.573,10,10,8,11,2.966,"Right",8,11,3,0,3,3,3,0,0,0,-3,0,"10-10",2,-1,8,10,11,10
"162",6,"LIP3-LIP4",-0.567389261731818,-0.446505742231818,-0.214356282231818,0.0785867063181818,0.315156471318182,0.284662691318182,0.0225383313181818,-0.242057470681818,-0.359604270681818,-0.189635160181818,0.0164033398181818,0.133929791818182,0.289517191818182,0.490859391818182,0.722682441818182,0.993391341818182,1.17121154181818,1.11109219181818,0.790645020818182,0.245888870818182,3086,"DG_s15",18.9,19.605,22.571,22.573,10,10,8,11,2.966,"Right",8,11,3,0,3,3,3,0,0,0,-3,0,"10-10",2,-1,8,10,11,10
"163",6,"LIP2-LIP3",-1.08788921111111,-1.11197006111111,-1.00126601111111,-0.769412361111111,-0.563660661111111,-0.543813561111111,-0.582215511111111,-0.581956791111111,-0.458615807111111,-0.170856657111111,0.0476490928888889,0.0887961523888889,-0.0714179816111111,-0.232685097611111,-0.143027697611111,0.154401722888889,0.556331922888889,0.771920338888889,0.546676787388889,0.0648112873888889,3086,"DG_s15",18.9,19.605,22.571,22.573,10,10,8,11,2.966,"Right",8,11,3,0,3,3,3,0,0,0,-3,0,"10-10",2,-1,8,10,11,10
"164",6,"LTT9-LTT10",0.25853437979798,0.23486022979798,0.29109187979798,0.48934217979798,0.50329637979798,0.34468527979798,0.21940162979798,0.22802717979798,0.34925726874798,0.58659534874798,0.80423539874798,0.90706461730298,0.83495267835298,0.51344379835298,0.17710024835298,0.0360057297979798,0.0989706097979798,0.39736881864798,0.76271191864798,1.01993736864798,3086,"DG_s15",18.9,19.605,22.571,22.573,10,10,8,11,2.966,"Right",8,11,3,0,3,3,3,0,0,0,-3,0,"10-10",2,-1,8,10,11,10
"165",6,"LAM4-LAM5",-0.752364622520202,-0.529819872520202,-0.153309072520202,0.194240027479798,0.323745497979798,0.122750025479798,-0.359620274520202,-0.770094724520202,-0.968744274520202,-0.939475927020202,-0.699976958020202,-0.509630342520202,-0.451323692520202,-0.518399067520202,-0.697550036520202,-0.878123352020202,-0.955573952020202,-0.893971477020202,-0.678531385520202,-0.385234885520202,3086,"DG_s15",18.9,19.605,22.571,22.573,10,10,8,11,2.966,"Right",8,11,3,0,3,3,3,0,0,0,-3,0,"10-10",2,-1,8,10,11,10
"166",6,"LAM9-LAM10",0.285527030732323,0.199548235732323,0.209548578232323,0.209442678232323,0.205989978232323,0.278115826632323,0.457262026632323,0.786086476632323,1.07964827663232,1.14297902323232,1.01447985823232,0.762467519732323,0.474050619732323,0.274609669732323,0.171241284732323,0.115246723232323,0.138870273232323,0.218375454782323,0.342742044782323,0.510424844782323,3086,"DG_s15",18.9,19.605,22.571,22.573,10,10,8,11,2.966,"Right",8,11,3,0,3,3,3,0,0,0,-3,0,"10-10",2,-1,8,10,11,10
"167",6,"LAM6-LAM7",0.0748100560050505,0.17186456100505,0.375494911005051,0.607301961005051,0.752143605505051,0.803185050505051,0.85370270050505,0.933964850505051,0.91858672150505,0.65211437150505,0.36814397250505,0.16792373750505,0.0861446480050505,0.13399144800505,0.0274649970050505,-0.20605086799495,-0.34548464949495,-0.21457662699495,0.12833827300505,0.523607873005051,3086,"DG_s15",18.9,19.605,22.571,22.573,10,10,8,11,2.966,"Right",8,11,3,0,3,3,3,0,0,0,-3,0,"10-10",2,-1,8,10,11,10
"168",6,"LIP1-LIP2",-0.207128283717172,-0.0907122387171717,-0.161932088717172,-0.193785976272172,-0.229358416272172,-0.290422611272172,-0.283087361272172,-0.195800900717172,0.0202741192828283,0.421736169282828,0.833837069282828,0.848791934532828,0.553493184532828,0.212748434532828,-0.0134846404671717,-0.102941996717172,-0.00458041771717171,0.138017032282828,0.207157292782828,0.223752157282828,3086,"DG_s15",18.9,19.605,22.571,22.573,10,10,8,11,2.966,"Right",8,11,3,0,3,3,3,0,0,0,-3,0,"10-10",2,-1,8,10,11,10
"169",6,"LIP6-LIP7",0.183342902936869,0.0941007260868686,0.227571729191869,0.632392184191869,1.17831553419187,1.57943593919187,1.58731861368687,1.28511559368687,0.897045731536869,0.717563011536869,0.787066461536869,0.893754931536869,0.861853070836869,0.644644640836869,0.208234590836869,-0.140328809163131,-0.146932001313131,-0.0441535763131313,0.139110293686869,0.206392343686869,3086,"DG_s15",18.9,19.605,22.571,22.573,10,10,8,11,2.966,"Right",8,11,3,0,3,3,3,0,0,0,-3,0,"10-10",2,-1,8,10,11,10
"170",6,"LAM7-LAM8",-0.231599387322222,-0.0194793793222222,0.217005923777778,0.293116423777778,0.262238938877778,0.271131989377778,0.415667336277778,0.624154186277778,0.699324368777778,0.542304460277778,0.362433129777778,0.234019299777778,0.181588147641278,0.140558797641278,-5.14718587222296e-05,-0.146084341858722,-0.170749812222222,0.0616369457777778,0.413296145777778,0.703121545777778,3086,"DG_s15",18.9,19.605,22.571,22.573,10,10,8,11,2.966,"Right",8,11,3,0,3,3,3,0,0,0,-3,0,"10-10",2,-1,8,10,11,10
"171",6,"LIP8-LIP9",-1.07466168181818,-1.09608708181818,-1.06946893181818,-1.00837613181818,-0.814278181818182,-0.637641299268182,-0.320879449268182,0.0464488507318182,0.272114450731818,0.363744868181818,0.234674769181818,-0.0895640808181818,-0.457339080818182,-0.759344580818182,-0.802195201818182,-0.638110365718182,-0.479812500718182,-0.378910150718182,-0.373266230718182,-0.398829501918182,3086,"DG_s15",18.9,19.605,22.571,22.573,10,10,8,11,2.966,"Right",8,11,3,0,3,3,3,0,0,0,-3,0,"10-10",2,-1,8,10,11,10
"172",6,"LHH6-LHH7",0.144107563636364,0.310722129636364,0.635479529636364,1.01687247963636,1.29932767963636,1.43097946363636,1.46101046363636,1.38062681363636,1.09706945463636,0.755312454636364,0.610662565636364,0.573291265636364,0.652464942836364,0.677221192836364,0.418086131836364,0.114159081836364,0.0223534636363637,0.127627633636364,0.349570795136364,0.614591845136364,3086,"DG_s15",18.9,19.605,22.571,22.573,10,10,8,11,2.966,"Right",8,11,3,0,3,3,3,0,0,0,-3,0,"10-10",2,-1,8,10,11,10
"173",6,"LHB5-LHB6",0.149894182809596,0.278253935159596,0.425620075159596,0.564116225159596,0.744337088309596,0.844480285959596,0.719848100959596,0.496127370559596,0.269688935559596,0.020325635559596,-0.230626729440404,-0.295042506540404,-0.235454851540404,-0.158461464040404,-0.181212414040404,-0.335687956540404,-0.474380026540404,-0.482543744040404,-0.203715390040404,0.098795609959596,3086,"DG_s15",18.9,19.605,22.571,22.573,10,10,8,11,2.966,"Right",8,11,3,0,3,3,3,0,0,0,-3,0,"10-10",2,-1,8,10,11,10
"174",6,"LTT8-LTT9",-0.707503498484849,-0.640982598484849,-0.504920548484849,-0.389833498484848,-0.409527848484848,-0.367730953984848,-0.124939403984849,0.287390596015151,0.830022046015152,1.13938120151515,0.946436441515151,0.481384341515152,0.178114274515151,0.142895774515152,0.433382134515152,0.836046834515151,0.968243001515152,0.847043786515151,0.591510618315152,0.313938018315152,3086,"DG_s15",18.9,19.605,22.571,22.573,10,10,8,11,2.966,"Right",8,11,3,0,3,3,3,0,0,0,-3,0,"10-10",2,-1,8,10,11,10
"175",7,"LHB7-LHB8",1.42421438449495,1.46873713449495,1.20915603449495,0.69876489749495,0.0351938474949495,-0.37932020250505,-0.520878750505051,-0.417975694505051,-0.197760689505051,-0.223529989505051,-0.421702491505051,-0.69085726050505,-0.952730715505051,-1.09629501550505,-1.11862286550505,-1.07519836550505,-0.98120221550505,-0.87352761550505,-0.73841716550505,-0.573639265505051,3087,"DG_s15",23.575,24.28,26.332,26.334,28,4,10,10,2.052,"Left",28,4,24,24,0,0,0,-24,0,-24,24,24,"Advent",18,-6,28,10,4,10
"176",7,"LHH7-LHH8",0.705534227712121,0.804421826212121,0.723790576212121,0.648519926212121,0.682716926212121,0.833010176212121,0.974187226212121,0.960469476212121,0.763163431212121,0.470873380612121,0.172443615612121,-0.105128784387879,-0.277765589387879,-0.296852370937879,-0.231221068837879,-0.107454348837879,2.96311621212075e-05,-0.00286654668787879,-0.0688641837878788,-0.159709053787879,3087,"DG_s15",23.575,24.28,26.332,26.334,28,4,10,10,2.052,"Left",28,4,24,24,0,0,0,-24,0,-24,24,24,"Advent",18,-6,28,10,4,10
"177",7,"LHB8-LHB9",0.528617459833333,0.667894485333333,0.546712568833333,0.293011574833333,-0.0391145901666667,-0.273773530666667,-0.272106191666667,-0.210002297666667,-0.0752838826666667,0.0964925478333333,0.0980070688333333,0.00383803383333333,-0.0988449161666667,-0.183780096666667,-0.279084546666667,-0.422237561666667,-0.600230761666667,-0.691191861666667,-0.713844361666667,-0.705188011666667,3087,"DG_s15",23.575,24.28,26.332,26.334,28,4,10,10,2.052,"Left",28,4,24,24,0,0,0,-24,0,-24,24,24,"Advent",18,-6,28,10,4,10
"178",7,"LHB9-LHB10",0.534272202191919,1.02370235219192,1.24899586919192,1.02495714699192,0.530203996991919,0.227574606991919,0.143445156991919,0.201708221191919,0.247445821191919,0.0997080611919192,-0.0841481888080808,-0.164317830808081,-0.108590180808081,-0.131899030808081,-0.205980330808081,-0.206566180808081,-0.128571654808081,0.0332258893419192,0.0674682893419192,-0.0785140606580808,3087,"DG_s15",23.575,24.28,26.332,26.334,28,4,10,10,2.052,"Left",28,4,24,24,0,0,0,-24,0,-24,24,24,"Advent",18,-6,28,10,4,10
"179",7,"LAM4-LAM5",-0.465150514277778,-0.951099714277778,-1.16433837777778,-1.20387337777778,-1.26884252777778,-1.18705617777778,-0.963661403497778,-0.724663733497778,-0.630537033497778,-0.812703733497778,-0.940254407777778,-0.877848298777778,-0.563675598777778,-0.0269758987777778,0.291908901222222,0.241774018722222,-0.175850731277778,-0.624913331277778,-0.840750005777778,-0.816210207277778,3087,"DG_s15",23.575,24.28,26.332,26.334,28,4,10,10,2.052,"Left",28,4,24,24,0,0,0,-24,0,-24,24,24,"Advent",18,-6,28,10,4,10
"180",7,"LIP7-LIP8",-0.873083234323232,-0.546528554323232,-0.223630569323232,-0.0539173223232323,-0.0837308703232323,-0.215083250323232,-0.404932785323232,-0.641954282323232,-0.829952032323232,-0.908890532323232,-0.752957851823232,-0.325548401823232,0.138913548176768,0.436302148176768,0.524009117676768,0.337081621676768,-0.0419675283232323,-0.265103678323232,-0.449825628323232,-0.644028132323232,3087,"DG_s15",23.575,24.28,26.332,26.334,28,4,10,10,2.052,"Left",28,4,24,24,0,0,0,-24,0,-24,24,24,"Advent",18,-6,28,10,4,10
"181",7,"LHH6-LHH7",1.31746147348485,1.28856347348485,1.27329547348485,1.23980887348485,1.07645837348485,0.792266381834849,0.517255946084848,0.404626246084848,0.492244246084849,0.675162587734848,0.724767027984849,0.444046577984848,0.131641477984848,-0.0321815095151515,-0.0898109415151515,-0.0610386415151515,-0.118145941515152,-0.210653574015152,-0.181879499015151,0.0304087509848485,3087,"DG_s15",23.575,24.28,26.332,26.334,28,4,10,10,2.052,"Left",28,4,24,24,0,0,0,-24,0,-24,24,24,"Advent",18,-6,28,10,4,10
"182",7,"LAM3-LAM4",-0.889840066621212,-0.730526752621212,-0.332047152621212,-0.0466713871212121,0.0829605878787879,0.0910637878787879,-0.0262017621212122,-0.217622425621212,-0.452998065621212,-0.714346815621212,-1.00255156562121,-1.23341575212121,-1.19260148312121,-0.874185833121212,-0.331775483121212,0.218549966878788,0.457966387878788,0.327748701878788,-0.136721398121212,-0.685537298121212,3087,"DG_s15",23.575,24.28,26.332,26.334,28,4,10,10,2.052,"Left",28,4,24,24,0,0,0,-24,0,-24,24,24,"Advent",18,-6,28,10,4,10
"183",7,"LTT9-LTT10",-0.384287027727273,-0.408608146177273,-0.0454030961772727,0.256752203822727,0.422022483822727,0.412446286772727,0.0947721367727273,-0.404065763227273,-0.713247513227273,-0.719961385127273,-0.415038685127273,-0.000262785127272729,0.227447064872727,0.262293342272727,0.171721934722727,0.0895100192227273,0.0976729692227273,0.180002134222727,0.284528341772727,0.309347732272727,3087,"DG_s15",23.575,24.28,26.332,26.334,28,4,10,10,2.052,"Left",28,4,24,24,0,0,0,-24,0,-24,24,24,"Advent",18,-6,28,10,4,10
"184",7,"LAM2-LAM3",0.248066732565657,0.484748432565657,0.570306356565657,0.557567746565657,0.406924665065657,0.133003765065657,-0.118852634934343,-0.299110974934343,-0.344848343434343,-0.263984843434343,-0.116320998934343,0.143107901065657,0.536062051065657,0.962858101065657,1.18911505656566,1.13903225656566,0.807576018065657,0.290119618065657,0.00741588756565659,0.0145330375656566,3087,"DG_s15",23.575,24.28,26.332,26.334,28,4,10,10,2.052,"Left",28,4,24,24,0,0,0,-24,0,-24,24,24,"Advent",18,-6,28,10,4,10
"185",7,"LAM1-LAM2",1.49034176524242,1.47115389474242,1.24815093974242,1.01497331474242,0.867897484742424,0.809732019242424,0.653407724242424,0.516340549242424,0.590453510242424,0.798390255242424,1.16400285524242,1.47432010524242,1.56395467424242,1.54771312424242,1.51411662424242,1.49134707424242,1.48941942424242,1.59897407424242,1.74183667424242,1.75201827424242,3087,"DG_s15",23.575,24.28,26.332,26.334,28,4,10,10,2.052,"Left",28,4,24,24,0,0,0,-24,0,-24,24,24,"Advent",18,-6,28,10,4,10
"186",7,"LAM7-LAM8",0.19660942410101,0.64666887410101,1.17986377410101,1.56737156010101,1.63000411010101,1.32516402660101,0.78795927660101,0.29242121160101,0.0087302216010101,-0.0160479448989899,0.0907980901010101,0.11576881960101,0.0121024596010101,-0.16798774039899,-0.33802362539899,-0.43543138989899,-0.46120813989899,-0.45407228989899,-0.45543223989899,-0.49353138989899,3087,"DG_s15",23.575,24.28,26.332,26.334,28,4,10,10,2.052,"Left",28,4,24,24,0,0,0,-24,0,-24,24,24,"Advent",18,-6,28,10,4,10
"187",7,"LAM8-LAM9",-0.064441615969697,0.467919484030303,0.885431939030303,0.911812278030303,0.547061964530303,-0.012634985469697,-0.406876735469697,-0.575484005469697,-0.546340136969697,-0.429508186969697,-0.458311136969697,-0.556933166969697,-0.632499521969697,-0.661608421969697,-0.672824171969697,-0.740822521969697,-0.793946371969697,-0.803931671969697,-0.747682921969697,-0.588490096969697,3087,"DG_s15",23.575,24.28,26.332,26.334,28,4,10,10,2.052,"Left",28,4,24,24,0,0,0,-24,0,-24,24,24,"Advent",18,-6,28,10,4,10
"188",7,"LAM9-LAM10",1.0988770119697,1.3054980469697,1.2577082469697,0.977399496119697,0.575422786119697,0.197449936119697,-0.063073363880303,-0.164017263030303,-0.147125353030303,-0.096326153030303,-0.089635353030303,-0.150291803030303,-0.166380343030303,-0.113431725980303,-0.010884515980303,0.099339544269697,0.093321684269697,-0.00588143278030304,-0.114517492780303,-0.216751353030303,3087,"DG_s15",23.575,24.28,26.332,26.334,28,4,10,10,2.052,"Left",28,4,24,24,0,0,0,-24,0,-24,24,24,"Advent",18,-6,28,10,4,10
"189",7,"LIP1-LIP2",0.774711512090909,1.01873671909091,1.16581075909091,1.18191815909091,1.08175570909091,0.880126754590909,0.624139304590909,0.414612704590909,0.251747704590909,0.144659959090909,0.0801242590909091,-0.0178483409090909,-0.100674290909091,-0.132315740909091,-0.120116890909091,-0.0792464909090909,0.0106144090909091,0.114107609090909,0.135611209090909,0.150489709090909,3087,"DG_s15",23.575,24.28,26.332,26.334,28,4,10,10,2.052,"Left",28,4,24,24,0,0,0,-24,0,-24,24,24,"Advent",18,-6,28,10,4,10
"190",7,"LIP5-LIP6",0.823649796328283,1.07511969982828,1.49433634982828,1.88669745782828,2.07284463282828,1.93079633782828,1.54264103782828,1.21700596792828,1.18122181792828,1.40694806292828,1.55853004092828,1.31747931082828,0.922010110828283,0.493647010828283,0.299408182828283,0.450072482828283,0.651753938828283,0.907915638828283,1.13243003882828,1.25090265382828,3087,"DG_s15",23.575,24.28,26.332,26.334,28,4,10,10,2.052,"Left",28,4,24,24,0,0,0,-24,0,-24,24,24,"Advent",18,-6,28,10,4,10
"191",7,"LHH5-LHH6",1.77954226212121,1.93487566212121,1.96285921212121,1.83174026212121,1.49313179262121,0.941490992621212,0.445866442621212,0.154507392621212,0.105566872121212,0.315574253021212,0.526454023021212,0.663459173021212,0.816058563021212,1.01816868212121,1.14883611212121,1.05447329462121,0.699069144621212,0.354908744621212,0.136376894621212,0.126027062121212,3087,"DG_s15",23.575,24.28,26.332,26.334,28,4,10,10,2.052,"Left",28,4,24,24,0,0,0,-24,0,-24,24,24,"Advent",18,-6,28,10,4,10
"192",7,"LAM5-LAM6",0.728041779323232,0.754437286823232,0.504316096823232,0.0871654468232324,-0.206038853176768,-0.369037062676768,-0.333815872676768,-0.163004172676768,-0.129109722676768,-0.165867322676768,-0.217317172676768,-0.181166612826768,0.00548108717323234,0.236322437173232,0.323899743673232,0.144466533823232,0.0485753043232323,0.0893768043232323,0.215229517823232,0.366617612323232,3087,"DG_s15",23.575,24.28,26.332,26.334,28,4,10,10,2.052,"Left",28,4,24,24,0,0,0,-24,0,-24,24,24,"Advent",18,-6,28,10,4,10
"193",7,"LHB6-LHB7",1.72245353282828,1.60428483282828,1.23973850482828,0.883150633828283,0.621887378828283,0.467633785428283,0.403946123428283,0.336988544428283,0.170149699428283,-0.0173782571717172,-0.203060267171717,-0.337345067171717,-0.306275117171717,-0.158949662171717,0.0104411378282828,0.0455035878282828,-0.0299920621717172,-0.0447110576717172,0.0992922923282828,0.365739792328283,3087,"DG_s15",23.575,24.28,26.332,26.334,28,4,10,10,2.052,"Left",28,4,24,24,0,0,0,-24,0,-24,24,24,"Advent",18,-6,28,10,4,10
"194",7,"LHH4-LHH5",0.624138048953535,0.925452498953535,1.19210299035354,1.22877411535354,0.954938565853535,0.458787665853535,-0.00711338414646462,-0.330333414146465,-0.445650814646465,-0.336205914646465,-0.170211014646465,-0.00538126464646466,0.203670420353535,0.463390970353535,0.678976720353535,0.811406605353535,0.763746918853535,0.456118718853535,0.183015368853535,0.0891523598535354,3087,"DG_s15",23.575,24.28,26.332,26.334,28,4,10,10,2.052,"Left",28,4,24,24,0,0,0,-24,0,-24,24,24,"Advent",18,-6,28,10,4,10
"195",7,"LAM6-LAM7",0.968557618686869,1.36222366868687,1.64808991868687,1.63204066868687,1.27531197018687,0.658207870186869,0.112611920186869,-0.161432844813131,-0.140996746313131,0.133595003686869,0.317732489686869,0.236187124686869,0.0689441446868687,-0.0459507152131313,-0.128085537713131,-0.212572557713131,-0.351074777713131,-0.468106817813131,-0.488387831313131,-0.386086981313131,3087,"DG_s15",23.575,24.28,26.332,26.334,28,4,10,10,2.052,"Left",28,4,24,24,0,0,0,-24,0,-24,24,24,"Advent",18,-6,28,10,4,10
"196",7,"LIP3-LIP4",-0.238064832879293,-0.0286012378792929,0.132483571470707,0.274982331470707,0.258929356420707,0.031275961420707,-0.238787947929293,-0.423600007929293,-0.511731712929293,-0.431721862929293,-0.275173012929293,-0.188244012929293,-0.146634212929293,-0.151304212929293,-0.141603162929293,-0.0362110709292929,0.141120579070707,0.261411422570707,0.153770872570707,0.0365182055707071,3087,"DG_s15",23.575,24.28,26.332,26.334,28,4,10,10,2.052,"Left",28,4,24,24,0,0,0,-24,0,-24,24,24,"Advent",18,-6,28,10,4,10
"197",7,"LIP8-LIP9",-0.278413965030303,-0.334670455530303,-0.194139438780303,-0.084853143380303,0.030570616619697,0.051668686619697,-0.083528280130303,-0.245704725530303,-0.307124335530303,-0.367614935530303,-0.378872185530303,-0.155388980030303,0.162762619969697,0.448560819969697,0.526859705469697,0.240103149969697,-0.127057700030303,-0.431781350030303,-0.611968035530303,-0.559076735530303,3087,"DG_s15",23.575,24.28,26.332,26.334,28,4,10,10,2.052,"Left",28,4,24,24,0,0,0,-24,0,-24,24,24,"Advent",18,-6,28,10,4,10
