"","trial","electrodes","pre_13","pre_12","pre_11","pre_10","pre_9","pre_8","pre_7","pre_6","pre_5","pre_4","pre_3","pre_2","pre_1","post_1","post_2","post_3","post_4","post_5","post_6","post_7","X","SID","newround_time","choice_time","buttonpress_time","reveal_time","self_payoff","other_payoff","self_foregone","other_foregone","RT","side_chosen","self_var_payoff","other_var_payoff","ineq_var_abs","ineq_choice_abs","ineq_foregone_abs","ineq_foregone","ineq_disadvent","ineq_advent","ineq_disadvent_choice","ineq_advent_choice","ineq_var","ineq_choice","chose_equality","self_diff","other_diff","L_self","R_self","L_other","R_other"
"1",1,"LAM1-LAM2",0.16639080680303,0.20787517230303,0.24520555730303,0.26823080730303,0.23997819272303,0.13353239272303,-0.0891410072769697,-0.26482950727697,-0.29082011469697,-0.16573567219697,0.13010617780303,0.29347408780303,0.32939810910303,0.32202910960303,0.16378946210303,0.24444945210303,0.39418957580303,0.44468028730303,0.56943173480303,0.42261227510303,3081,"DG_s15",-0.702,0.00200000000007,2.082,2.084,10,10,6,6,2.08,"Left",6,6,0,0,0,0,0,0,0,0,0,0,"10-10",4,4,10,6,10,6
"2",1,"LHH5-LHH6",0.248958327813131,0.0488888428131313,-0.0777064171868687,-0.0214625201868687,-0.0781624851868687,-0.0529109151868687,0.0420162323131313,0.0343622068131313,0.110997686813131,0.267389901813131,0.352320364313131,0.427690869813131,0.558016492813131,0.382127842813131,0.172064167813131,0.151695721313131,0.00903172931313131,0.149865382813131,0.166693332813131,0.0615975828131313,3081,"DG_s15",-0.702,0.00200000000007,2.082,2.084,10,10,6,6,2.08,"Left",6,6,0,0,0,0,0,0,0,0,0,0,"10-10",4,4,10,6,10,6
"3",1,"LAM6-LAM7",0.328613859062121,0.416385335562121,0.449861496062121,0.430139527612121,0.404885240612121,0.401223790612121,0.507511927612121,0.640907509212121,0.702055266212121,0.808242766212121,0.809023851212121,0.816517001212121,0.778937749712121,0.558907199712121,0.311946464712121,0.158072733962121,0.181191644462121,0.131281744462121,0.257002727962121,0.214107371612121,3081,"DG_s15",-0.702,0.00200000000007,2.082,2.084,10,10,6,6,2.08,"Left",6,6,0,0,0,0,0,0,0,0,0,0,"10-10",4,4,10,6,10,6
"4",1,"LAM7-LAM8",-0.115867785580808,-0.0299335580808081,-0.0816476380808081,-0.178433620080808,-0.274258723980808,-0.365283030980808,-0.301512700980808,-0.222822473980808,-0.229529580080808,-0.191139649580808,-0.268409351080808,-0.207465151580808,-0.187484472580808,-0.224374818580808,-0.270136377080808,-0.406959821580808,-0.348652795080808,-0.302239450180808,-0.310636440180808,-0.231039417230808,3081,"DG_s15",-0.702,0.00200000000007,2.082,2.084,10,10,6,6,2.08,"Left",6,6,0,0,0,0,0,0,0,0,0,0,"10-10",4,4,10,6,10,6
"5",1,"LAM2-LAM3",0.397495291794444,0.309109615794444,0.317135295794444,0.296953614294444,0.201496401444444,0.229033760444444,0.108291493444444,-0.0724430149555556,-0.159075319455556,-0.241498622455556,-0.286897982955556,-0.128960943055556,0.0250699169444445,0.189800116944444,0.275434669444444,0.227019306944444,0.310881191894444,0.280260202394444,0.209103472394444,0.0859024692444444,3081,"DG_s15",-0.702,0.00200000000007,2.082,2.084,10,10,6,6,2.08,"Left",6,6,0,0,0,0,0,0,0,0,0,0,"10-10",4,4,10,6,10,6
"6",1,"LHH6-LHH7",0.363594546624747,0.273395668924747,0.305671738274747,0.256720127774747,0.132325647774747,0.204889553974747,0.166309386474747,0.290771377724747,0.328809510224747,0.339578389224747,0.371800876224747,0.365615357474747,0.537563904974747,0.531920935474748,0.603129827974747,0.547151848724747,0.290019048724747,0.234334576224747,0.180445578724747,0.215501860474747,3081,"DG_s15",-0.702,0.00200000000007,2.082,2.084,10,10,6,6,2.08,"Left",6,6,0,0,0,0,0,0,0,0,0,0,"10-10",4,4,10,6,10,6
"7",1,"LAM3-LAM4",-0.473807861656566,-0.350590495656566,-0.169417132156566,-0.0367159571565657,-0.130818165656566,-0.296727025656566,-0.422035103156566,-0.525779838156566,-0.415687333156566,-0.299589805151566,-0.345649542651566,-0.291649532651566,-0.317868887651566,-0.308000566656566,-0.0520158166565657,0.129087733343434,0.271948033343434,0.235825466843434,-0.0544085831565657,-0.293226633156566,3081,"DG_s15",-0.702,0.00200000000007,2.082,2.084,10,10,6,6,2.08,"Left",6,6,0,0,0,0,0,0,0,0,0,0,"10-10",4,4,10,6,10,6
"8",1,"LHH7-LHH8",0.0891283045151516,0.155363916015152,-0.0420450904848485,-0.323193497984848,-0.416550604984848,-0.346784954984849,-0.272442932984848,-0.192802925984848,-0.133969390484848,-0.180461516484848,-0.0315764819848485,0.0335226140151515,0.0339957064151515,-0.0467193275848485,-0.166403064584848,-0.149724952584848,-0.0443167054848485,0.0608135045151515,0.0339810530151515,0.00930786551515153,3081,"DG_s15",-0.702,0.00200000000007,2.082,2.084,10,10,6,6,2.08,"Left",6,6,0,0,0,0,0,0,0,0,0,0,"10-10",4,4,10,6,10,6
"9",1,"LIP5-LIP6",0.428139023145455,0.274851245445455,0.253576644545455,0.237943948645455,0.268151995845455,0.279352859045455,0.323105493045455,0.460398547545455,0.416099271045455,0.556343135545455,0.554571545545455,0.423063958045455,0.411684613545455,0.308127939545455,0.301203474545455,0.235053300545455,0.369594743545455,0.464709317545455,0.430087160745455,0.412395602245455,3081,"DG_s15",-0.702,0.00200000000007,2.082,2.084,10,10,6,6,2.08,"Left",6,6,0,0,0,0,0,0,0,0,0,0,"10-10",4,4,10,6,10,6
"10",1,"LAM4-LAM5",-0.0731625586262626,0.110383360873737,0.200026100873737,0.239869744873737,0.200400288023737,-0.0267486669762626,-0.0271791189762626,-0.0781083584762626,0.0678070448737374,0.171685424873737,0.146694079373737,0.360594700873737,0.460899513373737,0.311542838373737,0.316760565873737,0.269079839873737,0.201298577373737,0.417320331873737,0.444214493223737,0.348770945723737,3081,"DG_s15",-0.702,0.00200000000007,2.082,2.084,10,10,6,6,2.08,"Left",6,6,0,0,0,0,0,0,0,0,0,0,"10-10",4,4,10,6,10,6
"11",1,"LIP1-LIP2",0.112920129974747,0.196767873474747,0.421275683474747,0.275167651474747,0.119846451474747,0.0424755619747475,-0.105212980025253,-0.0690308340252525,0.0797781799747475,0.132737974474747,0.117907763974747,0.191897041474747,0.307536867474748,0.252167765674747,0.221167287674747,0.198971057674747,-0.00294605032525252,-0.0237849735252525,-0.00617216252525252,-0.0746321900252525,3081,"DG_s15",-0.702,0.00200000000007,2.082,2.084,10,10,6,6,2.08,"Left",6,6,0,0,0,0,0,0,0,0,0,0,"10-10",4,4,10,6,10,6
"12",1,"LHB4-LHB5",-0.264094134247475,-0.310515078747475,-0.254640803247475,-0.111484346747475,-0.0182723920474747,0.0195492950025252,-0.0670428854974748,0.0340102030025253,0.0419521258025253,0.160412273252525,0.289088090002525,0.0321471400025253,-0.0737100684974747,-0.171506909647475,-0.166240331397475,-0.00306573139747475,-0.0373227303974747,-0.0718012863474747,0.0223345636525252,0.00728267365252525,3081,"DG_s15",-0.702,0.00200000000007,2.082,2.084,10,10,6,6,2.08,"Left",6,6,0,0,0,0,0,0,0,0,0,0,"10-10",4,4,10,6,10,6
"13",1,"LAM5-LAM6",0.323370899191919,0.409430249691919,0.265826324191919,0.306897983691919,0.309652123191919,0.264282193141919,0.395620368641919,0.508907363141919,0.528530744141919,0.530566792691919,0.462097344191919,0.348970879691919,0.338660514691919,0.372928306191919,0.476379454691919,0.553681169191919,0.610107784191919,0.517164756191919,0.341551656691919,0.250016480191919,3081,"DG_s15",-0.702,0.00200000000007,2.082,2.084,10,10,6,6,2.08,"Left",6,6,0,0,0,0,0,0,0,0,0,0,"10-10",4,4,10,6,10,6
"14",1,"LIP2-LIP3",-0.0536529508868687,-0.289510870886869,-0.214525007386869,-0.0527621073868687,-0.0446899543083687,-0.114786414308369,-0.181546142808369,-0.283080778808369,-0.320974709686869,-0.310067357186869,-0.200308357186869,-0.222079086686869,-0.0734422866868687,-0.107446689186869,-0.0936036136868687,0.0303377068131313,-0.0286982581868687,-0.0187417081868687,-0.0999052636868687,-0.163957739186869,3081,"DG_s15",-0.702,0.00200000000007,2.082,2.084,10,10,6,6,2.08,"Left",6,6,0,0,0,0,0,0,0,0,0,0,"10-10",4,4,10,6,10,6
"15",1,"LHH4-LHH5",0.553216015176768,0.467813848676768,0.455222709676768,0.381964433676768,0.285132011176768,0.161038062676768,0.169031400176768,0.294863976176768,0.345059896176768,0.367811218676768,0.347778832676768,0.282581082676768,0.351246035176768,0.405080822676768,0.438180412676768,0.419039554726768,0.458203204726768,0.495583744226768,0.360143594226768,0.339846202176768,3081,"DG_s15",-0.702,0.00200000000007,2.082,2.084,10,10,6,6,2.08,"Left",6,6,0,0,0,0,0,0,0,0,0,0,"10-10",4,4,10,6,10,6
"16",1,"LHB5-LHB6",0.127760560142424,0.106396645642424,0.186124780642424,-0.00325490085757576,-0.0174253382575758,0.0533339662424242,0.00417099074242424,0.0574451267424242,0.167263646742424,0.128251053242424,0.0890103637424242,0.149322131742424,0.0778700332424243,0.119860448442424,0.127665105942424,0.142936428442424,0.197327877442424,0.0846644172424243,0.0342651392424242,0.104829844242424,3081,"DG_s15",-0.702,0.00200000000007,2.082,2.084,10,10,6,6,2.08,"Left",6,6,0,0,0,0,0,0,0,0,0,0,"10-10",4,4,10,6,10,6
"17",1,"LHB6-LHB7",0.117531696802525,0.161925913652525,0.298651162152525,0.239888492152525,0.242239086102525,0.204346889302525,0.129135837302525,0.0575425523025253,0.120450056802525,0.121273090002525,0.115251704602525,0.144794597602525,0.142868057202525,0.158598086202525,0.146227978602525,0.281197935602525,0.415581251502525,0.343854152502525,0.427043622502525,0.445468572502525,3081,"DG_s15",-0.702,0.00200000000007,2.082,2.084,10,10,6,6,2.08,"Left",6,6,0,0,0,0,0,0,0,0,0,0,"10-10",4,4,10,6,10,6
"18",1,"LIP4-LIP5",-0.387857742136364,-0.487702836636364,-0.457825101136364,-0.393418051136364,-0.298651233636364,-0.333826265136364,-0.238647099136364,-0.186804141136364,-0.163515073636364,-0.178120463876364,-0.254218152876364,-0.230932218876364,-0.264368979676364,-0.147437363436364,-0.214480080436364,-0.124401582436364,-0.164945992636364,-0.306717527636364,-0.210021175136364,-0.288191220636364,3081,"DG_s15",-0.702,0.00200000000007,2.082,2.084,10,10,6,6,2.08,"Left",6,6,0,0,0,0,0,0,0,0,0,0,"10-10",4,4,10,6,10,6
"19",1,"LAM9-LAM10",0.0714411495757576,-0.0144319394242424,-0.0539293649242424,-0.106984128424242,-0.150266216424242,-0.237141210424242,-0.290434732924242,-0.351470524424242,-0.463065486424242,-0.485515098424242,-0.489006707424242,-0.189530282424242,-0.0581750114242424,0.0128041800757576,0.126428390075758,-0.186914449924242,-0.239673644424242,-0.265102745924242,-0.378504958724242,-0.321119143224242,3081,"DG_s15",-0.702,0.00200000000007,2.082,2.084,10,10,6,6,2.08,"Left",6,6,0,0,0,0,0,0,0,0,0,0,"10-10",4,4,10,6,10,6
"20",1,"LHB7-LHB8",-0.0898384770757576,0.0580093129242424,0.214746142924242,0.163284286924242,0.0869113719242424,0.114918130274242,0.100366455774242,0.244784257774242,0.243972525274242,0.183532037424242,0.0923873714242424,0.0339161199242424,0.0175746124242424,0.0855923914242424,0.210295751924242,0.214712196424242,0.231114368424242,0.242795988924242,0.0723481239242424,0.000918409424242424,3081,"DG_s15",-0.702,0.00200000000007,2.082,2.084,10,10,6,6,2.08,"Left",6,6,0,0,0,0,0,0,0,0,0,0,"10-10",4,4,10,6,10,6
"21",1,"LAM8-LAM9",0.536588625025253,0.644475330025253,0.599751317525252,0.524845539525252,0.599390743025253,0.456492975025253,0.455171552075253,0.512467761475253,0.426875302975253,0.485130720975253,0.635133788925253,0.700447304025253,0.846202402525253,0.835501372875253,0.688983042875253,0.536395595875253,0.435576054775253,0.410076159925253,0.410467387925253,0.368507849925253,3081,"DG_s15",-0.702,0.00200000000007,2.082,2.084,10,10,6,6,2.08,"Left",6,6,0,0,0,0,0,0,0,0,0,0,"10-10",4,4,10,6,10,6
"22",1,"LIP7-LIP8",0.011377193010101,-0.019102455489899,-0.035948907489899,0.074322392510101,0.178016791510101,0.309699190010101,0.288500738510101,0.410819463510101,0.485568962510101,0.419440336510101,0.328447090010101,0.171175040010101,0.053179919110101,-0.051606134389899,0.062148732110101,0.116567093110101,0.153576493010101,0.364162372510101,0.513803256010101,0.543561423010101,3081,"DG_s15",-0.702,0.00200000000007,2.082,2.084,10,10,6,6,2.08,"Left",6,6,0,0,0,0,0,0,0,0,0,0,"10-10",4,4,10,6,10,6
"23",1,"LTT8-LTT9",-0.459750728292929,-0.224357138292929,-0.0976350337929293,-0.0451856612929293,-0.119543059792929,-0.304572688692929,-0.331792603692929,-0.255702818692929,-0.167562047692929,-0.247586249292929,-0.260923361792929,-0.348470182792929,-0.427377601792929,-0.461372471292929,-0.413290793292929,-0.381450332292929,-0.352132181292929,-0.232013689792929,-0.165546154792929,-0.127686544792929,3081,"DG_s15",-0.702,0.00200000000007,2.082,2.084,10,10,6,6,2.08,"Left",6,6,0,0,0,0,0,0,0,0,0,0,"10-10",4,4,10,6,10,6
"24",1,"LIP6-LIP7",-0.389796994614141,-0.260794337114141,-0.0486705536141414,-0.0200666036141414,-0.0858713139141414,-0.282283458914141,-0.365092962814141,-0.161372862814141,0.100218687185859,0.260273277185859,0.283984680585859,0.107687330585859,-0.0766289694141414,-0.194478835414141,-0.170926818414141,-0.0947761484141414,-0.0657124754141414,-0.0409523529141414,-0.0607687679141414,-0.0316919379141414,3081,"DG_s15",-0.702,0.00200000000007,2.082,2.084,10,10,6,6,2.08,"Left",6,6,0,0,0,0,0,0,0,0,0,0,"10-10",4,4,10,6,10,6
"25",1,"LIP8-LIP9",-0.249775429253081,-0.233499429453081,-0.170385700453081,-0.157975032308081,-0.0048218423080808,-0.0713413988080808,-0.0203132583080808,-0.000199923808080815,-0.146247864308081,-0.190990324308081,-0.231182902808081,-0.125900499308081,-0.0188272588080808,0.246628541191919,0.193062337191919,0.0473668736919192,-0.0431917713080808,-0.186702075808081,0.0555368561919192,0.169112970691919,3081,"DG_s15",-0.702,0.00200000000007,2.082,2.084,10,10,6,6,2.08,"Left",6,6,0,0,0,0,0,0,0,0,0,0,"10-10",4,4,10,6,10,6
"26",1,"LTT9-LTT10",0.143512864861111,0.178524901111111,0.111881348611111,-0.00468140138888889,-0.0881960863888889,-0.0783784573888889,-0.000192557388888889,0.132525712611111,0.116557454611111,-0.00509597838888889,0.0120996386111111,-0.0497080263888889,0.0169551487111111,0.0398462627111111,0.0709895757111111,0.317136820711111,0.435781838611111,0.478640570111111,0.393067587611111,0.143576632111111,3081,"DG_s15",-0.702,0.00200000000007,2.082,2.084,10,10,6,6,2.08,"Left",6,6,0,0,0,0,0,0,0,0,0,0,"10-10",4,4,10,6,10,6
"27",1,"LHB9-LHB10",-0.343166865772727,-0.444954072272727,-0.271321574172727,-0.256306973672727,-0.246461935172727,-0.0722370171727273,-0.139621164422727,-0.167859689922727,0.0480296365772727,-0.0376015429227273,0.0400809000772727,0.152850065077273,0.00401326107727273,0.00176811107727273,-0.0462571132727273,0.0659699217272727,0.201408325727273,0.336910372227273,0.376894202727273,0.309813202727273,3081,"DG_s15",-0.702,0.00200000000007,2.082,2.084,10,10,6,6,2.08,"Left",6,6,0,0,0,0,0,0,0,0,0,0,"10-10",4,4,10,6,10,6
"28",1,"LHB8-LHB9",-0.0379941616818182,-0.0139868675818182,-0.0286591570818182,-0.178874300581818,-0.0624528060818182,-0.116284132681818,-0.208523393181818,-0.304482099681818,-0.373432890681818,-0.313624879131818,-0.299861548131818,-0.118065372131818,-0.131252235631818,-0.0706156656818182,0.0235756033181818,0.0765496273181818,0.228499981818182,0.201615181818182,0.125026306818182,0.146883075318182,3081,"DG_s15",-0.702,0.00200000000007,2.082,2.084,10,10,6,6,2.08,"Left",6,6,0,0,0,0,0,0,0,0,0,0,"10-10",4,4,10,6,10,6
"29",1,"LIP3-LIP4",-0.0195653565757576,-0.0525268645757576,-0.0479294145757576,0.123347130424242,0.194053525924242,0.432958762424242,0.666717462424242,0.593040144974242,0.464927294974242,0.235235256974242,0.228600774824242,0.328453823579242,0.369682112079242,0.317921837579242,0.214806898729242,0.182324145924242,0.147193468424242,0.203991532924242,0.169176037924242,0.170512606924242,3081,"DG_s15",-0.702,0.00200000000007,2.082,2.084,10,10,6,6,2.08,"Left",6,6,0,0,0,0,0,0,0,0,0,0,"10-10",4,4,10,6,10,6
"30",2,"LIP1-LIP2",-0.446145002449495,-0.296826796949495,-0.372629291449495,-0.363761186949495,-0.268592338949495,-0.239815534449495,-0.183391248449495,-0.219739056949495,-0.158790075949495,-0.155173275949495,-0.0314788629494949,0.0355009500505051,-0.0129599319494949,-0.198810901449495,-0.536597601449495,-0.638139076449495,-0.705124244449495,-0.705433723449495,-0.389582723449495,-0.332342154449495,3082,"DG_s15",3.085,3.791,6.023,6.025,18,18,10,10,2.232,"Right",18,18,0,0,0,0,0,0,0,0,0,0,"Equal",8,8,10,18,10,18
"31",2,"LHH7-LHH8",0.409139711358586,0.292534068858586,0.161223443858586,-0.0824948561414141,-0.0914756861414141,-0.0750175788114141,-0.134676888811414,-0.116012325311414,-0.0967185998114141,-0.211253614641414,-0.167953404641414,-0.0657477941414141,-0.0501436611414141,0.229078653858586,0.369907373858586,0.379999779858586,0.344978526358586,0.137391166358586,0.102798882358586,0.0843501318585859,3082,"DG_s15",3.085,3.791,6.023,6.025,18,18,10,10,2.232,"Right",18,18,0,0,0,0,0,0,0,0,0,0,"Equal",8,8,10,18,10,18
"32",2,"LIP4-LIP5",-0.0657915786666667,-0.103554454466667,-0.0469081952116667,-0.00189884241166666,0.0255533244883333,0.0947583118883333,0.164545507633333,0.119154695833333,0.271662313933333,0.251447754333333,0.0601784043333333,0.0149667133333334,-0.103839311466667,-0.0940588664666667,0.0141268715333333,0.0980217860333333,0.181549696333333,0.225918359523333,0.217380166523333,0.237244033023333,3082,"DG_s15",3.085,3.791,6.023,6.025,18,18,10,10,2.232,"Right",18,18,0,0,0,0,0,0,0,0,0,0,"Equal",8,8,10,18,10,18
"33",2,"LHH5-LHH6",-0.061547663510101,-0.227782296010101,-0.137321724510101,-0.061950053010101,-0.016817101010101,0.072547031489899,0.116342781489899,0.171317499489899,0.105471882239899,0.013842647739899,-0.168632389760101,-0.225839796260101,-0.053992813510101,-0.010930978660101,0.057756458839899,-0.031374973660101,-0.244913668660101,-0.296226514010101,-0.397823584010101,-0.375237996010101,3082,"DG_s15",3.085,3.791,6.023,6.025,18,18,10,10,2.232,"Right",18,18,0,0,0,0,0,0,0,0,0,0,"Equal",8,8,10,18,10,18
"34",2,"LAM1-LAM2",-0.0399778563939394,-0.0195793568939394,0.0574986786060606,-0.0766955548939394,-0.0927915408939394,-0.0760062758939394,-0.187501063393939,-0.120868513393939,-0.0981428003939394,-0.0699900153939394,-0.0661096928939394,-0.106047154393939,-0.226037219393939,-0.208846687393939,-0.0294320723939394,0.0251148326060606,0.0935940336060606,0.112340740606061,0.156354790606061,0.245922960606061,3082,"DG_s15",3.085,3.791,6.023,6.025,18,18,10,10,2.232,"Right",18,18,0,0,0,0,0,0,0,0,0,0,"Equal",8,8,10,18,10,18
"35",2,"LIP7-LIP8",0.0219107413287879,-0.0916025361712121,-0.246000301171212,-0.189987646621212,-0.322796145121212,-0.221780492621212,-0.125142747121212,-0.153879784121212,-0.124834184621212,-0.127755756621212,-0.181591715121212,-0.272647000121212,-0.334075762121212,-0.325006970121212,-0.254177926121212,-0.139017365621212,-0.0271358606212121,-0.0164895606212121,-0.0218196601212121,0.0402905843787879,3082,"DG_s15",3.085,3.791,6.023,6.025,18,18,10,10,2.232,"Right",18,18,0,0,0,0,0,0,0,0,0,0,"Equal",8,8,10,18,10,18
"36",2,"LIP2-LIP3",0.269804399909091,0.374996176409091,0.407560235909091,0.247733983909091,0.192711318909091,0.152078668909091,0.0650864944090909,0.102464261409091,0.0355994354090909,-0.0392317195909091,0.0323592549090909,0.106509619909091,0.258858978909091,0.237202198909091,0.182415080909091,0.0474974809090909,-0.0489655953909091,0.129507039609091,0.165495238359091,0.296023228359091,3082,"DG_s15",3.085,3.791,6.023,6.025,18,18,10,10,2.232,"Right",18,18,0,0,0,0,0,0,0,0,0,0,"Equal",8,8,10,18,10,18
"37",2,"LAM7-LAM8",-0.21299818070202,-0.17239648120202,-0.0951854522020202,-0.15573613300202,-0.25653413100202,-0.31216323900202,-0.31540703300202,-0.28717228770202,-0.11208382370202,-0.0247576237020202,0.16352599129798,0.30046915879798,0.20510983129798,0.21969792579798,0.0694673287979798,-0.0408630834020202,-0.0292237354020202,-0.0882283049020202,-0.0620513199020202,-0.0414702342020202,3082,"DG_s15",3.085,3.791,6.023,6.025,18,18,10,10,2.232,"Right",18,18,0,0,0,0,0,0,0,0,0,0,"Equal",8,8,10,18,10,18
"38",2,"LAM8-LAM9",0.0649992199393939,0.0319180349393939,0.0353730370893939,0.120622300089394,0.140821700089394,0.090401095089394,0.0986723569393939,0.173715207439394,0.251276537939394,0.283179842939394,0.262733213939394,0.0546150139393939,-0.0726580165606061,-0.217491081560606,-0.213330089510606,-0.117965526010606,0.0924462239893939,0.276900803989394,0.283680084439394,0.321989095939394,3082,"DG_s15",3.085,3.791,6.023,6.025,18,18,10,10,2.232,"Right",18,18,0,0,0,0,0,0,0,0,0,0,"Equal",8,8,10,18,10,18
"39",2,"LTT9-LTT10",-0.548329875186869,-0.477546810186869,-0.407723951686869,-0.365956427211869,-0.315192282711869,-0.207652417711869,-0.236743582711869,-0.241143394186869,-0.176127932186869,-0.266107144086869,-0.225777021086869,-0.191100758086869,-0.118565769586869,-0.0576518676868687,-0.0183280671868687,-0.0848959681868687,-0.109722918186869,-0.0214091381868687,-0.159867989186869,0.0394082908131313,3082,"DG_s15",3.085,3.791,6.023,6.025,18,18,10,10,2.232,"Right",18,18,0,0,0,0,0,0,0,0,0,0,"Equal",8,8,10,18,10,18
"40",2,"LTT8-LTT9",0.299325448308081,0.329628128908081,0.174967433908081,-0.0360254060919192,0.0140460844080808,0.142160125308081,0.270918895308081,0.343741867308081,0.186933482808081,0.0427021923080808,0.0671447123080808,0.0242733103080808,0.382615360308081,0.502311100808081,0.439654216808081,0.469471237458081,0.263850701958081,0.276259201958081,0.330512445958081,0.417666145308081,3082,"DG_s15",3.085,3.791,6.023,6.025,18,18,10,10,2.232,"Right",18,18,0,0,0,0,0,0,0,0,0,0,"Equal",8,8,10,18,10,18
"41",2,"LHB8-LHB9",-0.0608180963520202,0.0507035381479798,-0.14372411525202,-0.21955242525202,-0.22883303620202,-0.12152813770202,0.27949886229798,0.47908316229798,0.55742601779798,0.43914358129798,0.35083928129798,0.25290232279798,0.11742170029798,0.13671447579798,0.000458766847979797,-0.0400452511520202,-0.0522598786520202,-0.0018575686520202,0.13688454029798,0.44700936679798,3082,"DG_s15",3.085,3.791,6.023,6.025,18,18,10,10,2.232,"Right",18,18,0,0,0,0,0,0,0,0,0,0,"Equal",8,8,10,18,10,18
"42",2,"LHH4-LHH5",-0.563431145010101,-0.583121171510101,-0.450499252510101,-0.286086367510101,-0.282540202510101,-0.236526757150101,-0.333922150150101,-0.278597675150101,-0.232175695150101,-0.322384199010101,-0.444660456010101,-0.621384814510101,-0.470232759510101,-0.294571909510101,-0.159250213810101,-0.142452123310101,-0.199461033310101,-0.321527413310101,-0.296649146510101,-0.354584828510101,3082,"DG_s15",3.085,3.791,6.023,6.025,18,18,10,10,2.232,"Right",18,18,0,0,0,0,0,0,0,0,0,0,"Equal",8,8,10,18,10,18
"43",2,"LAM5-LAM6",-0.0285756397868687,0.189367208213131,0.268923078813131,0.212812801813131,0.272066154313131,0.260797904313131,0.194579529813131,0.167841052813131,0.241598202813131,0.0732557328631313,0.134045732363131,0.136917039863131,0.139753044863131,0.184406037813131,0.0809510678131313,0.146393843813131,-0.0532674611868687,-0.181297884186869,-0.123735189686869,-0.133972636686869,3082,"DG_s15",3.085,3.791,6.023,6.025,18,18,10,10,2.232,"Right",18,18,0,0,0,0,0,0,0,0,0,0,"Equal",8,8,10,18,10,18
"44",2,"LHB9-LHB10",-0.16790744669697,-0.26825333169697,-0.33569321319697,-0.32908946019697,-0.32361458749697,-0.16050762749697,0.0232278925030303,0.0320961285030303,0.0476375858030303,-0.0109792016969697,0.0107752833030303,0.0594813938030303,0.0370453898030303,0.0477198433030303,0.0749020883030303,0.0899341898030303,0.0478049018030303,0.18092348280303,0.15073933280303,0.26121801940303,3082,"DG_s15",3.085,3.791,6.023,6.025,18,18,10,10,2.232,"Right",18,18,0,0,0,0,0,0,0,0,0,0,"Equal",8,8,10,18,10,18
"45",2,"LHB4-LHB5",0.332350516660606,0.393588290160606,0.433233287460606,0.344858023560606,0.230153409060606,0.352795835560606,0.384101063960606,0.443271967460606,0.409493957460606,0.241259207460606,0.182871696810606,0.162901321810606,0.298814396310606,0.371765831310606,0.307989852060606,0.313728121060606,0.249441881060606,0.442060046060606,0.574595378060606,0.683411198060606,3082,"DG_s15",3.085,3.791,6.023,6.025,18,18,10,10,2.232,"Right",18,18,0,0,0,0,0,0,0,0,0,0,"Equal",8,8,10,18,10,18
"46",2,"LAM6-LAM7",0.0548739557171717,-0.0506864108328283,-0.0611555065328283,-0.0706756115328283,-0.0897140205328283,-0.0710433464828283,-0.125702559282828,-0.129005629282828,-0.121914433782828,0.000861353717171713,0.134789072717172,0.313090172717172,0.321955188717172,0.169307598717172,0.139245809717172,0.103304614717172,0.0970652357171717,0.0308234757171717,-0.0412539817828283,-0.124991390782828,3082,"DG_s15",3.085,3.791,6.023,6.025,18,18,10,10,2.232,"Right",18,18,0,0,0,0,0,0,0,0,0,0,"Equal",8,8,10,18,10,18
"47",2,"LHH6-LHH7",0.0583838369393939,-0.0106457005606061,-0.0348152420606061,-0.129289486060606,-0.177642544060606,-0.0410583975606061,0.0718052459393939,0.345786200939394,0.363744188689394,0.277447191689394,0.162364529189394,0.0290287571893939,0.0757826674393939,0.00376208943939394,-0.0138551980606061,0.0804484579393939,0.114540900239394,0.176324485739394,0.182122628739394,-0.0790718452606061,3082,"DG_s15",3.085,3.791,6.023,6.025,18,18,10,10,2.232,"Right",18,18,0,0,0,0,0,0,0,0,0,0,"Equal",8,8,10,18,10,18
"48",2,"LAM2-LAM3",-0.238908587515152,-0.249737986515151,-0.113296065015152,-0.115061832515152,-0.194670332515152,-0.174526191515152,-0.153738391515152,-0.0920182765151515,-0.00181604951515152,-0.0592696102151515,-0.211040450965152,-0.327993376965152,-0.393433503965152,-0.415303743265152,-0.350977215515151,-0.399726594515151,-0.395321039515152,-0.287988072615152,-0.235756809615151,-0.162515513615152,3082,"DG_s15",3.085,3.791,6.023,6.025,18,18,10,10,2.232,"Right",18,18,0,0,0,0,0,0,0,0,0,0,"Equal",8,8,10,18,10,18
"49",2,"LIP3-LIP4",0.161772830269192,0.248374451769192,0.173653657769192,0.190497709919192,0.270936205419192,0.209768458819192,0.167918602819192,0.143247845319192,0.0512911353191919,-0.0394390430808081,-0.135948878080808,-0.228488591080808,-0.285027831080808,-0.241281841230808,0.0217076587691919,-0.0171513597308081,-0.0516822097308081,0.0603589854191919,-0.0980776350808081,-0.119558793580808,3082,"DG_s15",3.085,3.791,6.023,6.025,18,18,10,10,2.232,"Right",18,18,0,0,0,0,0,0,0,0,0,0,"Equal",8,8,10,18,10,18
"50",2,"LAM3-LAM4",-0.332004929471616,-0.440751040971616,-0.577628808661616,-0.617377016661616,-0.561649242161616,-0.475048353111616,-0.416231853111616,-0.399072436111616,-0.470615275111616,-0.361179364161616,-0.260356326661616,-0.242943931161616,-0.254323771661616,-0.369113656661616,-0.290476244161616,-0.193144695661616,-0.0443121511616161,-0.00894670616161614,-0.119464459661616,-0.252326035161616,3082,"DG_s15",3.085,3.791,6.023,6.025,18,18,10,10,2.232,"Right",18,18,0,0,0,0,0,0,0,0,0,0,"Equal",8,8,10,18,10,18
"51",2,"LHB5-LHB6",0.0532833669888889,0.100089561988889,0.203350460488889,0.197997866638889,0.00207052163888889,-0.116708076866111,-0.0954392568661111,-0.107423168616111,-0.121206873616111,-0.0753691401111111,-0.101359240111111,0.00732328888888889,0.0109551948888889,-0.0491369461111111,-0.0772402461111111,-0.0430322611111111,-0.0218802721111111,-0.0648622661111111,-0.146578786111111,-0.311403251111111,3082,"DG_s15",3.085,3.791,6.023,6.025,18,18,10,10,2.232,"Right",18,18,0,0,0,0,0,0,0,0,0,0,"Equal",8,8,10,18,10,18
"52",2,"LIP6-LIP7",-0.0832809300909091,0.0334888829090909,0.0654963069090909,0.231481001909091,0.137376954759091,-0.0801653952409091,-0.285706525240909,-0.322063267240909,-0.288666267590909,-0.116538422740909,0.0587139622590909,0.0621545892590909,0.119266335259091,0.112367724609091,0.132706485109091,0.138828045109091,0.0225941656090909,-0.0177647550909091,-0.115433128090909,-0.106189027090909,3082,"DG_s15",3.085,3.791,6.023,6.025,18,18,10,10,2.232,"Right",18,18,0,0,0,0,0,0,0,0,0,0,"Equal",8,8,10,18,10,18
"53",2,"LAM4-LAM5",0.38328809210101,0.20419395660101,0.0353058724510101,-0.10938343254899,-0.0548013920589899,-0.0916043910589899,-0.0179809969089899,0.21631920809101,0.22256453610101,0.20404704810101,0.0951055731010101,0.0229542731010101,0.0456818071010101,0.13665749210101,0.29635884710101,0.0292923121010101,0.0256895751010101,-0.0260824448989899,-0.20677007989899,-0.16757169489899,3082,"DG_s15",3.085,3.791,6.023,6.025,18,18,10,10,2.232,"Right",18,18,0,0,0,0,0,0,0,0,0,0,"Equal",8,8,10,18,10,18
"54",2,"LIP8-LIP9",0.211205979814646,-0.0381906201853535,-0.245024285185354,-0.247707084535354,-0.175678834535354,-0.129472834535354,-0.000930257535353536,-0.0106148700353535,-0.116623735035354,-0.114759415035354,-0.196457732035354,-0.107792942035354,-0.0594405735353535,0.0440602624646465,0.194423861464646,0.152845483364646,0.217646849864646,0.157258136364646,0.116378227364646,0.113693853964646,3082,"DG_s15",3.085,3.791,6.023,6.025,18,18,10,10,2.232,"Right",18,18,0,0,0,0,0,0,0,0,0,0,"Equal",8,8,10,18,10,18
"55",2,"LIP5-LIP6",-0.340086371065152,-0.271073657015152,-0.306211625015152,-0.122334081015152,-0.117957028515152,-0.0933814925151515,0.0838237469848485,-0.0124627905151515,-0.0539749730151515,-0.0862244955151515,-0.244666275015152,-0.203507467515152,-0.205930707515152,-0.288965476515152,-0.174794498015152,-0.181067638215152,-0.217330553715152,-0.118390494715152,-0.124533749215152,0.0308974559848484,3082,"DG_s15",3.085,3.791,6.023,6.025,18,18,10,10,2.232,"Right",18,18,0,0,0,0,0,0,0,0,0,0,"Equal",8,8,10,18,10,18
"56",2,"LHB6-LHB7",0.212145188232323,-0.00495049626767675,-0.0280589397676768,0.0672232977323232,0.0254803777323233,0.0106415972323232,0.0142322952323232,0.115180307732323,0.0721718107323232,0.109694546232323,0.182299551732323,0.253760301732323,0.369883472732323,0.282198600232323,0.254368900232323,0.0765682502323232,-0.0105032287676768,0.0758218232323233,0.0108717582323233,-0.0124644722676768,3082,"DG_s15",3.085,3.791,6.023,6.025,18,18,10,10,2.232,"Right",18,18,0,0,0,0,0,0,0,0,0,0,"Equal",8,8,10,18,10,18
"57",2,"LAM9-LAM10",0.242439890377778,0.181390784277778,0.0961743457777778,0.0238404947777778,-0.00568473372222222,0.00728274377777777,0.118003538427778,0.192996778727778,0.209250564227778,0.197978316727778,0.212850182077778,0.302494342777778,0.327138037777778,0.373547827777778,0.333950054277778,0.278878504277778,0.319661480277778,0.372956315777778,0.324417600277778,0.187291250277778,3082,"DG_s15",3.085,3.791,6.023,6.025,18,18,10,10,2.232,"Right",18,18,0,0,0,0,0,0,0,0,0,0,"Equal",8,8,10,18,10,18
"58",2,"LHB7-LHB8",0.0580175439747475,0.0843177267247475,0.0456587017247475,-0.0967949252752525,0.0158030697247475,0.00193098047474746,0.0497091539747475,0.143574446474747,0.191434386474747,0.229715407974747,0.141054352707247,0.0584064647072475,-0.0617243417927525,-0.0897118372927525,0.0402838244747475,-0.0260296880252525,-0.0705824865252525,-0.00576816552525253,-0.0335999805252525,0.0736850044747475,3082,"DG_s15",3.085,3.791,6.023,6.025,18,18,10,10,2.232,"Right",18,18,0,0,0,0,0,0,0,0,0,0,"Equal",8,8,10,18,10,18
"59",3,"LAM2-LAM3",-0.137979836525253,-0.0969562510252525,-0.0794217110252526,-0.130139232025253,-0.180563208525253,-0.340643288525253,-0.510277118525253,-0.515619467525253,-0.469860435025253,-0.426936039975253,-0.523042049975253,-0.536083794975253,-0.439812952475253,-0.333730097525253,-0.188856657675253,-0.0615705591752526,-0.164453968675253,-0.251307141675253,-0.0853568815252526,-0.0964542650252525,3083,"DG_s15",7.026,7.731,9.383,9.385,10,26,10,10,1.652,"Right",10,26,16,16,0,0,16,0,16,0,-16,-16,"Disadvent",0,16,10,10,10,26
"60",3,"LHB8-LHB9",-0.308266424736869,-0.203946653736869,-0.0850690112368687,0.0434703802631313,0.171079238298131,0.117878623348131,0.0459662718481313,-0.0283779468018687,-0.108536816536869,-0.112061065536869,-0.117766020821869,-0.143713655171869,-0.0351134574718687,0.0464606315281313,0.0129362903131313,0.290824799813131,0.209761136913131,0.0257065263131313,0.0467739438131313,-0.141154156186869,3083,"DG_s15",7.026,7.731,9.383,9.385,10,26,10,10,1.652,"Right",10,26,16,16,0,0,16,0,16,0,-16,-16,"Disadvent",0,16,10,10,10,26
"61",3,"LAM7-LAM8",-0.283538061873737,-0.423319481873737,-0.479826981873737,-0.458279632373737,-0.624337202373737,-0.577631441873737,-0.358678141873737,-0.350732005873737,-0.171959815873737,-0.101720946373737,-0.117659546373737,0.118834962626263,0.108278147626263,0.0978061586262626,0.0895594586262626,-0.151762590873737,-0.253326920873737,-0.342051791873737,-0.432243542873737,-0.265903343373737,3083,"DG_s15",7.026,7.731,9.383,9.385,10,26,10,10,1.652,"Right",10,26,16,16,0,0,16,0,16,0,-16,-16,"Disadvent",0,16,10,10,10,26
"62",3,"LAM4-LAM5",0.249256437383838,0.279465992883838,0.249573721383838,0.0802672838838384,0.000408923383838383,0.0499899733838384,0.166276013383838,0.282149035883838,0.361783889383838,0.247508205383838,0.133407284883838,0.0430518758838384,-0.0543941776161616,-0.0340754921161616,0.120520978383838,0.122485862783838,0.181366890283838,0.213864142783838,0.128010392783838,0.225008132383838,3083,"DG_s15",7.026,7.731,9.383,9.385,10,26,10,10,1.652,"Right",10,26,16,16,0,0,16,0,16,0,-16,-16,"Disadvent",0,16,10,10,10,26
"63",3,"LHB9-LHB10",-0.0791892763131313,-0.0196327613131313,-0.105599211313131,-0.156565291813131,-0.157650413313131,-0.142353103313131,-0.247900776313131,-0.206658825313131,-0.194699713763131,-0.290531064763131,-0.211667527263131,-0.212563242663131,-0.219199074213131,-0.185751995213131,-0.196908459713131,-0.131978141813131,-0.111261506713131,0.0110986987868687,-0.00312288571313132,-0.0885234957131313,3083,"DG_s15",7.026,7.731,9.383,9.385,10,26,10,10,1.652,"Right",10,26,16,16,0,0,16,0,16,0,-16,-16,"Disadvent",0,16,10,10,10,26
"64",3,"LHH4-LHH5",0.0708656903232323,0.0887447083232323,0.222553348823232,0.244092008823232,0.226447909323232,0.103152829323232,0.00302924532323232,0.0300767453232323,0.0740409738232323,0.102921173823232,0.0774272748232323,0.0211980293232323,-0.0379388681767677,-0.0237663271767677,0.00384593582323232,-0.0640211336767677,-0.0423656176267677,0.00464209637323233,0.137320323373232,0.146064194373232,3083,"DG_s15",7.026,7.731,9.383,9.385,10,26,10,10,1.652,"Right",10,26,16,16,0,0,16,0,16,0,-16,-16,"Disadvent",0,16,10,10,10,26
"65",3,"LHH7-LHH8",0.252687600338384,0.339397713838384,0.357295169838384,0.319629244838384,0.123471594838384,-0.0897958551616161,-0.0467381021616162,-0.0660829061616162,0.0613905508383838,0.219939430838384,0.302103076338384,0.401123748438384,0.399695304938384,0.322996650938384,0.399187630438384,0.498179898338384,0.490409354338384,0.483801130338384,0.139397130338384,-0.0505968946616162,3083,"DG_s15",7.026,7.731,9.383,9.385,10,26,10,10,1.652,"Right",10,26,16,16,0,0,16,0,16,0,-16,-16,"Disadvent",0,16,10,10,10,26
"66",3,"LIP4-LIP5",0.192722438732323,0.120004490232323,0.0698921517323232,0.0167714667323232,0.0435034367323232,0.188386248232323,0.345321596232323,0.344730846232323,0.291293861232323,0.208304907232323,0.105934505232323,0.309190025232323,0.522327550232323,0.509269252032323,0.531258196032323,0.461701071032323,0.451346771032323,0.460254204732323,0.327533829732323,0.413438084732323,3083,"DG_s15",7.026,7.731,9.383,9.385,10,26,10,10,1.652,"Right",10,26,16,16,0,0,16,0,16,0,-16,-16,"Disadvent",0,16,10,10,10,26
"67",3,"LAM9-LAM10",-0.00797960326262626,-0.162867408262626,-0.344603857262626,-0.301641186762626,-0.266478920762626,-0.255151951262626,-0.222974724262626,-0.207090159262626,-0.302050174262626,-0.297849945262626,-0.206726903262626,-0.162181835112626,-0.119601084112626,-0.100325354112626,-0.164356069112626,-0.170196321762626,-0.0352590727626263,0.0483373937373737,-0.0417890812626263,-0.144113638262626,3083,"DG_s15",7.026,7.731,9.383,9.385,10,26,10,10,1.652,"Right",10,26,16,16,0,0,16,0,16,0,-16,-16,"Disadvent",0,16,10,10,10,26
"68",3,"LAM3-LAM4",-0.277312455888889,-0.0641255058888889,0.194618844111111,0.221465911111111,0.207433211111111,0.0276894595111111,-0.135556073988889,-0.0876898034888889,-0.165608304488889,-0.134537718138889,-0.162431634638889,-0.277860888138889,-0.249741357138889,-0.126074641888889,-0.0759749098888889,0.0377874731111111,0.0264867730111111,-0.128324588488889,0.0255483295111111,-0.0342600749888889,3083,"DG_s15",7.026,7.731,9.383,9.385,10,26,10,10,1.652,"Right",10,26,16,16,0,0,16,0,16,0,-16,-16,"Disadvent",0,16,10,10,10,26
"69",3,"LHB4-LHB5",-0.886778968020202,-0.883909134520202,-0.806421080020202,-0.674883532520202,-0.384243132520202,-0.263948912520202,-0.274058082020202,-0.412370142020202,-0.622546927020202,-0.782401062020202,-0.893054097020202,-0.851692928520202,-0.829025626520202,-0.654712266020202,-0.596335116020202,-0.664457124520202,-0.642490643520202,-0.696967966270202,-0.694835368420202,-0.661483623420202,3083,"DG_s15",7.026,7.731,9.383,9.385,10,26,10,10,1.652,"Right",10,26,16,16,0,0,16,0,16,0,-16,-16,"Disadvent",0,16,10,10,10,26
"70",3,"LIP7-LIP8",-0.404220518828283,-0.287148652328283,-0.271768106328283,-0.374454816328283,-0.458636736328283,-0.434255656328283,-0.475443624328283,-0.385711214328283,-0.311073534328283,-0.334148902718283,-0.394675519718283,-0.523033879718283,-0.598095054718283,-0.612042633828283,-0.569997573828283,-0.366073923828283,-0.250722623828283,-0.206622822828283,-0.105615617828283,-0.196605501678283,3083,"DG_s15",7.026,7.731,9.383,9.385,10,26,10,10,1.652,"Right",10,26,16,16,0,0,16,0,16,0,-16,-16,"Disadvent",0,16,10,10,10,26
"71",3,"LAM1-LAM2",-0.246135782338384,-0.296409076838384,-0.278873173338384,-0.262816560088384,-0.281892235088384,-0.276206034088384,-0.232681828588384,-0.166444461338384,-0.166549083838384,-0.0655235638383838,-0.00801561033838383,-0.0677980233383838,-0.0293743208383838,0.0168035791616162,0.0510451741616162,0.0122315103616162,0.0558353303616162,-0.0175199726383838,-0.0716551931383838,0.0269465616616162,3083,"DG_s15",7.026,7.731,9.383,9.385,10,26,10,10,1.652,"Right",10,26,16,16,0,0,16,0,16,0,-16,-16,"Disadvent",0,16,10,10,10,26
"72",3,"LIP1-LIP2",-0.37941559775,-0.286803059,-0.26519493225,-0.2715101903,-0.1393346153,-0.1138745473,-0.14330205655,-0.22936282,-0.3046411355,-0.4082396655,-0.347151923,-0.285028372,-0.3626373965,-0.2998466955,-0.222347808,-0.153982264,0.0153810895,-0.039619606,-0.082123421,-0.1425896855,3083,"DG_s15",7.026,7.731,9.383,9.385,10,26,10,10,1.652,"Right",10,26,16,16,0,0,16,0,16,0,-16,-16,"Disadvent",0,16,10,10,10,26
"73",3,"LAM6-LAM7",0.240218696590909,0.206505199090909,0.224356689090909,0.148547977490909,0.150023977490909,0.271975082490909,0.437736852490909,0.446965494090909,0.410448497590909,0.215585586590909,0.249534636590909,0.326439401590909,0.446319898090909,0.612394459090909,0.427342016090909,0.266528641090909,0.175062606090909,0.0987802735909091,0.132035551590909,0.239478803590909,3083,"DG_s15",7.026,7.731,9.383,9.385,10,26,10,10,1.652,"Right",10,26,16,16,0,0,16,0,16,0,-16,-16,"Disadvent",0,16,10,10,10,26
"74",3,"LHB6-LHB7",0.0805132275388889,0.155282002538889,0.307946902538889,0.400073102538889,0.444319116388889,0.593307038888889,0.720303888888889,0.769555514888889,0.715159448888889,0.517878782638889,0.350314537638889,0.414776211638889,0.375782052638889,0.508222768888889,0.637121843388889,0.454031223388889,0.533583956888889,0.521072686888889,0.378870726888889,0.481160432888889,3083,"DG_s15",7.026,7.731,9.383,9.385,10,26,10,10,1.652,"Right",10,26,16,16,0,0,16,0,16,0,-16,-16,"Disadvent",0,16,10,10,10,26
"75",3,"LTT8-LTT9",-0.210531753306566,-0.161962037806566,-0.194413934156566,-0.0438104126565657,-0.0407354566565656,-0.0412759837065657,0.0873637977934344,0.0638081927934343,0.0497760727934344,0.0969611988434343,0.135883918843434,0.0546937548434344,0.0241643398434344,0.0572227703434343,0.0118974803434344,0.102827572843434,-0.00386553715656565,-0.105228403156566,-0.288232253156566,-0.346407267206566,3083,"DG_s15",7.026,7.731,9.383,9.385,10,26,10,10,1.652,"Right",10,26,16,16,0,0,16,0,16,0,-16,-16,"Disadvent",0,16,10,10,10,26
"76",3,"LHH5-LHH6",-0.0516846376212121,0.0801871193787879,0.0223388188787879,0.0539720488787879,0.00181220637878787,-0.177181528621212,-0.229479608121212,-0.365089393121212,-0.366216090671212,-0.354135990671212,-0.318449474171212,-0.332148084171212,-0.265304553621212,-0.133257303621212,0.0885726798787879,0.137848759878788,0.0833253298787879,0.0287264448787879,-0.153884278621212,-0.174125880971212,3083,"DG_s15",7.026,7.731,9.383,9.385,10,26,10,10,1.652,"Right",10,26,16,16,0,0,16,0,16,0,-16,-16,"Disadvent",0,16,10,10,10,26
"77",3,"LHB7-LHB8",0.0773474063333333,0.168867917233333,0.150134207733333,0.191607078233333,0.189435191733333,0.266518380833333,0.243710812833333,0.106977592833333,0.130649482833333,0.184488032833333,0.252847313333333,0.344608839333333,0.215045149333333,0.0832524343333333,-0.0162489146666667,-0.0162405356666667,0.0736974503333333,0.170289715333333,0.277718554333333,0.328737976333333,3083,"DG_s15",7.026,7.731,9.383,9.385,10,26,10,10,1.652,"Right",10,26,16,16,0,0,16,0,16,0,-16,-16,"Disadvent",0,16,10,10,10,26
"78",3,"LTT9-LTT10",-0.349467418944444,-0.310143555944444,-0.151881030944444,-0.0385074249444444,-0.167120472444444,-0.179912573444444,-0.208731648444444,-0.298229355444444,-0.319691562944444,-0.321587019294444,-0.305520052794444,-0.288040033994444,-0.243226553494444,-0.297339138644444,-0.416457075144444,-0.529852390444444,-0.629846144444444,-0.477726123944444,-0.306840153944444,-0.276114859944444,3083,"DG_s15",7.026,7.731,9.383,9.385,10,26,10,10,1.652,"Right",10,26,16,16,0,0,16,0,16,0,-16,-16,"Disadvent",0,16,10,10,10,26
"79",3,"LAM8-LAM9",-0.116312180681818,-0.163058981181818,-0.241402519181818,-0.285475721181818,-0.196107704461818,-0.119945032461818,-0.0631812204618182,0.0867858620381818,0.0771182603181818,-0.0268528466818182,-0.111174901681818,-0.300196111681818,-0.318487001681818,-0.378160328181818,-0.394881528181818,-0.364292361181818,-0.381226605181818,-0.299360033681818,-0.0789703336818182,-0.116802378181818,3083,"DG_s15",7.026,7.731,9.383,9.385,10,26,10,10,1.652,"Right",10,26,16,16,0,0,16,0,16,0,-16,-16,"Disadvent",0,16,10,10,10,26
"80",3,"LIP5-LIP6",0.0598121596868687,0.0864288741868687,0.141827439686869,0.101430568186869,0.101240831486869,0.0947070504868687,0.273218470486869,0.425191031486869,0.459895112686869,0.497979793186869,0.289383933536869,0.363445867036869,0.316970875536869,0.316024703036869,0.287995701186869,0.189164101186869,0.316831485186869,0.301620931171869,0.280626301171869,0.244913749171869,3083,"DG_s15",7.026,7.731,9.383,9.385,10,26,10,10,1.652,"Right",10,26,16,16,0,0,16,0,16,0,-16,-16,"Disadvent",0,16,10,10,10,26
"81",3,"LIP6-LIP7",-0.121284890540404,-0.118372258540404,0.0663169914595959,0.039832532459596,0.120050207459596,0.0788054289595959,-0.066779997040404,-0.125345757540404,-0.242400659540404,-0.167781075440404,-0.113134456440404,-0.177183745940404,-0.307761223940404,-0.295628766040404,-0.369221116540404,-0.263711706540404,-0.242477064540404,-0.348770289540404,-0.313317641040404,-0.408043636040404,3083,"DG_s15",7.026,7.731,9.383,9.385,10,26,10,10,1.652,"Right",10,26,16,16,0,0,16,0,16,0,-16,-16,"Disadvent",0,16,10,10,10,26
"82",3,"LIP3-LIP4",0.186582992767677,0.260369609617677,0.400800353617677,0.313074441117677,0.669682671117677,0.719501832267677,0.607752260767677,0.552772795267677,0.396764145267677,0.334854984767677,0.312435879267677,0.362754332267677,0.367701482267677,0.374621501767677,0.445249378767677,0.517326753767677,0.398312199167677,0.504656902167677,0.407985049567677,0.310317663067677,3083,"DG_s15",7.026,7.731,9.383,9.385,10,26,10,10,1.652,"Right",10,26,16,16,0,0,16,0,16,0,-16,-16,"Disadvent",0,16,10,10,10,26
"83",3,"LAM5-LAM6",0.113483416767677,0.171877265767677,0.0514583147676768,-0.127729055232323,-0.120919821732323,-0.116267275732323,-0.114357079232323,-0.0631426347323232,-0.0614039182323232,-0.0601177312323232,0.0607454652676768,0.144414285767677,0.0630664782676768,0.0433624272676768,0.0710718207676768,0.200898825767677,0.272024426267677,0.312459738267677,0.184066195767677,0.0932189257676768,3083,"DG_s15",7.026,7.731,9.383,9.385,10,26,10,10,1.652,"Right",10,26,16,16,0,0,16,0,16,0,-16,-16,"Disadvent",0,16,10,10,10,26
"84",3,"LIP2-LIP3",0.23031494710404,0.43131160775404,0.39082814390404,0.36473837390404,0.51966440340404,0.33774202145404,0.30077172195404,0.27156215795404,0.25032970795404,0.23144975390404,0.15559610890404,0.11078775240404,0.0782414124040404,0.31521315840404,0.48181083390404,0.50496051740404,0.44037526040404,0.29469899540404,0.28437224540404,0.31175416710404,3083,"DG_s15",7.026,7.731,9.383,9.385,10,26,10,10,1.652,"Right",10,26,16,16,0,0,16,0,16,0,-16,-16,"Disadvent",0,16,10,10,10,26
"85",3,"LIP8-LIP9",0.0654157292222222,-0.0419172957777778,0.0801051847222222,-0.00848024227777778,0.0755133442222222,0.0260470667222222,-0.0482522462777778,-0.0200171762777778,0.0132887661722222,0.0644818678722222,0.178381395872222,0.243315018422222,0.312195835972222,0.327628112772222,0.330186052772222,0.366668731722222,0.279188601072222,0.236615639672222,0.182138379672222,0.209035359672222,3083,"DG_s15",7.026,7.731,9.383,9.385,10,26,10,10,1.652,"Right",10,26,16,16,0,0,16,0,16,0,-16,-16,"Disadvent",0,16,10,10,10,26
"86",3,"LHH6-LHH7",-0.408796799616162,-0.239574116116162,-0.195438466116162,-0.238827038616162,-0.239332299116162,-0.332924121616162,-0.500877638616162,-0.472554805266162,-0.218242455266162,-0.195606108516162,-0.136369654016162,-0.0788567448661616,-0.203190344866162,-0.210419752616162,-0.279115820116162,-0.355852352616162,-0.453634697616162,-0.518936959116162,-0.394520059166162,-0.486954161666162,3083,"DG_s15",7.026,7.731,9.383,9.385,10,26,10,10,1.652,"Right",10,26,16,16,0,0,16,0,16,0,-16,-16,"Disadvent",0,16,10,10,10,26
"87",3,"LHB5-LHB6",-0.00761002017676768,-0.0676435246767677,0.0508690548232323,0.0429168548232323,0.251761977323232,0.456923562323232,0.610306362323232,0.628880112323232,0.717209162323232,0.665168762323232,0.389855442323232,0.204443342323232,0.00732977532323232,-0.0643608122267677,-0.0341180787267677,0.00549655127323232,-0.0702287617267677,-0.0704397401767677,0.0234717068232323,-0.0281845081767677,3083,"DG_s15",7.026,7.731,9.383,9.385,10,26,10,10,1.652,"Right",10,26,16,16,0,0,16,0,16,0,-16,-16,"Disadvent",0,16,10,10,10,26
"88",4,"LHB9-LHB10",0.33377669669899,0.19331578519899,0.19879512384899,0.18810195189899,0.34581188189899,0.41741204949899,0.41161929849899,0.50062962249899,0.45025894849899,0.38296862089899,0.43350217749899,0.44566375249899,0.37625576989899,0.50132810989899,0.41131300429899,0.28988406879899,0.27265188434899,0.26697619434899,0.25674258834899,0.30415843109899,3084,"DG_s15",10.386,11.091,13.747,13.749,16,4,10,10,2.656,"Right",16,4,12,12,0,0,0,-12,0,-12,12,12,"Advent",6,-6,10,16,10,4
"89",4,"LHH5-LHH6",0.281318122378788,0.0515952123787879,-0.0889153526212121,-0.195974057621212,-0.157458684121212,0.0946308758787879,0.196248040878788,0.304162884128788,0.345095116128788,0.141572333128788,-0.0432109668712121,-0.102721375121212,-0.216787684621212,-0.0788347916212121,-0.0403773066212121,-0.118154966621212,-0.0288716621212121,-0.0653276471212121,0.177714817878788,0.335689142878788,3084,"DG_s15",10.386,11.091,13.747,13.749,16,4,10,10,2.656,"Right",16,4,12,12,0,0,0,-12,0,-12,12,12,"Advent",6,-6,10,16,10,4
"90",4,"LHH4-LHH5",0.32642611559596,0.28836412309596,0.15822677309596,0.0443030735959596,-0.11303211340404,0.0669269390959596,0.0749113090959596,-0.0451696914040404,0.11458395459596,-0.11690188690404,-0.0869013719040404,0.0228133910959596,-0.0813999189040404,0.0721718725959596,0.0861954415959596,-0.00706520690404041,0.0147602710959596,-0.15631882890404,0.0894625885959596,0.25192210909596,3084,"DG_s15",10.386,11.091,13.747,13.749,16,4,10,10,2.656,"Right",16,4,12,12,0,0,0,-12,0,-12,12,12,"Advent",6,-6,10,16,10,4
"91",4,"LAM2-LAM3",0.191987154747475,0.179533089247475,0.233879495747475,0.177410815247475,0.161702222247475,0.0680827842474748,-0.153644421752525,-0.0960661882525252,-0.138420010752525,0.0132333757474748,0.0920240457474747,0.00633073074747476,-0.126351313752525,-0.134179306552525,0.0353526334474748,0.137321818447475,0.288363825947475,0.209374837247475,0.137994530747475,0.161914590747475,3084,"DG_s15",10.386,11.091,13.747,13.749,16,4,10,10,2.656,"Right",16,4,12,12,0,0,0,-12,0,-12,12,12,"Advent",6,-6,10,16,10,4
"92",4,"LAM3-LAM4",0.16058320529899,0.12193226939899,0.10497392489899,-0.0780158631010101,-0.15535006310101,-0.17948338960101,-0.13045455515101,-0.0264766991510101,-0.0044400791510101,0.15873832734899,0.20478464289899,0.23897968489899,0.29102253239899,0.17905234389899,0.0776448540989899,-0.0268616169010101,-0.0823015839010101,-0.16694022540101,-0.22877353660101,-0.19615700660101,3084,"DG_s15",10.386,11.091,13.747,13.749,16,4,10,10,2.656,"Right",16,4,12,12,0,0,0,-12,0,-12,12,12,"Advent",6,-6,10,16,10,4
"93",4,"LAM8-LAM9",0.205446633535354,0.230466170535354,0.176587151535354,0.0720474835353535,-0.0499662744646465,-0.178545719964646,-0.165825584464646,-0.230358173464646,-0.0433379914646465,0.0894829029353535,0.0915249574353535,0.129656606585354,-0.0592990819146465,-0.0508539383146465,-0.0207486863146465,0.0496415595353535,0.119191815035354,0.0102327075353535,0.0364522325353535,-0.0555832939646465,3084,"DG_s15",10.386,11.091,13.747,13.749,16,4,10,10,2.656,"Right",16,4,12,12,0,0,0,-12,0,-12,12,12,"Advent",6,-6,10,16,10,4
"94",4,"LAM4-LAM5",0.205333457318182,0.191803207318182,0.189423757318182,0.0737348838181818,-0.00363541668181819,0.0800620273181818,0.142654999438182,0.237862454438182,0.266969515438182,0.372964516438182,0.262778949818182,0.156660632818182,0.0859469218181818,0.104000081818182,0.182533629318182,0.267938556318182,0.411779949818182,0.388484444818182,0.590031021818182,0.565678891818182,3084,"DG_s15",10.386,11.091,13.747,13.749,16,4,10,10,2.656,"Right",16,4,12,12,0,0,0,-12,0,-12,12,12,"Advent",6,-6,10,16,10,4
"95",4,"LIP1-LIP2",0.465322572631313,0.279454932631313,0.205777200331313,0.368728730331313,0.497941963331313,0.600949148331313,0.757055388131313,0.689614468131313,0.494822336631313,0.616877401631313,0.580093204631313,0.386911224631313,0.418856762131313,0.297399248131313,0.175709170131313,0.294472900631313,0.309508463631313,0.360108706131313,0.330859856631313,0.307503891131313,3084,"DG_s15",10.386,11.091,13.747,13.749,16,4,10,10,2.656,"Right",16,4,12,12,0,0,0,-12,0,-12,12,12,"Advent",6,-6,10,16,10,4
"96",4,"LHB8-LHB9",-0.473603838838384,-0.347611362838384,-0.107698062838384,0.172321337161616,0.260979463661616,0.151584963311616,-0.0305090836883838,-0.119922627188384,-0.164466943688384,-0.179109481838384,-0.181472364838384,-0.250026561338384,-0.262074771338384,-0.375536253838384,-0.408641433838384,-0.328958854838384,-0.159778959188384,0.0903002908116162,0.184174162451616,0.121985543451616,3084,"DG_s15",10.386,11.091,13.747,13.749,16,4,10,10,2.656,"Right",16,4,12,12,0,0,0,-12,0,-12,12,12,"Advent",6,-6,10,16,10,4
"97",4,"LHB4-LHB5",0.0606765793131313,0.149032075313131,0.311096535313131,0.504101081313131,0.524147731313131,0.600132081313131,0.414340331313131,0.264978336313131,0.278571586313131,0.274586186313131,0.183044828313131,0.166508915813131,0.172812115813131,-0.0305127319418687,0.0614358610581313,0.144730468558131,0.147294918558131,0.267141316313131,0.240132788313131,0.0279216983131313,3084,"DG_s15",10.386,11.091,13.747,13.749,16,4,10,10,2.656,"Right",16,4,12,12,0,0,0,-12,0,-12,12,12,"Advent",6,-6,10,16,10,4
"98",4,"LAM1-LAM2",0.124672484348485,0.177731246348485,0.187229251348485,0.155548422848485,0.173650568348485,0.289659109348485,0.310451409348485,0.370885157848485,0.423454732348485,0.520169929348485,0.368303948348485,0.142249748348485,0.0665907938484848,-0.0901376491515151,0.0472138053484848,0.259560705348485,0.370172520848485,0.409567485348485,0.455467142848485,0.451819021848485,3084,"DG_s15",10.386,11.091,13.747,13.749,16,4,10,10,2.656,"Right",16,4,12,12,0,0,0,-12,0,-12,12,12,"Advent",6,-6,10,16,10,4
"99",4,"LIP2-LIP3",0.183137740767677,0.0631156352676768,0.0501144827676768,0.143794788767677,0.466579238767677,0.563171844267677,0.583761921767677,0.669361191767677,0.584261941767677,0.605859656767677,0.544129608067677,0.407743524317677,0.443313974317677,0.395010902317677,0.376556499017677,0.349814058767677,0.134102258767677,-0.00653963423232323,-0.0457588722323232,-0.0939861327323232,3084,"DG_s15",10.386,11.091,13.747,13.749,16,4,10,10,2.656,"Right",16,4,12,12,0,0,0,-12,0,-12,12,12,"Advent",6,-6,10,16,10,4
"100",4,"LHB7-LHB8",0.306893053923737,0.290348830873737,0.373566165873737,0.547373795873737,0.565191180873737,0.654721568873737,0.722459268873737,0.742631568873737,0.814497883873737,0.748430696873737,0.523465896873737,0.419599135423737,0.336883876923737,0.379931867423737,0.582601667423737,0.665271218873737,0.857857397373737,0.931961277373737,0.870401817373737,0.737417752873737,3084,"DG_s15",10.386,11.091,13.747,13.749,16,4,10,10,2.656,"Right",16,4,12,12,0,0,0,-12,0,-12,12,12,"Advent",6,-6,10,16,10,4
"101",4,"LAM7-LAM8",-0.250497380242424,-0.425374042742424,-0.477897046242424,-0.475393070242424,-0.348728221742424,-0.211091861742424,-0.151934999742424,-0.120073236242424,-0.170224411242424,-0.256921239242424,-0.329111496842424,-0.338734205342424,-0.409867004432424,-0.142203836432424,-0.0498667188324242,-0.0729510333324242,-0.00615500924242424,-0.173725447742424,-0.170803458242424,0.0262256667575758,3084,"DG_s15",10.386,11.091,13.747,13.749,16,4,10,10,2.656,"Right",16,4,12,12,0,0,0,-12,0,-12,12,12,"Advent",6,-6,10,16,10,4
"102",4,"LIP4-LIP5",0.124271140949495,0.195010435949495,0.223162985899495,0.078778235899495,0.0275159528494949,-0.0818642961505051,-0.0473524821005051,0.116835272899495,0.220964065949495,0.217753182949495,0.148702402949495,0.191951462949495,0.223573757949495,0.198358364449495,0.266098794449495,0.231651579449495,0.157072051549495,0.190771420849495,0.0820944603494949,-0.0438234896505051,3084,"DG_s15",10.386,11.091,13.747,13.749,16,4,10,10,2.656,"Right",16,4,12,12,0,0,0,-12,0,-12,12,12,"Advent",6,-6,10,16,10,4
"103",4,"LIP3-LIP4",-0.118076073212121,-0.214675943712121,-0.249653138712121,-0.151464886712121,-0.00136441671212123,0.0593417037878788,0.0497170602878788,-0.0784835717121212,-0.0513680797121212,-0.146739680212121,-0.213975175012121,-0.167627004312121,-0.142115966312121,-0.0867467838121212,-0.0283230127921212,0.0632404485078788,-0.0220537214921212,-0.140624203492121,-0.251780691212121,-0.297764485212121,3084,"DG_s15",10.386,11.091,13.747,13.749,16,4,10,10,2.656,"Right",16,4,12,12,0,0,0,-12,0,-12,12,12,"Advent",6,-6,10,16,10,4
"104",4,"LIP6-LIP7",-0.0705046031848485,0.0390963818151515,0.161336218315152,0.206628392565152,0.119519398415152,0.108638003915152,0.0736545639151515,0.135786974015151,0.140474835515151,0.168277371015152,0.173069359515152,0.0931925210151515,0.171921836015152,0.186560645015152,0.176742726515152,0.361197706515151,0.373117413015152,0.275752406515152,0.306890826515152,0.144464033515152,3084,"DG_s15",10.386,11.091,13.747,13.749,16,4,10,10,2.656,"Right",16,4,12,12,0,0,0,-12,0,-12,12,12,"Advent",6,-6,10,16,10,4
"105",4,"LHH7-LHH8",-0.0511395305151515,-0.183253782515151,-0.144970438515151,-0.177222523515151,-0.326848985015151,-0.179271818015151,-0.277427162015151,-0.311510206015152,-0.150772339515151,-0.147725284515151,0.0270099244848485,0.0212155136448485,-0.148106145355151,-0.287945840355151,-0.382463106155151,-0.293806066315151,-0.264262187315151,-0.285527542315151,-0.310746767015151,-0.432456571015152,3084,"DG_s15",10.386,11.091,13.747,13.749,16,4,10,10,2.656,"Right",16,4,12,12,0,0,0,-12,0,-12,12,12,"Advent",6,-6,10,16,10,4
"106",4,"LHB6-LHB7",0.112134335429293,0.274617990429293,0.504986140429293,0.634293745429293,0.567477440729293,0.378878142729293,0.198392001229293,0.154567127229293,0.224267549429293,0.325281003429293,0.337802054929293,0.285669238929293,0.343576333429293,0.338944244429293,0.386582582429293,0.388762599429293,0.292890571929293,0.300714888179293,0.266024118179293,0.358167486179293,3084,"DG_s15",10.386,11.091,13.747,13.749,16,4,10,10,2.656,"Right",16,4,12,12,0,0,0,-12,0,-12,12,12,"Advent",6,-6,10,16,10,4
"107",4,"LAM9-LAM10",-0.300191993181818,-0.394154698681818,-0.396929986181818,-0.502934554181818,-0.618062721181818,-0.666465785681818,-0.658984390181818,-0.499617528681818,-0.370607403681818,-0.356395855181818,-0.433638488181818,-0.481809849681818,-0.561206609681818,-0.577706533181818,-0.328261215981818,-0.182407015981818,-0.156166783481818,-0.100258936481818,-0.237619337731818,-0.314871987731818,3084,"DG_s15",10.386,11.091,13.747,13.749,16,4,10,10,2.656,"Right",16,4,12,12,0,0,0,-12,0,-12,12,12,"Advent",6,-6,10,16,10,4
"108",4,"LIP8-LIP9",0.734091378373737,0.499542503873737,0.226660922373737,0.238618792373737,0.317955082373737,0.400148515873737,0.437327572268737,0.344763146268737,0.309202546268737,0.292094370668737,0.346189349773737,0.342103421273737,0.168345140273737,0.0579914480237374,0.00467384902373737,0.0159868635237374,-0.00736928147626262,0.00788286437373737,0.00207588387373737,0.0413397638737374,3084,"DG_s15",10.386,11.091,13.747,13.749,16,4,10,10,2.656,"Right",16,4,12,12,0,0,0,-12,0,-12,12,12,"Advent",6,-6,10,16,10,4
"109",4,"LHH6-LHH7",0.133058375143939,0.174494375143939,0.264969799393939,0.252973559393939,0.197628109393939,0.171447459393939,0.0261967053939394,-0.0939302121060606,-0.221767928106061,-0.430616578106061,-0.481400624106061,-0.482005966606061,-0.474653050606061,-0.315459920256061,-0.251351970256061,-0.225235523256061,-0.127751573256061,-0.0997883861060606,0.116704233893939,0.268904293393939,3084,"DG_s15",10.386,11.091,13.747,13.749,16,4,10,10,2.656,"Right",16,4,12,12,0,0,0,-12,0,-12,12,12,"Advent",6,-6,10,16,10,4
"110",4,"LTT9-LTT10",0.182042741939394,0.290998742439394,0.336957992439394,0.344758276439394,0.413807708939394,0.253244302939394,0.0828057644393939,0.114264768439394,0.102075215939394,0.137006537939394,0.186175926439394,0.108406188439394,0.0141428524393939,-0.0403759710606061,0.0671404139393939,0.0599241474393939,0.167366635939394,0.266362835439394,0.266898413439394,0.365798648939394,3084,"DG_s15",10.386,11.091,13.747,13.749,16,4,10,10,2.656,"Right",16,4,12,12,0,0,0,-12,0,-12,12,12,"Advent",6,-6,10,16,10,4
"111",4,"LAM5-LAM6",-0.0341798130282828,0.0334628314717172,0.123725581471717,0.0935871814717172,0.103406843471717,0.126399238471717,-0.0629777045282828,-0.245427204528283,-0.266478440328283,-0.397227297928283,-0.266109594928283,-0.0919255449282828,0.00512241957171716,-0.0454019228282828,-0.0825522518282828,-0.0645986268282828,-0.173270516828283,-0.132929268828283,-0.0792477298282828,-0.104330604828283,3084,"DG_s15",10.386,11.091,13.747,13.749,16,4,10,10,2.656,"Right",16,4,12,12,0,0,0,-12,0,-12,12,12,"Advent",6,-6,10,16,10,4
"112",4,"LIP5-LIP6",-0.292451971688889,-0.317944084188889,-0.130921644188889,-0.0296101663888889,-0.121877211388889,-0.0249598113888889,-0.0484234613888889,-0.0586033113888889,-0.0347721573888889,-0.0851519153888889,-0.238916615888889,-0.345529300888889,-0.313364557888889,-0.242784420388889,-0.208950160888889,-0.162711123888889,-0.267059691888889,-0.321314791338889,-0.365819724938889,-0.468087026938889,3084,"DG_s15",10.386,11.091,13.747,13.749,16,4,10,10,2.656,"Right",16,4,12,12,0,0,0,-12,0,-12,12,12,"Advent",6,-6,10,16,10,4
"113",4,"LHB5-LHB6",0.0122407547256061,-0.169772580774394,-0.226037096439394,-0.182351438439394,-0.0155220014393939,0.114832095560606,0.265535185560606,0.205070864060606,0.109840528060606,0.106903698560606,-0.0473463014393939,-0.0832266454393939,0.0217106405606061,0.00543098206060606,0.0862721425606061,0.0612701055606061,-0.0310734354393939,0.0295933205606061,0.0789048800606061,0.155523257810606,3084,"DG_s15",10.386,11.091,13.747,13.749,16,4,10,10,2.656,"Right",16,4,12,12,0,0,0,-12,0,-12,12,12,"Advent",6,-6,10,16,10,4
"114",4,"LTT8-LTT9",-0.185496274883838,-0.174303974883838,-0.147035899883838,-0.163547114383838,-0.0838630683838384,-0.0835210588838384,-0.0215983653838384,0.0650917996161616,0.0457166116161616,0.104795437116162,-0.00933846038383837,0.0274731396161616,0.0441688896161616,0.0281629096161616,0.109189148616162,-0.0772920160338384,-0.197759890533838,-0.104858327633838,-0.130861765633838,-0.230539650983838,3084,"DG_s15",10.386,11.091,13.747,13.749,16,4,10,10,2.656,"Right",16,4,12,12,0,0,0,-12,0,-12,12,12,"Advent",6,-6,10,16,10,4
"115",4,"LIP7-LIP8",0.546308703777778,0.583842153777778,0.619662703777778,0.549725139777778,0.615085603777778,0.491573843777778,0.345952013777778,0.376474572777778,0.343286197777778,0.319158607777778,0.199619637777778,0.190185658777778,0.143877897277778,0.195366997277778,0.423960728277778,0.522955267277778,0.585633038777778,0.537494841027778,0.368078760027778,0.235898565027778,3084,"DG_s15",10.386,11.091,13.747,13.749,16,4,10,10,2.656,"Right",16,4,12,12,0,0,0,-12,0,-12,12,12,"Advent",6,-6,10,16,10,4
"116",4,"LAM6-LAM7",-0.0938696050353535,-0.233394419535354,-0.315049991535354,-0.376715710535354,-0.399991250535354,-0.352820356385354,-0.314050986385354,-0.344773867385354,-0.242277553885353,-0.243623825035354,-0.213293290035354,-0.228388620035354,-0.352893059815354,-0.376171345815353,-0.482046600815353,-0.538206270815354,-0.515839195035353,-0.536884770035354,-0.122612170035354,0.0761379799646465,3084,"DG_s15",10.386,11.091,13.747,13.749,16,4,10,10,2.656,"Right",16,4,12,12,0,0,0,-12,0,-12,12,12,"Advent",6,-6,10,16,10,4
"117",5,"LHB8-LHB9",-0.441714023906566,-0.362008030406566,-0.250993007906566,-0.166122780206566,-0.153997560656566,-0.241589793156566,-0.340608025656566,-0.372184900656566,-0.353996186156566,-0.418270021156566,-0.423631648206566,-0.356321323206566,-0.304260775206566,-0.149251975206566,-0.128914800656566,-0.252973526656566,-0.148246876656566,-0.183750306656566,-0.239190425156566,-0.124086869156566,3085,"DG_s15",14.75,15.456,17.897,17.899,10,10,6,6,2.441,"Right",6,6,0,0,0,0,0,0,0,0,0,0,"10-10",4,4,6,10,6,10
"118",5,"LAM4-LAM5",0.0672673468919192,0.0942302868919192,0.0383312288919192,-0.0762079866080808,0.00203153219191918,-0.0656377939080808,0.107838794091919,0.174370309591919,0.154977888091919,0.103322030191919,-0.106963304808081,-0.248495229808081,-0.287459340308081,-0.260208188308081,-0.216955219808081,-0.133284481308081,-0.212075180808081,-0.203991692808081,-0.204142096808081,-0.250405738308081,3085,"DG_s15",14.75,15.456,17.897,17.899,10,10,6,6,2.441,"Right",6,6,0,0,0,0,0,0,0,0,0,0,"10-10",4,4,6,10,6,10
"119",5,"LIP1-LIP2",-0.126112647431818,-0.171812977931818,-0.286076027181818,-0.198743361181818,-0.244635405531818,-0.278112326531818,-0.238651675531818,-0.305031141031818,-0.209392380181818,-0.0440345201818182,0.0290976058181818,0.112935571318182,0.105190426818182,0.0844095808181818,0.0685078040681818,0.103195149068182,-0.0108481909318182,-0.0506198004318182,-0.104937849681818,-0.184126854681818,3085,"DG_s15",14.75,15.456,17.897,17.899,10,10,6,6,2.441,"Right",6,6,0,0,0,0,0,0,0,0,0,0,"10-10",4,4,6,10,6,10
"120",5,"LAM3-LAM4",0.102106179075253,0.176353765525253,0.0565964855252525,0.103134975245253,0.0952988172452525,-0.0514731932547475,0.164478286745253,0.222886641935253,0.237313183935253,0.282975842435253,0.273693142435253,0.217227766525253,0.159935875025253,0.210405147525253,0.0772492475252525,0.115717746925253,0.261908351425253,0.249141520925253,0.199938105925253,0.186248510025253,3085,"DG_s15",14.75,15.456,17.897,17.899,10,10,6,6,2.441,"Right",6,6,0,0,0,0,0,0,0,0,0,0,"10-10",4,4,6,10,6,10
"121",5,"LAM1-LAM2",0.29257669641899,0.41118975339899,0.11822964839899,0.13466113739899,0.23266714934899,0.14101565934899,0.50372791434899,0.56136473684899,0.47208453089899,0.45464750589899,0.16602426239899,0.18899716989899,0.35234246389899,0.34902129189899,0.39888885539899,0.33457967789899,0.15678655289899,0.11325509589899,0.0460205526489899,0.0561619226489899,3085,"DG_s15",14.75,15.456,17.897,17.899,10,10,6,6,2.441,"Right",6,6,0,0,0,0,0,0,0,0,0,0,"10-10",4,4,6,10,6,10
"122",5,"LIP5-LIP6",-0.135687207066667,-0.0964643375666667,-0.0150522775666667,0.239092572433333,0.131331139833333,0.0662450398333333,-0.0520909116666667,-0.265680361666667,-0.142105005666667,0.0576070228333333,0.104637897833333,0.206884821833333,0.206298153433333,-0.0282323465666667,-0.151186070066667,-0.0884254725666667,0.142038889833333,0.145379982833333,0.148881767833333,-0.0106665891666667,3085,"DG_s15",14.75,15.456,17.897,17.899,10,10,6,6,2.441,"Right",6,6,0,0,0,0,0,0,0,0,0,0,"10-10",4,4,6,10,6,10
"123",5,"LAM9-LAM10",0.0342938356969697,-0.0826720553030303,-0.13961124080303,0.0310245106969697,0.20802763269697,0.33720556569697,0.18051785619697,0.11760091919697,0.0599878671969697,0.0161979291969697,0.11315629419697,0.11837315319697,0.12070828319697,0.22598343819697,0.20039604969697,0.22254780619697,0.24748352619697,0.23095654119697,0.35230752469697,0.37637631469697,3085,"DG_s15",14.75,15.456,17.897,17.899,10,10,6,6,2.441,"Right",6,6,0,0,0,0,0,0,0,0,0,0,"10-10",4,4,6,10,6,10
"124",5,"LHB9-LHB10",-0.159061336424242,-0.134319961724242,-0.197594766224242,-0.108639845724242,-0.0135492007242424,-0.0928836719242424,-0.161520667424242,-0.408189200424242,-0.456148218424242,-0.298226180424242,-0.185238500424242,-0.130650850424242,-0.169704024924242,-0.159199004924242,-0.0963181849242424,0.0392977150757576,0.0815824926757576,-0.0441125773242424,-0.101437347324242,-0.0958545083242424,3085,"DG_s15",14.75,15.456,17.897,17.899,10,10,6,6,2.441,"Right",6,6,0,0,0,0,0,0,0,0,0,0,"10-10",4,4,6,10,6,10
"125",5,"LAM8-LAM9",0.178469364494949,0.14936812799495,0.10508472799495,-0.0321158170050505,-0.0205336805050505,0.0177575044949495,0.0163961124949495,-0.0234928975050505,0.0626374124949495,0.174581502494949,0.16429277999495,0.30608957999495,0.329135229994949,0.31989050999495,0.42466635949495,0.34579697464495,0.0839747246449495,-0.0552805153550505,0.14226707964495,0.35022881449495,3085,"DG_s15",14.75,15.456,17.897,17.899,10,10,6,6,2.441,"Right",6,6,0,0,0,0,0,0,0,0,0,0,"10-10",4,4,6,10,6,10
"126",5,"LIP2-LIP3",0.00443890358838384,-0.134883856911616,0.0532990583383838,0.148314018338384,0.232634063338384,0.309906683838384,0.234936883838384,0.280170283838384,0.184718740338384,0.108784213338384,0.0479046633383838,-0.114825786661616,-0.150207883161616,-0.202123125161616,-0.240570237861616,-0.128074332861616,-0.0416226698116162,0.0934927941883838,0.231625739388384,0.132612834388384,3085,"DG_s15",14.75,15.456,17.897,17.899,10,10,6,6,2.441,"Right",6,6,0,0,0,0,0,0,0,0,0,0,"10-10",4,4,6,10,6,10
"127",5,"LHH5-LHH6",-0.0521007316616162,0.126713268338384,0.136809986238384,0.00684143623838383,-0.0124239922616162,-0.115716564911616,-0.0710844873116162,-0.0360746658116162,0.142876282688384,0.209684818338384,0.0940094055883838,0.133471523088384,0.0194362880883838,-0.0219025915116162,0.0868247297383838,-0.0666502992616162,-0.254884464261616,-0.297166741161616,-0.145073899661616,0.170091540338384,3085,"DG_s15",14.75,15.456,17.897,17.899,10,10,6,6,2.441,"Right",6,6,0,0,0,0,0,0,0,0,0,0,"10-10",4,4,6,10,6,10
"128",5,"LAM5-LAM6",0.139899948757222,0.0874201267222222,0.0118718397222222,0.0521708787222222,0.0495568227222222,0.169942934222222,0.160324371222222,0.177419086222222,0.309450009222222,0.273106082222222,0.227339695722222,0.207167055722222,0.183153955722222,0.177576301722222,0.137459694722222,0.0428617102222222,0.0595761102222222,0.172662399222222,0.246864277722222,0.363910802222222,3085,"DG_s15",14.75,15.456,17.897,17.899,10,10,6,6,2.441,"Right",6,6,0,0,0,0,0,0,0,0,0,0,"10-10",4,4,6,10,6,10
"129",5,"LHH4-LHH5",-0.249085324770202,-0.147649763920202,-0.099519071020202,-0.144340640520202,-0.161577533020202,-0.246543225020202,-0.276908657985202,-0.138620047485202,-0.038032745485202,-0.052414566985202,-0.048376657020202,-0.122295361520202,-0.306338616520202,-0.228735762820202,-0.256770585320202,-0.322728853820202,-0.323951473820202,-0.406616719520202,-0.426664325020202,-0.352450333020202,3085,"DG_s15",14.75,15.456,17.897,17.899,10,10,6,6,2.441,"Right",6,6,0,0,0,0,0,0,0,0,0,0,"10-10",4,4,6,10,6,10
"130",5,"LIP4-LIP5",0.0333840665151515,0.167649356515152,0.281428301515152,0.365477554015152,0.308100412515152,0.355620062515151,0.262549144015152,0.0635945700151515,0.0863297140151515,0.0661492140151515,0.112865671515152,0.184642844515152,0.0708637420151515,-0.0669101969848485,-0.176006435984848,-0.267591187484849,-0.117510690484848,0.0790332485151515,0.319643998515152,0.390606858515152,3085,"DG_s15",14.75,15.456,17.897,17.899,10,10,6,6,2.441,"Right",6,6,0,0,0,0,0,0,0,0,0,0,"10-10",4,4,6,10,6,10
"131",5,"LAM2-LAM3",-0.0718128845808081,0.0589397909191919,0.138128575919192,0.131502682919192,0.0835327929191919,-0.0215772575808081,-0.0615497075808081,0.161356186419192,0.253431007919192,0.264474133419192,0.377714483419192,0.327761883419192,0.383498028919192,0.439413594919192,0.244816797419192,0.0522179319191919,0.170983223319192,0.178764507319192,0.189830107819192,0.270707000319192,3085,"DG_s15",14.75,15.456,17.897,17.899,10,10,6,6,2.441,"Right",6,6,0,0,0,0,0,0,0,0,0,0,"10-10",4,4,6,10,6,10
"132",5,"LHB7-LHB8",0.0909948766464646,0.186545571146465,0.133541071146465,-0.00448354385353535,0.0280248651464646,0.0422705751464647,0.211702560146465,0.195197247146465,0.207569988146465,0.0758171601464646,0.00590029514646465,0.0523020581464647,0.0800230126464647,0.161432340646465,0.115574570146465,0.0680858101464646,-0.0572640208535353,-0.152199274853535,-0.0467304893535353,0.00851943464646465,3085,"DG_s15",14.75,15.456,17.897,17.899,10,10,6,6,2.441,"Right",6,6,0,0,0,0,0,0,0,0,0,0,"10-10",4,4,6,10,6,10
"133",5,"LAM7-LAM8",-0.165103579151515,-0.217682697151515,-0.274435044651515,-0.330906556651515,-0.335277753851515,-0.207386535851515,-0.117542826351515,-0.0604588478515151,-0.00639378665151513,-0.173150846651515,-0.206708119651515,-0.200274333151515,-0.333189988151515,-0.329501035151515,-0.454807912151515,-0.493321422151515,-0.416447456151515,-0.406485643151515,-0.306187843151515,-0.259561404851515,3085,"DG_s15",14.75,15.456,17.897,17.899,10,10,6,6,2.441,"Right",6,6,0,0,0,0,0,0,0,0,0,0,"10-10",4,4,6,10,6,10
"134",5,"LIP7-LIP8",-0.0279326451757576,-0.117390466175758,-0.170550891175758,-0.178521941175758,-0.0862619440757576,-0.0796682940757576,-0.101395480075758,-0.248769418145758,-0.176854051645758,-0.00768152164575756,0.0131520143542424,-0.00527358322575758,-0.0954948647257576,-0.289798494725758,-0.330682000375758,-0.277744132725758,-0.143790251225758,-0.0176742657257576,-0.0592330100757576,-0.170060942075758,3085,"DG_s15",14.75,15.456,17.897,17.899,10,10,6,6,2.441,"Right",6,6,0,0,0,0,0,0,0,0,0,0,"10-10",4,4,6,10,6,10
"135",5,"LTT8-LTT9",0.290661750440101,0.312980010910101,0.310668770555101,0.292306458055101,0.289512271555101,0.290397422655101,0.186656048010101,0.246619920510101,0.220787412010101,0.132179196010101,0.133216419510101,0.163821289510101,0.250877499510101,0.312211049510101,0.228017314010101,0.194662365510101,0.330335835510101,0.303576790660101,0.235644167660101,0.105223361660101,3085,"DG_s15",14.75,15.456,17.897,17.899,10,10,6,6,2.441,"Right",6,6,0,0,0,0,0,0,0,0,0,0,"10-10",4,4,6,10,6,10
"136",5,"LIP3-LIP4",0.00467208376262626,-0.103590679737374,0.0193984867626263,-4.24807373737568e-05,0.0769161762626263,0.0516384685126262,-0.0931017646373737,-0.159548055637374,-0.223054698137374,-0.206632261887374,-0.235369107237374,-0.237840606237374,-0.319631324737374,-0.213614314737374,-0.0658239597373737,0.0585269302626263,0.172881501262626,0.176063126262626,0.240300026262626,0.161664636262626,3085,"DG_s15",14.75,15.456,17.897,17.899,10,10,6,6,2.441,"Right",6,6,0,0,0,0,0,0,0,0,0,0,"10-10",4,4,6,10,6,10
"137",5,"LHH7-LHH8",0.456777326933384,0.211373826933384,-0.00601145356661617,0.0321605864333838,-0.103032497161616,-0.0310478981616162,0.0857449838383838,0.143217509338384,0.267130074338384,0.281363709338384,0.308190512338384,0.233672603338384,0.224084105338384,0.264150770988384,0.311343055988384,0.240849831988384,0.162990927988384,0.204505688338384,0.127201817838384,0.215116365438384,3085,"DG_s15",14.75,15.456,17.897,17.899,10,10,6,6,2.441,"Right",6,6,0,0,0,0,0,0,0,0,0,0,"10-10",4,4,6,10,6,10
"138",5,"LHB6-LHB7",-0.00213884583333332,0.0925556401666667,0.0820862676666667,0.0388467851666667,-0.0129528278333333,-0.0361450428333333,-0.139842672483333,-0.122589640983333,0.0121498220166667,0.108848137016667,0.286338186666667,0.360532463666667,0.224095616666667,0.0452581986666667,-0.0470623608333333,-0.0823916948333333,-0.00711984783333333,0.00731595916666669,-0.0546908903333333,-0.150621371833333,3085,"DG_s15",14.75,15.456,17.897,17.899,10,10,6,6,2.441,"Right",6,6,0,0,0,0,0,0,0,0,0,0,"10-10",4,4,6,10,6,10
"139",5,"LAM6-LAM7",0.0630364506666667,0.188870380666667,0.147577616166667,-0.0285702338333333,-0.0874962178333333,-0.259672656333333,-0.230844871833333,-0.157665695033333,-0.0656488322933333,-0.0679384018433333,-0.0419714423433333,-0.0634787491433333,-0.122134536883333,-0.148183738833333,-0.271951618333333,-0.318460938333333,-0.321959184833333,-0.274621126833333,-0.216377149833333,-0.00360714983333335,3085,"DG_s15",14.75,15.456,17.897,17.899,10,10,6,6,2.441,"Right",6,6,0,0,0,0,0,0,0,0,0,0,"10-10",4,4,6,10,6,10
"140",5,"LHB5-LHB6",0.104700237520202,0.155754907020202,-0.104206788979798,-0.212059294479798,-0.239684081979798,-0.424092441979798,-0.613060895979798,-0.682735449979798,-0.833753407979798,-0.770342942979798,-0.537168292979798,-0.389278932479798,-0.203944757479798,-0.127757862479798,-0.237185629479798,-0.265816822979798,-0.303454167979798,-0.429271998979798,-0.419382971979798,-0.470690354479798,3085,"DG_s15",14.75,15.456,17.897,17.899,10,10,6,6,2.441,"Right",6,6,0,0,0,0,0,0,0,0,0,0,"10-10",4,4,6,10,6,10
"141",5,"LHB4-LHB5",-0.0276587490824242,-0.0601884477424242,-0.160356969742424,-0.175762306742424,-0.0769820917424242,-0.0112440192424242,-0.112131147242424,-0.0424037352424242,-0.183158742742424,-0.161805337242424,0.0822417127575757,0.129902047757576,0.180601530257576,0.0173185957575758,-0.178607654242424,-0.394831954242424,-0.521435156892424,-0.304123801892424,-0.101087101892424,0.0497057216075758,3085,"DG_s15",14.75,15.456,17.897,17.899,10,10,6,6,2.441,"Right",6,6,0,0,0,0,0,0,0,0,0,0,"10-10",4,4,6,10,6,10
"142",5,"LTT9-LTT10",-0.344994647725253,-0.258066519175252,-0.195819535025253,-0.133483550675253,-0.253412270675253,-0.331033142175253,-0.445397931425253,-0.402346149275253,-0.330226163275253,-0.374693686775252,-0.360520458525252,-0.400178666275253,-0.261996246775253,-0.152191451775253,-0.196278687775253,-0.125866217525253,-0.243285623025253,-0.295942871025253,-0.307504779025253,-0.477381990525253,3085,"DG_s15",14.75,15.456,17.897,17.899,10,10,6,6,2.441,"Right",6,6,0,0,0,0,0,0,0,0,0,0,"10-10",4,4,6,10,6,10
"143",5,"LHH6-LHH7",-0.146953471792929,-0.0402726947929293,-0.0258387297929293,-0.133895628292929,-0.124436806292929,-0.232264453292929,-0.403522953292929,-0.495559702292929,-0.595290352292929,-0.532872450792929,-0.475210701642929,-0.344094341642929,-0.0811170916429293,-0.164636775342929,-0.152844699492929,-0.174463348492929,-0.319551540992929,-0.253700376792929,-0.153938476792929,-0.177867881292929,3085,"DG_s15",14.75,15.456,17.897,17.899,10,10,6,6,2.441,"Right",6,6,0,0,0,0,0,0,0,0,0,0,"10-10",4,4,6,10,6,10
"144",5,"LIP6-LIP7",0.135534718529293,0.0378201017292929,-0.0549999067707071,0.0363418779292929,0.0975930429292929,0.171695233929293,0.249839714429293,0.238919834429293,0.245109764429293,0.330667123429293,0.370146012929293,0.279469424929293,0.157926313929293,0.120537858929293,0.0819152552292929,0.178252893229293,0.303792246029293,0.327007231029293,0.231189814729293,0.135691948229293,3085,"DG_s15",14.75,15.456,17.897,17.899,10,10,6,6,2.441,"Right",6,6,0,0,0,0,0,0,0,0,0,0,"10-10",4,4,6,10,6,10
"145",5,"LIP8-LIP9",-0.266922335406566,-0.0867743366565656,-0.0763332421565656,0.0305256923434343,0.0966437258434343,-0.181820879156566,-0.340161981156566,-0.351350912156566,-0.340400226656566,-0.200814588156566,-0.121265856156566,-0.217021103656566,-0.243617955406566,-0.282359512706566,-0.258091174806566,-0.179964187306566,-0.0910744415565656,-0.111484146256566,-0.190502134156566,-0.158801404156566,3085,"DG_s15",14.75,15.456,17.897,17.899,10,10,6,6,2.441,"Right",6,6,0,0,0,0,0,0,0,0,0,0,"10-10",4,4,6,10,6,10
"146",6,"LAM8-LAM9",0.0496227853161616,0.0795089938161616,0.244983456816162,0.172110700116162,0.0895352974861616,0.145008318986162,-0.0138864955138384,0.00918262848616162,0.00734665061616162,-0.156439054383838,-0.146078999883838,-0.254274598883838,-0.284446677883838,-0.210952653383838,-0.241661070883838,0.0572259291161616,0.0837538501161616,0.0719211510161616,0.240283233516162,0.0562531600161616,3086,"DG_s15",18.9,19.605,22.571,22.573,10,10,8,11,2.966,"Right",8,11,3,0,3,3,3,0,0,0,-3,0,"10-10",2,-1,8,10,11,10
"147",6,"LHB9-LHB10",-0.0114916321060606,-0.0556323276060606,0.0389905828939394,0.158402591893939,0.210827198893939,0.277656442543939,0.330587163543939,0.236873741043939,0.179642029043939,0.129112568893939,0.0348413223939394,0.0890139278939394,0.0617193828939394,-0.00424364960606061,-0.0649148196060606,-0.115319899606061,0.0349374073939394,0.189253307393939,0.457636292393939,0.504935739393939,3086,"DG_s15",18.9,19.605,22.571,22.573,10,10,8,11,2.966,"Right",8,11,3,0,3,3,3,0,0,0,-3,0,"10-10",2,-1,8,10,11,10
"148",6,"LHH4-LHH5",-0.00998967771212122,-0.0105832142121212,0.111356530287879,-0.0135440347121212,-0.0891244127121212,-0.110149461212121,-0.118730951212121,-0.0979607657121212,0.0139727632878788,0.0905100397878788,-0.0489647222121212,-0.00872576271212121,-0.00669269221212121,-0.0467277687121212,0.0474777947878788,0.0647902947878788,0.0157539667878788,0.109609506787879,0.106318720287879,0.130060620287879,3086,"DG_s15",18.9,19.605,22.571,22.573,10,10,8,11,2.966,"Right",8,11,3,0,3,3,3,0,0,0,-3,0,"10-10",2,-1,8,10,11,10
"149",6,"LAM1-LAM2",0.409091760151515,0.554891378651515,0.529153143651515,0.485926962651515,0.225882412651515,-0.0540425873484848,-0.141677349348485,-0.263983983848485,-0.340252683848485,-0.290157953848485,-0.177824841848485,0.0335955636515151,0.127537033651515,0.235720303651515,0.286842153651515,0.261384234651515,0.271525163651515,0.242776013651515,0.190570413651515,0.239367014151515,3086,"DG_s15",18.9,19.605,22.571,22.573,10,10,8,11,2.966,"Right",8,11,3,0,3,3,3,0,0,0,-3,0,"10-10",2,-1,8,10,11,10
"150",6,"LHB8-LHB9",0.556094935333333,0.555778830333333,0.606467881833333,0.593959172833333,0.402082471333333,0.254210881833333,0.245300875333333,0.119687106333333,0.0818671158333333,0.169294712333333,0.0957036499333333,0.161575840933333,0.0999938624333333,0.0961061128833333,0.205847680283333,0.226838901083333,0.314983016583333,0.272502462133333,0.202714781133333,0.217168500333333,3086,"DG_s15",18.9,19.605,22.571,22.573,10,10,8,11,2.966,"Right",8,11,3,0,3,3,3,0,0,0,-3,0,"10-10",2,-1,8,10,11,10
"151",6,"LAM3-LAM4",-0.108336292632323,-0.0146984812323232,-0.153816922732323,-0.278181250732323,-0.376555178732323,-0.410950485132323,-0.282913445632323,-0.269779068132323,-0.304780075632323,-0.338375020732323,-0.394779255782323,-0.328465770282323,-0.302828737532323,-0.364487982532323,-0.259144549982323,-0.417643499982323,-0.432894452732323,-0.345223437732323,-0.468667151732323,-0.370403225732323,3086,"DG_s15",18.9,19.605,22.571,22.573,10,10,8,11,2.966,"Right",8,11,3,0,3,3,3,0,0,0,-3,0,"10-10",2,-1,8,10,11,10
"152",6,"LIP4-LIP5",-0.390735888530303,-0.398147682480303,-0.248368901980303,-0.148391233480303,-0.143943433480303,-0.167930094030303,-0.129893729030303,-0.227177105030303,-0.066626585030303,-0.060495100530303,-0.104986815530303,0.022147738469697,-0.149057481530303,-0.141929675530303,-0.257276023530303,-0.172998570030303,-0.092129450030303,-0.165086631030303,-0.187385583180303,-0.328035020680303,3086,"DG_s15",18.9,19.605,22.571,22.573,10,10,8,11,2.966,"Right",8,11,3,0,3,3,3,0,0,0,-3,0,"10-10",2,-1,8,10,11,10
"153",6,"LIP5-LIP6",-0.252678526306566,-0.217338926306566,-0.0378690138065657,-0.0819666406565657,-0.131540925656566,-0.159618125656566,-0.287966968156566,-0.184806200656566,-0.130734480656566,-0.0849149416565657,-0.0453739501565657,-0.0452480282065657,0.0401862967934343,0.116651722793434,0.163363399293434,0.112560487343434,0.0791441533434343,0.298977938343434,0.270960544343434,0.300686090843434,3086,"DG_s15",18.9,19.605,22.571,22.573,10,10,8,11,2.966,"Right",8,11,3,0,3,3,3,0,0,0,-3,0,"10-10",2,-1,8,10,11,10
"154",6,"LHH5-LHH6",-0.17640322594899,-0.15680647994899,-0.26475497989899,-0.28458328539899,-0.33307132889899,-0.24748193439899,-0.12327505289899,-0.0500771128989899,-0.0152935414489899,-0.0229959024489899,-0.13982410394899,-0.24765022894899,-0.36274539539899,-0.45298813489899,-0.36263643639899,-0.19056499639899,-0.0769835958989899,-0.0132471538989899,-0.15871048239899,-0.29248939139899,3086,"DG_s15",18.9,19.605,22.571,22.573,10,10,8,11,2.966,"Right",8,11,3,0,3,3,3,0,0,0,-3,0,"10-10",2,-1,8,10,11,10
"155",6,"LHB4-LHB5",-0.295405808247475,-0.127897888247475,-0.0762528897474748,0.152413585252525,0.170270890252525,0.0598844652525252,0.0532631602525253,0.117083660252525,0.309744630252525,0.426843665252525,0.290495610252525,0.152786500252525,0.120790755252525,0.0464237802525252,0.0744592402525252,0.0343125557525253,-0.165080214247475,-0.122268442747475,-0.0594722717474747,-0.0110165527974747,3086,"DG_s15",18.9,19.605,22.571,22.573,10,10,8,11,2.966,"Right",8,11,3,0,3,3,3,0,0,0,-3,0,"10-10",2,-1,8,10,11,10
"156",6,"LHH7-LHH8",0.417216472969697,0.423518672969697,0.315815542969697,0.00402649096969696,0.056068256469697,-0.034998810030303,-0.137703385530303,0.060174716469697,-0.028388483530303,-0.042235838530303,0.078102816969697,-0.030743563030303,0.074675940469697,0.229437996969697,0.175286950969697,0.159644192469697,0.073441883619697,-0.017318926380303,-0.00838091938030303,0.014863314119697,3086,"DG_s15",18.9,19.605,22.571,22.573,10,10,8,11,2.966,"Right",8,11,3,0,3,3,3,0,0,0,-3,0,"10-10",2,-1,8,10,11,10
"157",6,"LAM5-LAM6",0.377765643983333,0.413036963833333,0.390717124833333,0.394314901833333,0.243164884833333,0.297059492833333,0.345771343333333,0.339518629333333,0.267789446333333,0.136719390333333,0.0256155103333333,0.000524907833333338,0.118629262833333,0.0707422538333333,0.123842688833333,0.0882598441983333,0.139145687198333,0.321889952198333,0.262226788698333,0.179604822833333,3086,"DG_s15",18.9,19.605,22.571,22.573,10,10,8,11,2.966,"Right",8,11,3,0,3,3,3,0,0,0,-3,0,"10-10",2,-1,8,10,11,10
"158",6,"LAM2-LAM3",0.352129837303535,0.375105200853535,0.253458543353535,0.223350950353535,0.129073850353535,-0.0319589001464646,-0.0363091036464647,-0.0776151991464647,0.0115725058535354,0.180415980853535,0.228455866853535,0.266224455653535,0.272176123653535,0.174200723653535,0.136022289153535,0.146335988853535,0.0651243428535354,0.195252960353535,0.324612069853535,0.502197149853535,3086,"DG_s15",18.9,19.605,22.571,22.573,10,10,8,11,2.966,"Right",8,11,3,0,3,3,3,0,0,0,-3,0,"10-10",2,-1,8,10,11,10
"159",6,"LHB7-LHB8",-0.0252890833141414,-0.0935936899141414,-0.206422789914141,-0.190425312914141,-0.0831773478641414,0.0651079535858586,0.153228990585859,0.0919360329858586,0.0263591329358586,-0.0289546467641414,-0.105336234764141,-0.0514922644141414,0.137492070585859,0.281409348835859,0.304783665835859,0.221048227285859,-0.0282889892141414,-0.251481439214141,-0.336318205214141,-0.392858272914141,3086,"DG_s15",18.9,19.605,22.571,22.573,10,10,8,11,2.966,"Right",8,11,3,0,3,3,3,0,0,0,-3,0,"10-10",2,-1,8,10,11,10
"160",6,"LIP7-LIP8",-0.0286727778212121,0.0393635476787879,-0.0103669976212121,-0.0783655996212121,-0.0759569596212121,-0.177158071621212,-0.150544044121212,-0.0240271756212121,0.0557909693787879,0.180564281378788,0.239437821378788,0.300763522878788,0.188049141878788,0.0330707868787879,-0.00461728627121213,-0.145350001771212,-0.186757058271212,-0.129683147271212,-0.234368774121212,-0.224661517571212,3086,"DG_s15",18.9,19.605,22.571,22.573,10,10,8,11,2.966,"Right",8,11,3,0,3,3,3,0,0,0,-3,0,"10-10",2,-1,8,10,11,10
"161",6,"LHB6-LHB7",0.498871426580808,0.417815719525808,0.439594979525808,0.443756721525808,0.372666471525808,0.393141681980808,0.392169323480808,0.430482329980808,0.303503629980808,0.364471063080808,0.428371036580808,0.495348143080808,0.621544643080808,0.619901044580808,0.491781969580808,0.392088240930808,0.225392090930808,0.0911604544308081,0.0723832644308081,0.0831080773148081,3086,"DG_s15",18.9,19.605,22.571,22.573,10,10,8,11,2.966,"Right",8,11,3,0,3,3,3,0,0,0,-3,0,"10-10",2,-1,8,10,11,10
"162",6,"LIP3-LIP4",0.193142307862121,0.260574381362121,0.230763939712121,0.0847933257121212,0.166204032712121,0.110789443212121,0.0684248122121212,0.0441868622121212,-0.0463999822878788,0.0667627272121212,0.160700692212121,0.346903142212121,0.426287252712121,0.269524082712121,0.153578017712121,0.0399076127121212,-0.0171628062878788,-0.0327870812878788,0.00343516871212121,0.00641033421212123,3086,"DG_s15",18.9,19.605,22.571,22.573,10,10,8,11,2.966,"Right",8,11,3,0,3,3,3,0,0,0,-3,0,"10-10",2,-1,8,10,11,10
"163",6,"LIP2-LIP3",0.157439438707071,0.0595017597070707,0.0612268272070707,-0.0695082182929293,0.00623948420707071,0.0667376987070707,0.0871776237070707,0.122375167707071,0.0374847817070707,0.0340266162070707,0.00266614070707071,-0.0992754137929293,-0.0964016927929293,-0.163957537792929,-0.163658640792929,0.0491302342070707,0.0401757852070707,0.0530411521370707,-0.0122592913629293,-0.0517476768629293,3086,"DG_s15",18.9,19.605,22.571,22.573,10,10,8,11,2.966,"Right",8,11,3,0,3,3,3,0,0,0,-3,0,"10-10",2,-1,8,10,11,10
"164",6,"LTT9-LTT10",0.226904794010101,0.315611529010101,0.335519841010101,0.161593376010101,0.064097098510101,0.097001051010101,0.193053511010101,0.319319668010101,0.410633195510101,0.532248338010101,0.555050582010101,0.445196840010101,0.324693590010101,0.101858740010101,-0.037882098989899,-0.108716148989899,-0.00733538448989901,0.188452465510101,0.306936765510101,0.527497065510101,3086,"DG_s15",18.9,19.605,22.571,22.573,10,10,8,11,2.966,"Right",8,11,3,0,3,3,3,0,0,0,-3,0,"10-10",2,-1,8,10,11,10
"165",6,"LAM4-LAM5",0.074685118560606,0.0817538130606061,-0.0292689099393939,-0.296069454939394,-0.532471964939394,-0.525756985939394,-0.386603635939394,-0.222684619739394,-0.115883770289394,-0.120039527154394,-0.128158052154394,-0.124420808354394,-0.00980430280439396,0.030117226060606,-0.0415977339393939,-0.0843980489393939,-0.174690899439394,-0.194719761939394,-0.246074886939394,-0.292002536939394,3086,"DG_s15",18.9,19.605,22.571,22.573,10,10,8,11,2.966,"Right",8,11,3,0,3,3,3,0,0,0,-3,0,"10-10",2,-1,8,10,11,10
"166",6,"LAM9-LAM10",0.161718837029798,0.166149977829798,0.165190877279798,0.068188860779798,0.042413581779798,0.00550846097979796,-0.015865132020202,0.068772319979798,0.189326099979798,0.263940285479798,0.278571335479798,0.404314383479798,0.444977998979798,0.400601394979798,0.407063091479798,0.276973801979798,0.215848856979798,0.200892878479798,0.291580336979798,0.272330891479798,3086,"DG_s15",18.9,19.605,22.571,22.573,10,10,8,11,2.966,"Right",8,11,3,0,3,3,3,0,0,0,-3,0,"10-10",2,-1,8,10,11,10
"167",6,"LAM6-LAM7",0.259201474863131,0.363312998313131,0.394493764313131,0.432815231313131,0.460476206813131,0.273629971313131,0.233586505313131,0.395383935813131,0.362503446813131,0.334489807313131,0.177295207813131,0.0485004088131313,0.118694320813131,0.191692364713131,0.199069147213131,0.232614909713131,0.242048199213131,0.367860843613131,0.394479054913131,0.352492155913131,3086,"DG_s15",18.9,19.605,22.571,22.573,10,10,8,11,2.966,"Right",8,11,3,0,3,3,3,0,0,0,-3,0,"10-10",2,-1,8,10,11,10
"168",6,"LIP1-LIP2",-0.2179059835,-0.0751857335,0.1594191665,0.1830701655,0.117450449,-0.035158751,-0.180411079,-0.021504228,0.199234512,0.2921540945,0.2587439235,0.0947723055,-0.065750341,-0.0096849235,0.0265951445,0.2322417125,0.2722535205,0.1395535505,0.1660783231,-0.0007643319,3086,"DG_s15",18.9,19.605,22.571,22.573,10,10,8,11,2.966,"Right",8,11,3,0,3,3,3,0,0,0,-3,0,"10-10",2,-1,8,10,11,10
"169",6,"LIP6-LIP7",0.0812375314646465,0.0948322539646465,0.0128664619146465,-0.0688255055853535,0.0122741939146465,0.0937766284146465,0.115240410964646,0.256955448464646,0.189004661964646,0.0700830219646465,0.0415043619646465,-0.0420323880353535,0.0192426234646465,0.130946464464646,0.0553467974646465,0.104589148464646,0.106222246964646,0.168933340964646,0.178893395464646,0.0644263394646465,3086,"DG_s15",18.9,19.605,22.571,22.573,10,10,8,11,2.966,"Right",8,11,3,0,3,3,3,0,0,0,-3,0,"10-10",2,-1,8,10,11,10
"170",6,"LAM7-LAM8",0.31881792389596,0.33307360959596,0.41360531459596,0.31467012459596,0.29711802709596,0.25838159309596,0.15896884404596,0.10090862154596,-0.0349823584540404,-0.0207967259040404,-0.0489902698540404,0.0727608991459596,0.15237731182096,0.10718354757096,0.11001130157096,0.15693267257096,0.10919082739596,0.0683997180959596,-0.0370434229040404,-0.12495685840404,3086,"DG_s15",18.9,19.605,22.571,22.573,10,10,8,11,2.966,"Right",8,11,3,0,3,3,3,0,0,0,-3,0,"10-10",2,-1,8,10,11,10
"171",6,"LIP8-LIP9",-0.598022880257576,-0.576024110757576,-0.684216078257576,-0.646187774507576,-0.593369535007576,-0.566034110007576,-0.538756819507576,-0.559540637757576,-0.522045421757576,-0.539610065757576,-0.437844018757576,-0.351096169007576,-0.328721529507576,-0.294296407507576,-0.310168107507576,-0.358454793757576,-0.391771593757576,-0.366801907257576,-0.253189157257576,-0.140825120757576,3086,"DG_s15",18.9,19.605,22.571,22.573,10,10,8,11,2.966,"Right",8,11,3,0,3,3,3,0,0,0,-3,0,"10-10",2,-1,8,10,11,10
"172",6,"LHH6-LHH7",0.138022175599495,0.201032437449495,0.312255852949495,0.449416065949495,0.465974418949495,0.429196973449495,0.354413085449495,0.405203935449495,0.338038951799495,0.318228519299495,0.352566557299495,0.172944784799495,0.153435111949495,0.289544267949495,0.162801472949495,0.120815145449495,0.084539120449495,-0.0128879490505051,-0.042684699050505,-0.124561649050505,3086,"DG_s15",18.9,19.605,22.571,22.573,10,10,8,11,2.966,"Right",8,11,3,0,3,3,3,0,0,0,-3,0,"10-10",2,-1,8,10,11,10
"173",6,"LHB5-LHB6",0.0806384205260101,-0.14086506947399,-0.27472916497399,-0.36418065497399,-0.43104040689899,-0.26402597339899,-0.10187847289899,-0.0203863078989899,0.00982637710101009,-0.0279870513989899,-0.26425053639899,-0.29096756689899,-0.21779846189899,-0.14751121689899,-0.21281482189899,-0.31191816989899,-0.28074266839899,-0.28710609639899,-0.19320041039899,-0.0275904153989899,3086,"DG_s15",18.9,19.605,22.571,22.573,10,10,8,11,2.966,"Right",8,11,3,0,3,3,3,0,0,0,-3,0,"10-10",2,-1,8,10,11,10
"174",6,"LTT8-LTT9",0.0164338391040404,-0.0063974358959596,-0.00835549889595959,-0.0382667798959596,0.0507781719040404,0.18848185690404,0.24935920540404,0.18107226840404,0.15604159340404,0.13143762340404,0.15976325340404,0.17284741690404,0.0753616419040404,0.0818318069040404,-0.0332521138459596,-0.0464546213459596,0.0778379036540404,0.0894912736540404,0.15072184440404,0.24779772540404,3086,"DG_s15",18.9,19.605,22.571,22.573,10,10,8,11,2.966,"Right",8,11,3,0,3,3,3,0,0,0,-3,0,"10-10",2,-1,8,10,11,10
"175",7,"LHB7-LHB8",-0.487507552818182,-0.597995592818182,-0.663355143818182,-0.529533663818182,-0.398196163818182,-0.273029089818182,-0.141336057818182,-0.134768961468182,0.0520589885318182,0.191149564531818,0.227212679531818,0.229705428181818,-0.0290935103181818,-0.183862167818182,-0.367874372318182,-0.411465699318182,-0.395373796818182,-0.373314939318182,-0.262870603318182,-0.222535748318182,3087,"DG_s15",23.575,24.28,26.332,26.334,28,4,10,10,2.052,"Left",28,4,24,24,0,0,0,-24,0,-24,24,24,"Advent",18,-6,28,10,4,10
"176",7,"LHH7-LHH8",0.0918620090308081,0.127371998530808,0.217596942530808,0.208170732530808,0.256783952580808,0.309744570580808,0.189280990580808,0.0879424280808081,-0.0478118719191919,-0.128699774419192,-0.208287711419192,-0.147918862919192,-0.179698247919192,-0.236605602919192,-0.155259021919192,-0.0383629479191919,0.297007237080808,0.492834387080808,0.456849081580808,0.281784611080808,3087,"DG_s15",23.575,24.28,26.332,26.334,28,4,10,10,2.052,"Left",28,4,24,24,0,0,0,-24,0,-24,24,24,"Advent",18,-6,28,10,4,10
"177",7,"LHB8-LHB9",-0.1707079375,-0.1566592685,-0.241823479,-0.18401914085,-0.0785785055,-0.031831124,0.07067610285,0.0657165396,0.07640530655,0.17792944605,0.2354311352,0.3257713523,0.2997073715,0.2017562399,0.0359254484,-0.0078827231,0.0066486529,0.1229155395,0.374598651,0.4902191225,3087,"DG_s15",23.575,24.28,26.332,26.334,28,4,10,10,2.052,"Left",28,4,24,24,0,0,0,-24,0,-24,24,24,"Advent",18,-6,28,10,4,10
"178",7,"LHB9-LHB10",-0.381947959090909,-0.392017879090909,-0.410987723090909,-0.180687973090909,-0.0943469165909091,0.0774650434090909,0.191068874909091,0.109492504909091,0.0905239044090909,0.0521356414090909,0.135985723909091,0.184930693909091,0.159964276409091,0.0832241564090909,-0.145935238590909,-0.185790665420909,-0.0501576089209091,0.146095114079091,0.233816435079091,0.235582034409091,3087,"DG_s15",23.575,24.28,26.332,26.334,28,4,10,10,2.052,"Left",28,4,24,24,0,0,0,-24,0,-24,24,24,"Advent",18,-6,28,10,4,10
"179",7,"LAM4-LAM5",0.0754636654595959,0.124030365959596,0.179826315959596,-0.00209607384040406,0.010044076159596,-0.00254340784040408,-0.0904957578404041,0.062177131959596,0.025222780959596,0.0330842199595959,-0.00761224824040407,-0.293231398240404,-0.323734911740404,-0.316593251740404,-0.429093443040404,-0.434589693040404,-0.392486414475404,-0.467008074475404,-0.396953830975404,-0.228899515125404,3087,"DG_s15",23.575,24.28,26.332,26.334,28,4,10,10,2.052,"Left",28,4,24,24,0,0,0,-24,0,-24,24,24,"Advent",18,-6,28,10,4,10
"180",7,"LIP7-LIP8",-0.0761023684010101,-0.18043424340101,-0.28510497540101,-0.26933339645101,-0.19816710665101,-0.11253091815101,-0.0147779686510101,0.12299957789899,0.10672744289899,0.16561164089899,0.0369105913989899,-0.17064225860101,-0.29763677360101,-0.43402776010101,-0.33953994010101,-0.20117624010101,-0.0768255491010101,0.0204093858989899,0.0430273813989899,0.0670850313989899,3087,"DG_s15",23.575,24.28,26.332,26.334,28,4,10,10,2.052,"Left",28,4,24,24,0,0,0,-24,0,-24,24,24,"Advent",18,-6,28,10,4,10
"181",7,"LHH6-LHH7",0.358321506313131,0.495159085313131,0.546976565213131,0.402821612713131,0.365903062713131,0.254185707213131,0.171121190313131,0.174584662313131,0.242303714813131,0.292782935313131,0.351138882313131,0.364393052663131,0.198757598163131,0.0355524331631313,-0.0663575183368687,0.0193284418131313,0.128516393813131,0.267505383813131,0.312904104313131,0.263205769313131,3087,"DG_s15",23.575,24.28,26.332,26.334,28,4,10,10,2.052,"Left",28,4,24,24,0,0,0,-24,0,-24,24,24,"Advent",18,-6,28,10,4,10
"182",7,"LAM3-LAM4",0.629547892171717,0.567340581921717,0.600456681921717,0.422584931921717,0.372869011921717,0.427212672171717,0.248290460671717,0.102533660671717,-0.0644883893282828,-0.156981459328283,-0.0874583478282828,0.0452430971717172,0.0506142411717172,-0.0402832888282828,-0.216270738828283,-0.322005328828283,-0.243484997828283,-0.143563848328283,-0.0375031273282828,0.155641217671717,3087,"DG_s15",23.575,24.28,26.332,26.334,28,4,10,10,2.052,"Left",28,4,24,24,0,0,0,-24,0,-24,24,24,"Advent",18,-6,28,10,4,10
"183",7,"LTT9-LTT10",0.167979279227273,0.101946682227273,0.0411508427272727,0.0290605806772727,0.0123675237772727,0.0181421587772727,0.0315383963272727,-0.0669389916227273,-0.118420162222727,-0.156604937222727,-0.187266868072727,0.0285564819272727,0.245443931927273,0.367139519427273,0.445922322727273,0.245582442727273,0.0313655427272727,0.0499659767272727,0.0431095342272727,0.00153881422727273,3087,"DG_s15",23.575,24.28,26.332,26.334,28,4,10,10,2.052,"Left",28,4,24,24,0,0,0,-24,0,-24,24,24,"Advent",18,-6,28,10,4,10
"184",7,"LAM2-LAM3",-0.407385720454545,-0.358878651954545,-0.496278376954545,-0.513685221954545,-0.459196728454545,-0.325931295454545,-0.337263402954545,-0.492048602954545,-0.518658803454545,-0.607007900454545,-0.506139337954545,-0.443087328954545,-0.568687553454545,-0.678552956454545,-0.907804186454545,-0.959259425454545,-0.891988930454545,-0.894281730454545,-0.772244337954545,-0.659472407954545,3087,"DG_s15",23.575,24.28,26.332,26.334,28,4,10,10,2.052,"Left",28,4,24,24,0,0,0,-24,0,-24,24,24,"Advent",18,-6,28,10,4,10
"185",7,"LAM1-LAM2",-0.0333453207075758,-0.108486497257576,0.0358309147424243,-0.0706250352575757,-0.0121189352575757,0.100046833742424,0.00743851659242423,-0.143233733407576,-0.322946548407576,-0.301045432907576,-0.234398548257576,-0.165646474807576,-0.179832109807576,-0.307859004807576,-0.453247342307576,-0.488061690757576,-0.460893984507576,-0.281272063507576,-0.221451584507576,-0.186290439007576,3087,"DG_s15",23.575,24.28,26.332,26.334,28,4,10,10,2.052,"Left",28,4,24,24,0,0,0,-24,0,-24,24,24,"Advent",18,-6,28,10,4,10
"186",7,"LAM7-LAM8",0.185630205822222,0.156440405822222,0.116863194722222,0.153104212222222,0.229713517722222,0.0173363927222222,0.0567635438822222,0.138506815482222,0.0761257904822222,0.193122891032222,0.224041191872222,0.157536359772222,0.119407700772222,-0.0260310747777778,-0.205086774777778,-0.173863538777778,-0.169494415777778,0.0509663842222222,0.278731134222222,0.270105265222222,3087,"DG_s15",23.575,24.28,26.332,26.334,28,4,10,10,2.052,"Left",28,4,24,24,0,0,0,-24,0,-24,24,24,"Advent",18,-6,28,10,4,10
"187",7,"LAM8-LAM9",-0.277414177332828,-0.129736462332828,0.0398553537171717,-0.0271889672828283,0.00679402171717172,-0.0288994697828283,-0.0716200272828283,0.00622685871717171,0.199650577717172,0.293100019217172,0.468357876717172,0.459758617717172,0.292656944217172,0.115717583717172,0.0468598987171717,0.142700002717172,0.192962061217172,0.411863871717172,0.363618501717172,0.267127684867172,3087,"DG_s15",23.575,24.28,26.332,26.334,28,4,10,10,2.052,"Left",28,4,24,24,0,0,0,-24,0,-24,24,24,"Advent",18,-6,28,10,4,10
"188",7,"LAM9-LAM10",0.116511159025253,0.156878898525253,0.109259586525253,0.193820234525253,0.194470665525253,0.168086797525253,0.183620239525253,0.235363906525253,0.312034490525253,0.336422808500253,0.334404758500253,0.331872090500253,0.223838545500253,0.0862524795252525,0.0158244810252525,0.0795002090252525,0.123322780525253,0.261107365775253,0.339138264275253,0.255789253275253,3087,"DG_s15",23.575,24.28,26.332,26.334,28,4,10,10,2.052,"Left",28,4,24,24,0,0,0,-24,0,-24,24,24,"Advent",18,-6,28,10,4,10
"189",7,"LIP1-LIP2",0.48934874440404,0.36458974440404,0.20068147075404,0.26119635375404,0.23866713375404,0.0726480632540404,0.0618513894040404,-0.0340596155959596,-0.10128059709596,-0.0427638485959596,-0.12717245259596,-0.0634783300959596,-0.0906274845959596,-0.0300126688959596,-0.0551350488959596,-0.18326002139596,-0.16027488508596,-0.18591390378596,-0.0414802992859596,0.0955865757140404,3087,"DG_s15",23.575,24.28,26.332,26.334,28,4,10,10,2.052,"Left",28,4,24,24,0,0,0,-24,0,-24,24,24,"Advent",18,-6,28,10,4,10
"190",7,"LIP5-LIP6",-0.194171267786869,-0.132959560336869,-0.186061879036869,-0.165137549736869,-0.0239761647368687,-0.0253834015318687,0.0251926591681313,0.307550599868131,0.559578819868131,0.739768795213131,0.812690191313131,0.503324537313131,0.200501639813131,0.0275508168131313,-0.0641287111868687,-0.0627663496868687,-0.0843122062868687,-0.118740123286869,-0.0473457452868687,0.0439209472131313,3087,"DG_s15",23.575,24.28,26.332,26.334,28,4,10,10,2.052,"Left",28,4,24,24,0,0,0,-24,0,-24,24,24,"Advent",18,-6,28,10,4,10
"191",7,"LHH5-LHH6",-0.00345553505555554,-0.156190551055556,-0.261584715805556,-0.448408205805556,-0.456876832805556,-0.459209117305556,-0.533999652555556,-0.407828543055556,-0.331286604855556,-0.298806147855556,-0.230890125355556,-0.206744236505556,-0.196129617205556,-0.167699827005556,0.00304950049444447,0.00105467914444446,-0.133086681855556,-0.246917927055556,-0.448600570555556,-0.482929576555556,3087,"DG_s15",23.575,24.28,26.332,26.334,28,4,10,10,2.052,"Left",28,4,24,24,0,0,0,-24,0,-24,24,24,"Advent",18,-6,28,10,4,10
"192",7,"LAM5-LAM6",0.25832147344596,0.16536738894596,-0.0153521079040404,-0.17927273790404,-0.22315104040404,-0.17447649090404,-0.11912701410404,-0.0318579075370404,0.0713462463629596,0.18392968186296,0.20881495006296,0.26959876599596,0.33026873709596,0.25292524664596,0.32427950664596,0.19768253764596,0.0479297451459596,0.0222421965959596,0.0259937865959596,0.0947618975959596,3087,"DG_s15",23.575,24.28,26.332,26.334,28,4,10,10,2.052,"Left",28,4,24,24,0,0,0,-24,0,-24,24,24,"Advent",18,-6,28,10,4,10
"193",7,"LHB6-LHB7",-0.0436321053181818,0.00705350468181817,0.166238164181818,0.164507991681818,0.0117585906818182,-0.181159194818182,-0.301934184318182,-0.349034616818182,-0.238275129818182,-0.0412730943181818,0.0129543951818182,0.0810470810818182,0.0264450640818182,-0.0981780059181818,-0.171755961918182,-0.0902776628181818,0.115100467181818,0.116661966131818,0.113613338631818,0.142363738631818,3087,"DG_s15",23.575,24.28,26.332,26.334,28,4,10,10,2.052,"Left",28,4,24,24,0,0,0,-24,0,-24,24,24,"Advent",18,-6,28,10,4,10
"194",7,"LHH4-LHH5",-0.095105678509596,-0.114157465959596,-0.171070185459596,-0.280547838659596,-0.344890048659596,-0.379859033659596,-0.480492429159596,-0.609742125959596,-0.630350660459596,-0.548777448459596,-0.366410647959596,-0.238701459459596,-0.297203644959596,-0.344504002959596,-0.288737873459596,-0.388490988459596,-0.210945185959596,-0.120844016959596,-0.169113146959596,0.047660629540404,3087,"DG_s15",23.575,24.28,26.332,26.334,28,4,10,10,2.052,"Left",28,4,24,24,0,0,0,-24,0,-24,24,24,"Advent",18,-6,28,10,4,10
