"","trial","electrodes","pre_13","pre_12","pre_11","pre_10","pre_9","pre_8","pre_7","pre_6","pre_5","pre_4","pre_3","pre_2","pre_1","post_1","post_2","post_3","post_4","post_5","post_6","post_7","X","SID","newround_time","choice_time","buttonpress_time","reveal_time","self_payoff","other_payoff","self_foregone","other_foregone","RT","side_chosen","self_var_payoff","other_var_payoff","ineq_var_abs","ineq_choice_abs","ineq_foregone_abs","ineq_foregone","ineq_disadvent","ineq_advent","ineq_disadvent_choice","ineq_advent_choice","ineq_var","ineq_choice","chose_equality","self_diff","other_diff","L_self","R_self","L_other","R_other"
"1",1,"LAM1-LAM2",0.0294536805151515,0.0867091905151515,0.0174969667651515,0.00768759076515151,0.0659099542651515,0.0193939632651515,0.00886232501515151,-0.0314921619848485,0.0187846391651515,0.00139286766515152,0.0344744331651515,0.0852707591651515,-0.0135382679848485,-0.0468822499848485,0.0752850565151515,0.0416264345151515,0.163729248015152,0.149682862015152,-0.0171443879848485,-0.0247945201848485,3081,"DG_s15",-0.702,0.00200000000007,2.082,2.084,10,10,6,6,2.08,"Left",6,6,0,0,0,0,0,0,0,0,0,0,"10-10",4,4,10,6,10,6
"2",1,"LHH5-LHH6",0.114736587762626,0.0948674542626263,0.0718503842626263,0.0601137207626263,0.0196015472626263,0.166591410762626,0.264156419262626,0.174396270762626,0.171440170762626,0.0321251867626263,-0.0733038332373737,0.0315589932626263,-0.00692785823737373,-0.0556262392373737,-0.117802549237374,-0.0806459657373737,0.0594205522626263,0.177592837262626,0.254374397262626,0.185086373262626,3081,"DG_s15",-0.702,0.00200000000007,2.082,2.084,10,10,6,6,2.08,"Left",6,6,0,0,0,0,0,0,0,0,0,0,"10-10",4,4,10,6,10,6
"3",1,"LAM6-LAM7",0.214202563050505,0.125610417750505,0.204554008750505,0.133584379750505,0.165057994750505,0.172596357550505,0.023606575550505,0.00540598055050505,-0.087254635449495,-0.082075697949495,0.0188509890505051,0.0272993655505051,0.00353832355050505,0.076075114050505,0.199756329050505,0.229587650550505,0.323753178550505,0.290896704550505,0.187198213550505,0.210115073050505,3081,"DG_s15",-0.702,0.00200000000007,2.082,2.084,10,10,6,6,2.08,"Left",6,6,0,0,0,0,0,0,0,0,0,0,"10-10",4,4,10,6,10,6
"4",1,"LAM7-LAM8",0.0965571441959596,0.0306663091959596,-0.0342966488040404,-0.00762749282904041,-0.10016814782904,-0.11389947682904,-0.0823701418290404,-0.21930078440404,-0.13088657940404,-0.17176925890404,-0.0382137239040404,0.0987185410959596,-0.0138003579040404,0.0686216679959596,0.0507167029959596,-0.0318351835040404,-0.0629379405040404,-0.15428354290404,-0.25276436090404,-0.23703854340404,3081,"DG_s15",-0.702,0.00200000000007,2.082,2.084,10,10,6,6,2.08,"Left",6,6,0,0,0,0,0,0,0,0,0,0,"10-10",4,4,10,6,10,6
"5",1,"LAM2-LAM3",0.0753821572424243,0.114196690742424,-0.00240560475757579,-0.0430883547575758,-0.133160076257576,-0.264286221257576,-0.403331555257576,-0.309555519707576,-0.177087469707576,-0.236028390707576,-0.0960825612075758,-0.247081871757576,-0.481978316757576,-0.317585943257576,-0.331099064757576,-0.257142820257576,-0.0216711842575758,-0.128164622757576,-0.208171568257576,-0.177094140757576,3081,"DG_s15",-0.702,0.00200000000007,2.082,2.084,10,10,6,6,2.08,"Left",6,6,0,0,0,0,0,0,0,0,0,0,"10-10",4,4,10,6,10,6
"6",1,"LHH6-LHH7",-0.18080832575101,-0.22209029075101,-0.34400332125101,-0.25098310060101,-0.15315757410101,-0.10896451560101,0.0684642648989899,0.0309639098989899,0.0823057418989899,0.0598097123989899,-0.00837234460101011,-0.0575018276010101,-0.18571495610101,-0.18735225180101,-0.21433876780101,-0.13369878480101,0.0237221351989899,0.0096276018989899,0.0925562748989899,0.0247387898989899,3081,"DG_s15",-0.702,0.00200000000007,2.082,2.084,10,10,6,6,2.08,"Left",6,6,0,0,0,0,0,0,0,0,0,0,"10-10",4,4,10,6,10,6
"7",1,"LAM3-LAM4",-0.109645051207071,-0.0962782462070707,-0.0255960682070707,-0.153048876207071,-0.228634171207071,-0.262521894207071,-0.315652298707071,-0.257254213707071,-0.177531899707071,-0.234257091707071,-0.129163805707071,-0.115910985707071,-0.181359040207071,-0.0939726512070707,-0.124194268707071,-0.215282411407071,-0.164322285907071,-0.213754844407071,-0.287427569507071,-0.198032940307071,3081,"DG_s15",-0.702,0.00200000000007,2.082,2.084,10,10,6,6,2.08,"Left",6,6,0,0,0,0,0,0,0,0,0,0,"10-10",4,4,10,6,10,6
"8",1,"LHH7-LHH8",0.126730673767677,0.0845023022676768,-0.00260565823232323,0.102710248267677,0.105027900267677,0.167834003267677,0.299459682267677,0.248216233767677,0.320815235267677,0.295418628867677,0.394865189867677,0.306904529867677,0.210967884867677,0.119871253767677,-0.0175707612323232,-0.00941167773232321,0.120582607267677,0.321311489767677,0.393231714767677,0.405042104767677,3081,"DG_s15",-0.702,0.00200000000007,2.082,2.084,10,10,6,6,2.08,"Left",6,6,0,0,0,0,0,0,0,0,0,0,"10-10",4,4,10,6,10,6
"9",1,"LIP5-LIP6",0.496305947,0.3984671881,0.3077405581,0.1909055131,-0.0097068869,0.026119883,0.092974898,0.609092563,0.770728947,0.665233236,0.5328976635,0.023375666,0.032244851,0.186089381,0.2274976325,0.34487884,0.339407723,0.2971215585,0.15886802178,0.06431105178,3081,"DG_s15",-0.702,0.00200000000007,2.082,2.084,10,10,6,6,2.08,"Left",6,6,0,0,0,0,0,0,0,0,0,0,"10-10",4,4,10,6,10,6
"10",1,"LAM4-LAM5",0.120639052724242,0.157494259574242,0.246739290774242,0.179381167774242,0.124839681274242,0.158474380424242,0.0298475789242424,0.0304181244242424,-0.0136767645757576,0.0634715503242424,0.0712282323242424,0.0899518883242424,0.126512917324242,0.158327193924242,0.225993213424242,0.290190719924242,0.316536359924242,0.375908047424242,0.339513414224242,0.215221229224242,3081,"DG_s15",-0.702,0.00200000000007,2.082,2.084,10,10,6,6,2.08,"Left",6,6,0,0,0,0,0,0,0,0,0,0,"10-10",4,4,10,6,10,6
"11",1,"LIP1-LIP2",0.159493060191919,0.154848874291919,0.179180251791919,0.232634619291919,0.345398751291919,0.337067997191919,0.314608167291919,0.199443818291919,0.126298521791919,0.238863148691919,0.359432903841919,0.470200473841919,0.531577913841919,0.449253215441919,0.258055581691919,0.247955343191919,0.221795797191919,0.285298655691919,0.351763295691919,0.356502697691919,3081,"DG_s15",-0.702,0.00200000000007,2.082,2.084,10,10,6,6,2.08,"Left",6,6,0,0,0,0,0,0,0,0,0,0,"10-10",4,4,10,6,10,6
"12",1,"LHB4-LHB5",-0.101593034969697,0.110684452530303,0.094172165530303,0.025098583030303,0.00560691353030301,-0.174906468969697,-0.170284297469697,-0.076983261469697,-0.096423640469697,-0.040681957969697,-0.028813139469697,-0.127149917969697,-0.155825514969697,-0.186321073069697,-0.112378458069697,-0.056224327369697,-0.00689651286969697,-0.021049170269697,-0.093898773369697,-0.125833269069697,3081,"DG_s15",-0.702,0.00200000000007,2.082,2.084,10,10,6,6,2.08,"Left",6,6,0,0,0,0,0,0,0,0,0,0,"10-10",4,4,10,6,10,6
"13",1,"LAM5-LAM6",0.15318679009596,-0.0405169404040404,-0.16247488540404,-0.17759257340404,-0.17629874040404,-0.0715926474040404,-0.0975868574040404,-0.0754271174040404,-0.0201747799040404,0.0452063020959596,0.12396085359596,0.13727028309596,0.17842544559596,0.21650781559596,0.40736746409596,0.42459178509596,0.35655362059596,0.26329194559596,0.0846338705959596,0.0535550150959596,3081,"DG_s15",-0.702,0.00200000000007,2.082,2.084,10,10,6,6,2.08,"Left",6,6,0,0,0,0,0,0,0,0,0,0,"10-10",4,4,10,6,10,6
"14",1,"LIP2-LIP3",0.0236200629040404,-0.0835625810959596,0.0319794279040404,0.0568852944040404,0.18049130940404,0.27497647140404,0.38445163140404,0.40913385990404,0.37667509240404,0.32538900040404,0.16721222040404,0.11666091140404,0.0235346804040404,0.11158867790404,0.0972248394040404,0.11535726390404,0.15716286400404,0.0691980995040404,0.0739213080040404,0.0902601901540404,3081,"DG_s15",-0.702,0.00200000000007,2.082,2.084,10,10,6,6,2.08,"Left",6,6,0,0,0,0,0,0,0,0,0,0,"10-10",4,4,10,6,10,6
"15",1,"LHH4-LHH5",0.143279427686869,0.122991467186869,0.140174577186869,0.194540321686869,0.0651665786868687,0.0867878586868687,-0.00102391531313131,-0.0509984398131313,-0.144896090313131,-0.122178497313131,0.00900262168686869,-0.182584978313131,-0.169799699813131,-0.228786638313131,-0.225441098313131,-0.118578750813131,0.000590822686868692,0.0898397821868687,-0.0295305553131313,-0.0301736218131313,3081,"DG_s15",-0.702,0.00200000000007,2.082,2.084,10,10,6,6,2.08,"Left",6,6,0,0,0,0,0,0,0,0,0,0,"10-10",4,4,10,6,10,6
"16",1,"LHB5-LHB6",0.128441105858586,0.0482145618585859,-0.0437886691414141,-0.0783421996414141,-0.0940780696414141,0.0343935993585859,0.145083843858586,0.141431524358586,0.304093359358586,0.237534876658586,0.132337561158586,0.0763138611585859,-0.133342023841414,-0.0632296645914141,-0.0269657325914141,-0.0998028525914141,-0.126757019941414,-0.270326380491414,-0.200591167491414,-0.152137332491414,3081,"DG_s15",-0.702,0.00200000000007,2.082,2.084,10,10,6,6,2.08,"Left",6,6,0,0,0,0,0,0,0,0,0,0,"10-10",4,4,10,6,10,6
"17",1,"LHB6-LHB7",0.00497748355030303,-0.016290256969697,-0.086501400669697,-0.174998598669697,-0.185720095169697,-0.169900192169697,-0.039838843469697,0.126896259530303,0.167340476030303,0.143863725530303,0.046218863980303,-0.090809064269697,-0.210800337769697,-0.286223860269697,-0.354866753719697,-0.248779985469697,-0.254560706469697,-0.121207495719697,-0.016671572719697,-0.088668407719697,3081,"DG_s15",-0.702,0.00200000000007,2.082,2.084,10,10,6,6,2.08,"Left",6,6,0,0,0,0,0,0,0,0,0,0,"10-10",4,4,10,6,10,6
"18",1,"LIP4-LIP5",-0.112434961459596,-0.165478154459596,-0.250631755459596,-0.314134116459596,-0.253710089959596,-0.221724227459596,-0.199322284909596,-0.239796316909596,-0.186339683409596,-0.107152119909596,-0.072513584459596,0.00825338504040404,0.055329440040404,0.022376128540404,-0.072844141459596,-0.177899927959596,-0.201906772959596,-0.256762897959596,-0.135170812959596,-0.00226006645959598,3081,"DG_s15",-0.702,0.00200000000007,2.082,2.084,10,10,6,6,2.08,"Left",6,6,0,0,0,0,0,0,0,0,0,0,"10-10",4,4,10,6,10,6
"19",1,"LAM9-LAM10",0.103860527020202,0.180526169520202,0.413794576520202,0.445554781520202,0.400395150020202,0.429630380020202,0.286738256420202,0.329254018920202,0.277013993920202,0.224913566420202,0.293636710020202,0.331916308520202,0.400096873520202,0.396549143520202,0.422141273520202,0.380110689520202,0.346483900020202,0.351378762020202,0.236411471520202,0.243299169520202,3081,"DG_s15",-0.702,0.00200000000007,2.082,2.084,10,10,6,6,2.08,"Left",6,6,0,0,0,0,0,0,0,0,0,0,"10-10",4,4,10,6,10,6
"20",1,"LHB7-LHB8",-0.214673631040404,-0.146815403540404,-0.084278602540404,-0.140215907040404,-0.163280129040404,-0.100399171540404,-0.184628574040404,-0.208104131040404,-0.138061646040404,-0.151432351040404,-0.142155242040404,-0.145077513540404,-0.099180581540404,-0.054930053540404,0.00480478995959599,0.265860837959596,0.160507815959596,0.070281965959596,0.056895590959596,-0.189101989040404,3081,"DG_s15",-0.702,0.00200000000007,2.082,2.084,10,10,6,6,2.08,"Left",6,6,0,0,0,0,0,0,0,0,0,0,"10-10",4,4,10,6,10,6
"21",1,"LAM8-LAM9",-0.209748928222222,-0.278576141222222,-0.145666879222222,-0.137880478722222,-0.0254133022222222,0.0479036877777778,-0.0620971672222222,-0.0151688882222222,0.0869210067777778,-0.00107705322222221,-0.0105127597222222,0.173582831277778,0.0836061817777778,0.183026026777778,0.301918478277778,0.0626177392777778,0.0896377287777778,-0.0562985362222222,-0.226663855722222,-0.267470684222222,3081,"DG_s15",-0.702,0.00200000000007,2.082,2.084,10,10,6,6,2.08,"Left",6,6,0,0,0,0,0,0,0,0,0,0,"10-10",4,4,10,6,10,6
"22",1,"LIP7-LIP8",0.279708972651515,0.115354872651515,0.0841755976515152,0.0248917111515152,0.0612458836515152,0.0672276721515151,0.0960248286515152,-0.0414379988484848,-0.0138291438484849,-0.0666863073484849,-0.0849903798484848,-0.0491596273484848,-0.0330200923484848,0.0405588506515152,-0.00471092984848485,-0.0245295053484848,-0.00818763634848485,0.0452557879515152,0.103293241451515,-0.0396494580484848,3081,"DG_s15",-0.702,0.00200000000007,2.082,2.084,10,10,6,6,2.08,"Left",6,6,0,0,0,0,0,0,0,0,0,0,"10-10",4,4,10,6,10,6
"23",1,"LTT8-LTT9",-0.0225361753737374,-0.00296044487373738,-0.0347008948737374,-0.148165963223737,-0.122702427723737,-0.0976345727237374,-0.165654487723737,-0.173800959373737,-0.208811750373737,-0.289433542373737,-0.199880307373737,-0.169376158373737,-0.222501586873737,-0.222703146373737,-0.281960318373737,-0.278475085873737,-0.174361070873737,-0.193851832823737,-0.122907278823737,-0.0388156618237374,3081,"DG_s15",-0.702,0.00200000000007,2.082,2.084,10,10,6,6,2.08,"Left",6,6,0,0,0,0,0,0,0,0,0,0,"10-10",4,4,10,6,10,6
"24",1,"LIP6-LIP7",0.347127817030303,0.354942417030303,0.350353021530303,0.224359096030303,0.139852435030303,0.045734228080303,0.088016888080303,0.526958088580303,0.568264062580303,0.579665440530303,0.564174138530303,0.197020807530303,0.158905151030303,0.103616805030303,0.014253495530303,-0.063568322994697,-0.062458075994697,0.000878109505303031,-0.026421580494697,-0.050643900969697,3081,"DG_s15",-0.702,0.00200000000007,2.082,2.084,10,10,6,6,2.08,"Left",6,6,0,0,0,0,0,0,0,0,0,0,"10-10",4,4,10,6,10,6
"25",1,"LIP8-LIP9",0.22824431749495,0.38111622449495,0.396247137994949,0.311257286494949,0.28821723999495,0.219559782994949,0.19403864549495,0.179728850494949,0.20876824099495,0.240713205994949,0.28044210999495,0.439506594994949,0.506412684494949,0.510080794494949,0.59099065099495,0.447876890994949,0.48881647099495,0.443779825994949,0.30521358339495,0.323407418394949,3081,"DG_s15",-0.702,0.00200000000007,2.082,2.084,10,10,6,6,2.08,"Left",6,6,0,0,0,0,0,0,0,0,0,0,"10-10",4,4,10,6,10,6
"26",1,"LTT9-LTT10",-0.118341095439394,-0.253881735439394,-0.305474547439394,-0.291058030439394,-0.243439438939394,-0.131061173939394,-0.0935567365393939,-0.0758633265393939,-0.0174409915393939,-0.0633109852393939,-0.0354451201393939,-0.0529857996393939,-0.114667479139394,-0.0244444104393939,0.0742684290606061,0.137161098060606,0.186374836060606,0.127387040810606,0.00391085881060607,-0.117421101189394,3081,"DG_s15",-0.702,0.00200000000007,2.082,2.084,10,10,6,6,2.08,"Left",6,6,0,0,0,0,0,0,0,0,0,0,"10-10",4,4,10,6,10,6
"27",1,"LHB9-LHB10",-0.235595248646465,-0.164000398646465,-0.179621954646465,-0.0622199571464647,-0.126011202696465,-0.305649619696465,-0.466048014696465,-0.482308010696465,-0.467488403196465,-0.481168397696465,-0.267231657696465,-0.210789604196465,-0.183497442766465,-0.0509116537664647,-0.111071693766465,-0.253922882266465,-0.268104333646465,-0.369172149646465,-0.335637470796465,-0.348989256946465,3081,"DG_s15",-0.702,0.00200000000007,2.082,2.084,10,10,6,6,2.08,"Left",6,6,0,0,0,0,0,0,0,0,0,0,"10-10",4,4,10,6,10,6
"28",1,"LHB8-LHB9",0.242645784827828,0.340521527232828,0.333797164732828,0.284205239282828,0.190832822182828,0.0401971396828283,-0.0873909128171717,-0.150464861317172,-0.139262258717172,-0.152184279717172,0.00534090528282828,0.145836605782828,0.143791268782828,0.287592522282828,0.316166917282828,0.303197646782828,0.408127798282828,0.234932423282828,0.155471108282828,0.110155549282828,3081,"DG_s15",-0.702,0.00200000000007,2.082,2.084,10,10,6,6,2.08,"Left",6,6,0,0,0,0,0,0,0,0,0,0,"10-10",4,4,10,6,10,6
"29",1,"LIP3-LIP4",-0.348162457107071,-0.333752850107071,-0.313233186707071,-0.263133826207071,-0.187938341207071,-0.00621069820707071,0.0368197652929293,0.131610739292929,0.133951027292929,0.0954002022929293,0.0485351427929293,-0.0140424497070707,-0.105163553707071,-0.210201383707071,-0.228140826707071,-0.240972919657071,-0.118586228657071,-0.0327220536570707,0.0117883438429293,0.0312634412929293,3081,"DG_s15",-0.702,0.00200000000007,2.082,2.084,10,10,6,6,2.08,"Left",6,6,0,0,0,0,0,0,0,0,0,0,"10-10",4,4,10,6,10,6
"30",2,"LIP1-LIP2",0.0270495354040404,0.0163989829040404,0.20516543790404,0.16534030090404,0.21071891790404,0.19180213840404,0.0492607509040404,0.0451535434040404,0.0925875189040404,0.25970566390404,0.29997194940404,0.24079226195404,0.14023456845404,-0.0605626415459596,-0.19752936754596,-0.17748535009596,-0.19016379209596,-0.16709572609596,-0.0488130230959596,-0.0808504075959596,3082,"DG_s15",3.085,3.791,6.023,6.025,18,18,10,10,2.232,"Right",18,18,0,0,0,0,0,0,0,0,0,0,"Equal",8,8,10,18,10,18
"31",2,"LHH7-LHH8",-0.148020219752525,-0.0695460822525252,-0.139100389002525,-0.139229377002525,-0.0735842220025252,-0.134415113002525,-0.189257088252525,-0.162110612252525,-0.140023936252525,-0.127662901252525,-0.125981121252525,-0.187388809252525,-0.229480615252525,-0.224742750252525,-0.134753392752525,-0.162341647252525,-0.00358253725252525,0.0198762822474748,0.0624707197474748,0.0397991542474748,3082,"DG_s15",3.085,3.791,6.023,6.025,18,18,10,10,2.232,"Right",18,18,0,0,0,0,0,0,0,0,0,0,"Equal",8,8,10,18,10,18
"32",2,"LIP4-LIP5",-0.293233244565657,-0.246127081565657,-0.260378470065657,-0.220824483065657,-0.177322863565657,-0.113168291565657,-0.0672285765656566,0.0509629500443434,-0.0788643249556566,-0.167839675955657,-0.138116880955657,-0.333080967565657,-0.216482790565657,-0.360652444565657,-0.451165028565657,-0.426021250565657,-0.329280732565657,-0.303528397565657,-0.220030228565657,-0.143734068065657,3082,"DG_s15",3.085,3.791,6.023,6.025,18,18,10,10,2.232,"Right",18,18,0,0,0,0,0,0,0,0,0,0,"Equal",8,8,10,18,10,18
"33",2,"LHH5-LHH6",0.192288738921717,0.147298990921717,0.177842217171717,0.191190682171717,0.0421721271717172,-0.0164674548282828,0.0398559996717172,-0.0541373343782828,-0.0132887043782828,-0.00204855937828283,0.00534840862171717,0.00890525267171716,-0.0457871348282828,-0.0846066378282828,-0.136719595328283,-0.244295244328283,-0.184825374328283,-0.151262686828283,-0.148995722828283,-0.0921426287282828,3082,"DG_s15",3.085,3.791,6.023,6.025,18,18,10,10,2.232,"Right",18,18,0,0,0,0,0,0,0,0,0,0,"Equal",8,8,10,18,10,18
"34",2,"LAM1-LAM2",0.19450653230303,0.16266527230303,-0.0195997741969697,-0.0443107391969697,0.0448316793030303,0.12473068930303,0.16214183830303,0.17725353430303,0.0875395238030303,-0.0136956711969697,-0.0361268076969697,0.00803076280303031,0.0743058083030303,0.0446729283030303,0.16864256230303,0.0789256183030303,-0.0721455616969697,-0.0664580271969697,-0.22722870469697,-0.29283363469697,3082,"DG_s15",3.085,3.791,6.023,6.025,18,18,10,10,2.232,"Right",18,18,0,0,0,0,0,0,0,0,0,0,"Equal",8,8,10,18,10,18
"35",2,"LIP7-LIP8",-0.372202185829293,-0.355161598829293,-0.339809350829293,-0.322614289479293,-0.409304504429293,-0.457345225829293,-0.491409253829293,-0.448276435329293,-0.375282768829293,-0.282217346429293,-0.250066316979293,-0.331555671979293,-0.384815923479293,-0.329059669479293,-0.356642098929293,-0.348484468929293,-0.332317699429293,-0.394056960929293,-0.416773010929293,-0.511120041929293,3082,"DG_s15",3.085,3.791,6.023,6.025,18,18,10,10,2.232,"Right",18,18,0,0,0,0,0,0,0,0,0,0,"Equal",8,8,10,18,10,18
"36",2,"LIP2-LIP3",0.167749857959596,0.173490275459596,0.192034259759596,0.101843758609596,0.273176690609596,0.382198242609596,0.387597728309596,0.364924224459596,0.306154635959596,0.290844310959596,0.289165045959596,0.330716290959596,0.279991898459596,0.141962525959596,0.0793924484595959,0.0360478789595959,0.044706416459596,0.0591859657595959,0.153603872259596,0.108982016759596,3082,"DG_s15",3.085,3.791,6.023,6.025,18,18,10,10,2.232,"Right",18,18,0,0,0,0,0,0,0,0,0,0,"Equal",8,8,10,18,10,18
"37",2,"LAM7-LAM8",-0.0740788244343434,-0.0269973394343434,0.0445007685656566,0.0826529635656566,0.172480182565657,0.164935070065657,0.0615573585656566,0.00131273756565657,-0.181004355934343,-0.198644811434343,-0.155997320434343,-0.0805221554343434,0.00283756256565657,-0.0219747899343434,-0.0541300072843434,-0.104661662784343,-0.0335989707843434,0.00586918471565658,-0.0560144539343434,-0.00747961093434343,3082,"DG_s15",3.085,3.791,6.023,6.025,18,18,10,10,2.232,"Right",18,18,0,0,0,0,0,0,0,0,0,0,"Equal",8,8,10,18,10,18
"38",2,"LAM8-LAM9",-0.0783459548333333,-0.126387730183333,-0.00860752518333333,0.0140514243166667,-0.102943755175333,-0.0926354438253333,-0.139531127325333,-0.138251705325333,-0.0423556508333333,-0.0567529463333333,0.0126543771666667,-0.0377077053333333,-0.107402772833333,-0.0465340273333333,-0.0291167723333333,0.0279847811666667,0.0517729648666667,0.0597553618666667,0.0179101718666667,-0.0496075371333333,3082,"DG_s15",3.085,3.791,6.023,6.025,18,18,10,10,2.232,"Right",18,18,0,0,0,0,0,0,0,0,0,0,"Equal",8,8,10,18,10,18
"39",2,"LTT9-LTT10",0.128146098621212,0.119540993621212,0.124118433271212,0.0575590677712121,0.0917981577712121,0.0366459727712121,0.0593461066212121,0.118514292121212,0.142370598621212,0.111704235121212,0.112414105121212,0.0337204851212121,0.0192799434712121,0.0918587094712121,0.0193254069712121,0.0221697734712121,-0.00350428287878788,-0.0404165428787879,0.0180696096212121,0.115092623121212,3082,"DG_s15",3.085,3.791,6.023,6.025,18,18,10,10,2.232,"Right",18,18,0,0,0,0,0,0,0,0,0,0,"Equal",8,8,10,18,10,18
"40",2,"LTT8-LTT9",0.131863714085859,0.131162923085859,0.208523742585859,0.317773053585859,0.268512668585859,0.173868301585859,0.141048423585859,0.000204961585858587,0.00594749758585859,0.174551794585859,0.0937834405858586,0.163519265085859,0.192030370585859,0.111479323585859,0.167641184585859,0.164347087085859,0.188675440585859,0.192768623085859,0.128429998085859,0.0990789650858586,3082,"DG_s15",3.085,3.791,6.023,6.025,18,18,10,10,2.232,"Right",18,18,0,0,0,0,0,0,0,0,0,0,"Equal",8,8,10,18,10,18
"41",2,"LHB8-LHB9",-0.0735064634040404,-0.15520053040404,-0.21328849040404,-0.36827732140404,-0.40587695690404,-0.31979208640404,-0.24931829940404,-0.0999683465540404,-0.0583535460540404,-0.17841373455404,-0.13983219855404,-0.18879541340404,-0.0419386439040404,0.0763712765959596,0.0747341385959596,0.0593875000959596,-0.11551657990404,-0.0949273919040404,-0.0995280899040404,-0.15939909490404,3082,"DG_s15",3.085,3.791,6.023,6.025,18,18,10,10,2.232,"Right",18,18,0,0,0,0,0,0,0,0,0,0,"Equal",8,8,10,18,10,18
"42",2,"LHH4-LHH5",-0.213611874106061,-0.249113315106061,-0.0290021151060606,-0.106893475606061,-0.0442661756060606,0.100620973893939,0.0251329521439394,0.0476923711439394,0.0851252561439394,-0.0941884963560606,-0.189843527606061,-0.143419266106061,-0.305311141106061,-0.249286163606061,-0.143432055606061,-0.267881555606061,-0.196926189356061,-0.250360005356061,-0.309263759356061,-0.291591689356061,3082,"DG_s15",3.085,3.791,6.023,6.025,18,18,10,10,2.232,"Right",18,18,0,0,0,0,0,0,0,0,0,0,"Equal",8,8,10,18,10,18
"43",2,"LAM5-LAM6",-0.0747284529489899,-0.0768064999489899,-0.0533460003989899,-0.21570630039899,-0.24698211039899,-0.13096657389899,-0.20324350089899,-0.0844309688989899,-0.0455114023989899,-0.0729960023989899,-0.0286967343989899,0.0967659836010101,0.14216215710101,0.0958190491010101,0.0940663091010101,0.00955672660101009,-0.14698729339899,-0.15724558389899,-0.13009538929899,-0.19947706114899,3082,"DG_s15",3.085,3.791,6.023,6.025,18,18,10,10,2.232,"Right",18,18,0,0,0,0,0,0,0,0,0,0,"Equal",8,8,10,18,10,18
"44",2,"LHB9-LHB10",0.114287662505051,0.0291261055050505,0.0636076955050505,0.0917559020050505,0.118062756505051,0.206883388505051,0.12096541350505,0.0109699945050505,-0.0736723779949495,-0.279760177994949,-0.329737307994949,-0.263130607494949,-0.174487812994949,0.00389317700505051,0.108973788005051,0.14808943150505,0.0576432815050505,0.0455677155050505,-0.0357888804949495,-0.128092130994949,3082,"DG_s15",3.085,3.791,6.023,6.025,18,18,10,10,2.232,"Right",18,18,0,0,0,0,0,0,0,0,0,0,"Equal",8,8,10,18,10,18
"45",2,"LHB4-LHB5",0.252484467141414,0.116646117141414,0.190718067141414,0.151457361641414,0.0480937921414142,0.148156107141414,0.0869799071414141,0.0757314286414141,-0.0723135818585859,-0.0965915928585859,-0.212779834858586,-0.144004516358586,-0.0246663913585859,-0.0375295503585859,-0.0213090033585858,-0.0346302310685859,-0.0471793805685859,-0.142711720568586,-0.177782050568586,-0.220803141858586,3082,"DG_s15",3.085,3.791,6.023,6.025,18,18,10,10,2.232,"Right",18,18,0,0,0,0,0,0,0,0,0,0,"Equal",8,8,10,18,10,18
"46",2,"LAM6-LAM7",-0.258272187979798,-0.264629920979798,-0.287368877979798,-0.263387854979798,-0.274813112979798,-0.169785467979798,-0.207196857029798,-0.199562575029798,-0.208920081029798,-0.382550106029798,-0.315120251979798,-0.302018179979798,-0.391360747829798,-0.291677041329798,-0.297357377329798,-0.276137109479798,-0.145649581129798,-0.096442342629798,-0.00129176412979798,0.030243190520202,3082,"DG_s15",3.085,3.791,6.023,6.025,18,18,10,10,2.232,"Right",18,18,0,0,0,0,0,0,0,0,0,0,"Equal",8,8,10,18,10,18
"47",2,"LHH6-LHH7",0.0445555239444444,0.0850643174444445,0.0195756879444444,0.160452934444444,0.194139984444444,0.0880106354444444,0.0754426614444444,0.0617703924444444,0.0622189559444444,0.120095128094444,0.0823434695944444,0.119692666094444,0.275513617594444,0.273015443344444,0.362010103844444,0.208730749344444,0.0955610048444444,-0.0331511025555556,-0.100126958055556,-0.112567729055556,3082,"DG_s15",3.085,3.791,6.023,6.025,18,18,10,10,2.232,"Right",18,18,0,0,0,0,0,0,0,0,0,0,"Equal",8,8,10,18,10,18
"48",2,"LAM2-LAM3",-0.487368561055556,-0.563883076055556,-0.537517656555556,-0.574169764555556,-0.611209255555555,-0.574330035555556,-0.591596721555556,-0.570539811555556,-0.522973642005556,-0.476191303005556,-0.378843258005556,-0.334984061505555,-0.283244305055556,-0.305065916555556,-0.230610807705556,-0.294160124205556,-0.406840242155556,-0.401868154655556,-0.608888642505556,-0.606416533005556,3082,"DG_s15",3.085,3.791,6.023,6.025,18,18,10,10,2.232,"Right",18,18,0,0,0,0,0,0,0,0,0,0,"Equal",8,8,10,18,10,18
"49",2,"LIP3-LIP4",0.162029727922222,0.142000857922222,0.150933181922222,0.0133122134222222,0.0878379967222222,0.00210457672222222,0.124737943722222,0.112364577222222,-0.0210691282777778,-0.0580510837777778,-0.250290415177778,-0.274327296177778,-0.267624035677778,-0.221503469177778,-0.194605297777778,-0.123890159777778,-0.0882475692277778,-0.143081620227778,-0.0720566352277778,-0.0776062027277778,3082,"DG_s15",3.085,3.791,6.023,6.025,18,18,10,10,2.232,"Right",18,18,0,0,0,0,0,0,0,0,0,0,"Equal",8,8,10,18,10,18
"50",2,"LAM3-LAM4",-0.0754693926541919,-0.0140511951541919,0.00683745569580808,0.00739025469580808,0.0223165815808081,-0.0871277304191919,-0.161327137919192,-0.227058943919192,-0.194034163919192,-0.174255533919192,0.0197673710808081,0.0566730855808081,0.0723947005808081,0.107633435080808,0.00649366958080808,0.0788962265808081,0.0602634613858081,0.172356493885808,0.126981479385808,0.0819296494358081,3082,"DG_s15",3.085,3.791,6.023,6.025,18,18,10,10,2.232,"Right",18,18,0,0,0,0,0,0,0,0,0,0,"Equal",8,8,10,18,10,18
"51",2,"LHB5-LHB6",0.0114835123030303,-0.11725389994697,-0.14055497344697,-0.0988279934469697,-0.0935892694469697,-0.0797635076969697,-0.0506656291969697,-0.0758738098469697,0.0090877851530303,0.000724930153030295,-0.0655529013469697,-0.14134073319697,-0.16782277449697,-0.15591782849697,-0.15111670949697,-0.0901899319969697,-0.15932316319697,-0.20137711119697,-0.20910543089197,-0.31304686089197,3082,"DG_s15",3.085,3.791,6.023,6.025,18,18,10,10,2.232,"Right",18,18,0,0,0,0,0,0,0,0,0,0,"Equal",8,8,10,18,10,18
"52",2,"LIP6-LIP7",-0.060266075020202,-0.123668978020202,-0.193149084520202,-0.218604771670202,-0.365824394670202,-0.264167780170202,-0.165923780170202,-0.114169529020202,0.061535820979798,0.072030150979798,0.101469047479798,0.101316524479798,-0.097776785520202,-0.243978187520202,-0.298876189520202,-0.365692524520202,-0.264540729520202,-0.098776137520202,-0.036453042020202,-0.093720773020202,3082,"DG_s15",3.085,3.791,6.023,6.025,18,18,10,10,2.232,"Right",18,18,0,0,0,0,0,0,0,0,0,0,"Equal",8,8,10,18,10,18
"53",2,"LAM4-LAM5",-0.180797272974747,-0.244693716474747,-0.262282450974747,-0.275289004974748,-0.286996684974748,-0.217423189974747,-0.174309089974747,-0.144163689974747,-0.194893045974747,-0.212768166974747,-0.157020836974747,-0.155413854474747,-0.0641594834747475,-0.0448004774747475,-0.0985841974747475,-0.121656204474747,-0.0947627119747475,-0.0476851965747475,0.000963468925252509,0.0437304274252525,3082,"DG_s15",3.085,3.791,6.023,6.025,18,18,10,10,2.232,"Right",18,18,0,0,0,0,0,0,0,0,0,0,"Equal",8,8,10,18,10,18
"54",2,"LIP8-LIP9",-0.129832578656566,-0.126014775156566,-0.103647566156566,-0.109097286656566,0.00192539184343434,0.0382277043434343,0.0943804853434344,0.115237266843434,0.00491111684343435,0.0169377719434343,0.0470039909434343,0.0341313064434343,0.202677986443434,0.179364798343434,0.163724163343434,0.313731286343434,0.181176409843434,0.234991130343434,0.256690176343434,0.129500918843434,3082,"DG_s15",3.085,3.791,6.023,6.025,18,18,10,10,2.232,"Right",18,18,0,0,0,0,0,0,0,0,0,0,"Equal",8,8,10,18,10,18
"55",2,"LIP5-LIP6",-0.376578572301515,-0.341576656301515,-0.280726076801515,-0.212583657651515,-0.243411657651515,-0.248330643651515,-0.223713905151515,0.00925968384848483,0.0239258238484848,0.0189008553484848,0.0323182698484848,-0.101178056751515,0.0777850132484848,-0.0357299567515152,-0.145299403251515,-0.163205772151515,-0.319429718651515,-0.143973992151515,-0.0754122936515152,-0.145772835651515,3082,"DG_s15",3.085,3.791,6.023,6.025,18,18,10,10,2.232,"Right",18,18,0,0,0,0,0,0,0,0,0,0,"Equal",8,8,10,18,10,18
"56",2,"LHB6-LHB7",0.0414956856530303,0.0957107038030303,0.0532957443030303,-0.000306709696969693,-0.0754694796469697,0.0907928633530303,0.19432832835303,0.32556070735303,0.41439366780303,0.0896787678030303,0.0212734128030303,-0.0480678281969697,-0.0587511336969697,0.0367988963030303,-0.0333968950969697,-0.0384927830969697,-0.12302789459697,-0.0738611245969697,-0.0547458186969697,-0.0666433071969697,3082,"DG_s15",3.085,3.791,6.023,6.025,18,18,10,10,2.232,"Right",18,18,0,0,0,0,0,0,0,0,0,0,"Equal",8,8,10,18,10,18
"57",2,"LAM9-LAM10",-0.144609881530303,-0.109093981530303,-0.076633725430303,-0.147487153930303,-0.180627363930303,-0.261571054530303,-0.277257846130303,-0.200632883830303,-0.049717172830303,-0.141963417230303,0.00109189276969696,0.0302133625696969,0.092380701569697,0.130425955569697,0.022074462069697,-0.109760022530303,-0.190576486530303,-0.107857915530303,-0.031995322930303,0.123357727069697,3082,"DG_s15",3.085,3.791,6.023,6.025,18,18,10,10,2.232,"Right",18,18,0,0,0,0,0,0,0,0,0,0,"Equal",8,8,10,18,10,18
"58",2,"LHB7-LHB8",-0.0951090403939394,-0.125655414893939,-0.140763600393939,-0.218125080393939,-0.156186072393939,-0.0580417663939394,0.121285248106061,0.254743853106061,0.331988068106061,0.422958762106061,0.349556865606061,0.344395601606061,0.246988822606061,0.0668970896060606,-0.132540310393939,-0.139977589393939,-0.0429590348939394,-0.0386575618939394,0.0918038041060606,0.0314667921060606,3082,"DG_s15",3.085,3.791,6.023,6.025,18,18,10,10,2.232,"Right",18,18,0,0,0,0,0,0,0,0,0,0,"Equal",8,8,10,18,10,18
"59",3,"LAM2-LAM3",-0.146964237109596,-0.121048232109596,-0.112936555959596,-0.119632078459596,-0.109074844459596,-0.108105097859596,-0.058871553359596,-0.065491878359596,0.010612169140404,-0.00735111695959595,-0.0368395664595959,0.0962979135404041,-0.026982062959596,-3.52734595959608e-05,-0.120332703959596,-0.180373577959596,-0.049442692959596,-0.060082777959596,0.172978890040404,0.198945730540404,3083,"DG_s15",7.026,7.731,9.383,9.385,10,26,10,10,1.652,"Right",10,26,16,16,0,0,16,0,16,0,-16,-16,"Disadvent",0,16,10,10,10,26
"60",3,"LHB8-LHB9",0.202175309888889,0.222820189888889,0.274218777388889,0.193033937888889,0.0360897313888889,0.0952698178888889,0.104971176188889,0.291315230688889,0.428211771188889,0.429815204688889,0.325518083388889,0.305302358388889,0.216079151388889,0.314206776388889,0.427978777388889,0.432070052388889,0.573536569388889,0.501933940888889,0.414212760388889,0.316537106888889,3083,"DG_s15",7.026,7.731,9.383,9.385,10,26,10,10,1.652,"Right",10,26,16,16,0,0,16,0,16,0,-16,-16,"Disadvent",0,16,10,10,10,26
"61",3,"LAM7-LAM8",-0.145961194802525,-0.104863417452525,-0.184885882452525,-0.144915842952525,-0.0315414669025253,-0.120899655752525,-0.0772361808625252,-0.130697617362525,-0.219595069362525,-0.0914023888625252,0.110858791247475,0.244156717747475,0.308976121747475,0.310390540247475,0.106589765247475,0.104147465247475,0.0624140582474748,0.00974761699747476,0.132616466997475,0.124508971997475,3083,"DG_s15",7.026,7.731,9.383,9.385,10,26,10,10,1.652,"Right",10,26,16,16,0,0,16,0,16,0,-16,-16,"Disadvent",0,16,10,10,10,26
"62",3,"LAM4-LAM5",-0.103566176703535,-0.0178749973535354,0.0692106431464646,0.0492070336464646,0.0652872661464647,-0.0198517233535354,-0.147480133353535,-0.0273423823535354,0.0761919301464646,0.159719832146465,0.228404809646465,0.102090554646465,-0.0589394803535354,-0.218544592353535,-0.214780709853535,-0.0428445298535354,0.120029121646465,0.307369936146465,0.184918764146465,0.0646641991464647,3083,"DG_s15",7.026,7.731,9.383,9.385,10,26,10,10,1.652,"Right",10,26,16,16,0,0,16,0,16,0,-16,-16,"Disadvent",0,16,10,10,10,26
"63",3,"LHB9-LHB10",-0.209693426217172,-0.232858420217172,-0.261328691217172,-0.172839188717172,-0.0366865237171717,0.0970201402828283,0.109973665282828,0.153131847782828,0.258183152782828,0.182946895282828,0.178961443332828,0.138551830132828,0.0267989336328283,0.00999953613282828,-0.00504327811717173,0.0195690550828283,-0.0785431844171717,-0.0380298715171717,0.0735680471828283,0.0803698111828283,3083,"DG_s15",7.026,7.731,9.383,9.385,10,26,10,10,1.652,"Right",10,26,16,16,0,0,16,0,16,0,-16,-16,"Disadvent",0,16,10,10,10,26
"64",3,"LHH4-LHH5",-0.543631606823232,-0.354880624323232,-0.344039041823232,-0.265085035273232,-0.301137681373232,-0.384980118373232,-0.270983132873232,-0.294383877923232,-0.266632970323232,-0.306483164273232,-0.373664993573232,-0.377313198073232,-0.334165258073232,-0.359458469623232,-0.341624278823232,-0.383974529323232,-0.366952779323232,-0.212200669323232,-0.193333805823232,-0.114000027323232,3083,"DG_s15",7.026,7.731,9.383,9.385,10,26,10,10,1.652,"Right",10,26,16,16,0,0,16,0,16,0,-16,-16,"Disadvent",0,16,10,10,10,26
"65",3,"LHH7-LHH8",-0.240904924814141,-0.0584070398141414,-0.00785940606414141,0.0429739560858586,0.0905838795858586,-0.0140743867141414,-0.0974129017141414,-0.151043272214141,-0.173770412714141,-0.114684782914141,-0.0244935479141414,0.0694614520858586,0.141389258585859,0.191471725085859,0.206692233585859,0.229335743085859,0.187322694585859,0.0547477795858586,-0.0646451439141414,-0.158330023914141,3083,"DG_s15",7.026,7.731,9.383,9.385,10,26,10,10,1.652,"Right",10,26,16,16,0,0,16,0,16,0,-16,-16,"Disadvent",0,16,10,10,10,26
"66",3,"LIP4-LIP5",0.229583532045455,0.247378797045455,0.309495155045455,0.286969022545455,0.363177840545455,0.374019115545455,0.255358423045455,0.328499433795455,0.235706729295455,0.258437389295455,0.335821183795455,0.307615203045455,0.422680481545455,0.463733906545455,0.458986979545455,0.492355169545455,0.218649409545455,0.196520359545455,0.224995549545455,0.175181978545455,3083,"DG_s15",7.026,7.731,9.383,9.385,10,26,10,10,1.652,"Right",10,26,16,16,0,0,16,0,16,0,-16,-16,"Disadvent",0,16,10,10,10,26
"67",3,"LAM9-LAM10",-0.201205038979798,-0.154800167979798,-0.095125721479798,-0.085220771329798,-0.143056465829798,-0.165697508329798,-0.178347254329798,-0.113675327479798,-0.115249527979798,-0.129528880479798,-0.221532563479798,-0.232034603979798,-0.270245243979798,-0.256766413979798,-0.206927190479798,-0.162612529979798,-0.101148496479798,-0.106054886479798,-0.213019586669798,-0.139249268169798,3083,"DG_s15",7.026,7.731,9.383,9.385,10,26,10,10,1.652,"Right",10,26,16,16,0,0,16,0,16,0,-16,-16,"Disadvent",0,16,10,10,10,26
"68",3,"LAM3-LAM4",0.250715659833333,0.153210987833333,0.155689966333333,0.103578072333333,-0.148959599166667,-0.140750091666667,-0.305721642166667,-0.198134091166667,0.00455079033333333,0.148882454333333,0.217102933333333,0.274951413833333,0.151245648833333,0.0561331243333333,0.0225515653333333,0.0251925653333333,0.0582132083333333,0.0849362328333333,0.161536178833333,0.0408819838333333,3083,"DG_s15",7.026,7.731,9.383,9.385,10,26,10,10,1.652,"Right",10,26,16,16,0,0,16,0,16,0,-16,-16,"Disadvent",0,16,10,10,10,26
"69",3,"LHB4-LHB5",-0.100561778585859,-0.136477459085859,-0.121880851235859,-0.144720340235859,-0.0978945502358586,-0.120032160285859,-0.136754188135859,0.0525509448641414,-0.0298190451358586,-0.0540495180858586,-0.0363276630858586,-0.168010631985859,-0.128763031985859,-0.0710722629858586,-0.101116026485859,-0.163774151585859,-0.168882296085859,-0.114338953085859,0.0389584204141414,0.151666450414141,3083,"DG_s15",7.026,7.731,9.383,9.385,10,26,10,10,1.652,"Right",10,26,16,16,0,0,16,0,16,0,-16,-16,"Disadvent",0,16,10,10,10,26
"70",3,"LIP7-LIP8",0.103863808247475,0.0414655522474747,-0.0917662637525253,-0.183012402252525,-0.294557649452525,-0.193430672452525,-0.0905314674525253,-0.000619679452525251,0.104138367747475,0.0302414662474747,0.0707035362474747,0.0449053932474747,0.0686595952474747,0.153497436747475,0.116858396747475,0.176555931747475,0.198108979747475,0.198221449747475,0.0965322647474747,0.103558359747475,3083,"DG_s15",7.026,7.731,9.383,9.385,10,26,10,10,1.652,"Right",10,26,16,16,0,0,16,0,16,0,-16,-16,"Disadvent",0,16,10,10,10,26
"71",3,"LAM1-LAM2",-0.172862147332323,-0.0537322458323232,0.0591281571676768,0.0626019272676768,0.192476722317677,0.157925530817677,0.216335978317677,0.205243876817677,0.193013942267677,0.0808256322676768,0.00997828726767677,-0.0739986777323232,-0.0884361962323232,0.0887015987676768,0.0303274227676768,0.119348037767677,-0.0343228992323232,-0.170236312232323,-0.0682397262323232,-0.0152102262323232,3083,"DG_s15",7.026,7.731,9.383,9.385,10,26,10,10,1.652,"Right",10,26,16,16,0,0,16,0,16,0,-16,-16,"Disadvent",0,16,10,10,10,26
"72",3,"LIP1-LIP2",-0.2405037939,-0.2809222065,-0.180592134,-0.108288252,-0.047037359,-0.023577106,-0.072943876,-0.188962721,-0.235314324,-0.1203841455,-0.046037929,0.115792843,0.236100537,0.0888991455,-0.0344601975,-0.0185787725,-0.1041450335,-0.0442962545,-0.0228590765,-0.1042359685,3083,"DG_s15",7.026,7.731,9.383,9.385,10,26,10,10,1.652,"Right",10,26,16,16,0,0,16,0,16,0,-16,-16,"Disadvent",0,16,10,10,10,26
"73",3,"LAM6-LAM7",0.169240676853535,0.142238310253535,0.0893953702535353,0.0962722632535354,0.131245243253535,0.155402252353535,0.267128812353535,0.117413540603535,-0.0296015693964646,-0.00907698139646465,-0.0191885493964646,0.0890472513535353,0.192204656353535,0.153094899853535,0.0972283357535354,0.139303066753535,0.0822001217535353,0.0433149705035354,0.0840013241035353,0.0649658721035354,3083,"DG_s15",7.026,7.731,9.383,9.385,10,26,10,10,1.652,"Right",10,26,16,16,0,0,16,0,16,0,-16,-16,"Disadvent",0,16,10,10,10,26
"74",3,"LHB6-LHB7",0.00469651830303031,-0.00195622969696969,0.13024228780303,0.16738413230303,0.24130049580303,0.25573160700303,0.23350005300303,0.16872119900303,0.0440317785030303,0.0411438273030303,0.0803694178030303,0.0808684258030303,0.11340886280303,0.12391868080303,0.0818922508030303,0.0384555983030303,0.0390536208030303,0.13741497080303,0.0804122948030303,0.10157739230303,3083,"DG_s15",7.026,7.731,9.383,9.385,10,26,10,10,1.652,"Right",10,26,16,16,0,0,16,0,16,0,-16,-16,"Disadvent",0,16,10,10,10,26
"75",3,"LTT8-LTT9",-0.14813288579899,-0.15911894734899,-0.0111064294489899,-0.11093203894899,-0.0231577449489899,0.0152414471010101,-0.0036114428989899,0.0721556466010101,0.0376545120510101,-0.0212081384489899,-0.0228128794489899,0.0654198205510101,0.0734398501010101,0.0792250581010101,0.13337306410101,0.0501479611010101,0.0171844236010101,0.0744609336010101,0.0635858286010101,-0.0327945733989899,3083,"DG_s15",7.026,7.731,9.383,9.385,10,26,10,10,1.652,"Right",10,26,16,16,0,0,16,0,16,0,-16,-16,"Disadvent",0,16,10,10,10,26
"76",3,"LHH5-LHH6",-0.185714205508586,-0.217124229358586,-0.0568418868585858,-0.115467096858586,-0.0789459408585858,-0.122678310858586,-0.264902763358586,-0.313727676958586,-0.205803167958586,-0.150485410958586,-0.0242369812585858,0.0946285673414141,0.0725820523414142,0.0808733358414142,0.0334982011414142,-0.0332470368585858,-0.100039281008586,-0.173666373008586,-0.141326662508586,-0.218686286508586,3083,"DG_s15",7.026,7.731,9.383,9.385,10,26,10,10,1.652,"Right",10,26,16,16,0,0,16,0,16,0,-16,-16,"Disadvent",0,16,10,10,10,26
"77",3,"LHB7-LHB8",0.307624927748485,0.228521152748485,0.188473207748485,0.236825079848485,0.181050734848485,0.158319604848485,0.0994871408484848,0.0472344783484848,0.0507666450484848,0.0526985715484848,0.164730175548485,0.191890933048485,0.183884816848485,0.177354506348485,0.152213494348485,0.183685664348485,0.0811660803484848,0.124328926848485,0.0241255304984848,-0.0483726245015152,3083,"DG_s15",7.026,7.731,9.383,9.385,10,26,10,10,1.652,"Right",10,26,16,16,0,0,16,0,16,0,-16,-16,"Disadvent",0,16,10,10,10,26
"78",3,"LTT9-LTT10",-0.423189342636364,-0.440698446636364,-0.475560345136364,-0.486925493136364,-0.404367286636364,-0.318637096636364,-0.275882115636364,-0.161965992636364,-0.326308822636364,-0.388343962786364,-0.344032019286364,-0.472568454286364,-0.455773814286364,-0.460779659136364,-0.420406430136364,-0.327101798936364,-0.315297276936364,-0.368679947936364,-0.375736663436364,-0.438742964536364,3083,"DG_s15",7.026,7.731,9.383,9.385,10,26,10,10,1.652,"Right",10,26,16,16,0,0,16,0,16,0,-16,-16,"Disadvent",0,16,10,10,10,26
"79",3,"LAM8-LAM9",-0.137215404439394,-0.265713989439394,-0.239256279439394,-0.0959822194393939,-0.0872850204943939,-0.129782385494394,-0.165353557494394,-0.198846644694394,-0.206911273139394,-0.0976153131393939,-0.037186846139394,-0.133603403939394,-0.0551413939393939,-0.0708139309393939,-0.195201790939394,0.044732099060606,0.046225574060606,0.072108966060606,0.0679153060606061,-0.141519619439394,3083,"DG_s15",7.026,7.731,9.383,9.385,10,26,10,10,1.652,"Right",10,26,16,16,0,0,16,0,16,0,-16,-16,"Disadvent",0,16,10,10,10,26
"80",3,"LIP5-LIP6",0.283932767929293,0.217403997429293,0.121395135429293,0.0954705024292929,0.0118421079292929,-0.00952513007070707,-0.0490491330707071,-0.0715719190707071,0.118601975929293,0.320827168929293,0.409616808929293,0.496781822929293,0.397218001929293,0.287190351929293,0.284888217929293,0.181722252929293,0.247193525879293,0.187249363129293,0.175774164629293,0.291647349629293,3083,"DG_s15",7.026,7.731,9.383,9.385,10,26,10,10,1.652,"Right",10,26,16,16,0,0,16,0,16,0,-16,-16,"Disadvent",0,16,10,10,10,26
"81",3,"LIP6-LIP7",-0.0927268601515151,0.0122501203484849,-0.0280056316515152,-0.182539096151515,-0.332534833651515,-0.341679120201515,-0.369882156201515,-0.327816976701515,-0.203132095701515,-0.125766929651515,-0.0315748866515151,-0.0318674425015152,-0.0680167560015151,-0.174217666001515,-0.163751286501515,-0.103604617151515,-0.149982014106515,-0.119193084106515,-0.142220371606515,-0.202582812106515,3083,"DG_s15",7.026,7.731,9.383,9.385,10,26,10,10,1.652,"Right",10,26,16,16,0,0,16,0,16,0,-16,-16,"Disadvent",0,16,10,10,10,26
"82",3,"LIP3-LIP4",-0.193089306434343,-0.0916178324343434,-0.0266558724343434,-0.0496929269343434,-0.0370325029343434,-0.00788205793434343,0.0217965575656566,0.0721081960656566,0.124637907065657,0.0740581420656566,0.153771866565657,0.174124356065657,0.132893896065657,0.141824766065657,0.0951651850656566,0.0480186320656566,0.0227048015656566,0.0667975465656566,0.101640382065657,0.0635019705656566,3083,"DG_s15",7.026,7.731,9.383,9.385,10,26,10,10,1.652,"Right",10,26,16,16,0,0,16,0,16,0,-16,-16,"Disadvent",0,16,10,10,10,26
"83",3,"LAM5-LAM6",-0.237749854075758,-0.255288905075758,-0.395738071075758,-0.430415537075758,-0.550085790575758,-0.569145067575758,-0.397235016575758,-0.341571715575758,-0.159095635575758,-0.0389541220757575,0.0237402579242424,-0.0337322765757576,-0.0256400515757575,-0.183526592075758,-0.327503559075758,-0.283003139575758,-0.333013004575758,-0.340004689575758,-0.345987178575758,-0.266193365900758,3083,"DG_s15",7.026,7.731,9.383,9.385,10,26,10,10,1.652,"Right",10,26,16,16,0,0,16,0,16,0,-16,-16,"Disadvent",0,16,10,10,10,26
"84",3,"LIP2-LIP3",-0.410589643686869,-0.304399159686869,-0.236338354686869,-0.109530179686869,-0.145186750686869,-0.179160379686869,-0.142238288186869,-0.260719588186869,-0.271213895186869,-0.349689801736869,-0.300651723236869,-0.180090113236869,-0.0726352352368687,-0.0232347211868687,-0.0907039711868687,-0.148530206186869,-0.282266409986869,-0.234448997486869,-0.283096528536869,-0.170771128536869,3083,"DG_s15",7.026,7.731,9.383,9.385,10,26,10,10,1.652,"Right",10,26,16,16,0,0,16,0,16,0,-16,-16,"Disadvent",0,16,10,10,10,26
"85",3,"LIP8-LIP9",0.0570840202272727,0.105181995727273,0.121985723627273,0.121131163127273,-0.0149673381727273,-0.109340697672727,-0.209184233572727,-0.191690876072727,-0.188604679772727,-0.128905623272727,0.00299721622727273,-0.0702434552727273,-0.152431022772727,-0.267235030272727,-0.261692640272727,-0.211223539772727,-0.175654672272727,-0.0751522817727273,-0.239239721772727,-0.301753342272727,3083,"DG_s15",7.026,7.731,9.383,9.385,10,26,10,10,1.652,"Right",10,26,16,16,0,0,16,0,16,0,-16,-16,"Disadvent",0,16,10,10,10,26
"86",3,"LHH6-LHH7",0.0133861237212121,-0.0827112018787879,-0.0595440813787879,-0.155860386378788,-0.103466956378788,0.0901439546212121,0.0945176166212121,0.103947632621212,0.112363851121212,-0.00231542487878787,-0.102507681378788,-0.0783013148787879,-0.194485933378788,-0.297696107378788,-0.230809287378788,-0.146736199878788,-0.0500583548787879,-0.0231561048787879,-0.0444127475787879,-0.172776379578788,3083,"DG_s15",7.026,7.731,9.383,9.385,10,26,10,10,1.652,"Right",10,26,16,16,0,0,16,0,16,0,-16,-16,"Disadvent",0,16,10,10,10,26
"87",3,"LHB5-LHB6",0.0883728981232323,0.0408604339732323,-0.0627902820267677,-0.132132801526768,-0.182663686526768,-0.178758255176768,-0.0669981091767677,-0.0824327546767677,-0.0594972526767677,-0.0610588946767677,-0.132722894676768,-0.0325424001767677,-0.0513267866767677,0.0382173212882323,0.0849329554382323,0.00307387943823231,-0.0665121060617677,-0.123417815526768,-0.215993030676768,-0.218842407876768,3083,"DG_s15",7.026,7.731,9.383,9.385,10,26,10,10,1.652,"Right",10,26,16,16,0,0,16,0,16,0,-16,-16,"Disadvent",0,16,10,10,10,26
"88",4,"LHB9-LHB10",-0.241342787414141,-0.132387207414141,0.00836642858585857,0.183928208585859,0.153749078585859,0.0721892867358586,-0.0533744637641415,-0.225261428764141,-0.290791690264141,-0.330868845414141,-0.244396279914141,-0.255666634414141,-0.238955082914141,-0.103177801914141,-0.0566630169141414,-0.0575312814141414,0.0138052185858585,-0.0742986024141414,-0.132617718914141,-0.150593484914141,3084,"DG_s15",10.386,11.091,13.747,13.749,16,4,10,10,2.656,"Right",16,4,12,12,0,0,0,-12,0,-12,12,12,"Advent",6,-6,10,16,10,4
"89",4,"LHH5-LHH6",0.140076728707071,0.150992799707071,0.170229951207071,0.185454857207071,0.149827281207071,0.116376905507071,-0.0289213099929293,-0.0229215449929293,-0.0520148139929293,-0.0714068418429293,0.0771301877570707,0.0211623597570707,-0.0400230802429293,0.00760367920707071,-0.137166230392929,-0.148795480392929,-0.0937280403929293,-0.108995222292929,-0.00278947729292929,-0.0208473967929293,3084,"DG_s15",10.386,11.091,13.747,13.749,16,4,10,10,2.656,"Right",16,4,12,12,0,0,0,-12,0,-12,12,12,"Advent",6,-6,10,16,10,4
"90",4,"LHH4-LHH5",0.0114754095469697,0.13896705054697,-0.00107614445303029,0.0223735001969697,0.00118086769696971,-0.13438152830303,-0.0967470878030303,-0.0532312038030303,-0.0631872948030303,-0.15424711880303,-0.16999552630303,-0.10032414930303,0.0213845436969697,0.21745684369697,0.25607918169697,0.0305939781969697,-0.0199370143030303,-0.0549270143030303,0.0447876996969697,0.10971257519697,3084,"DG_s15",10.386,11.091,13.747,13.749,16,4,10,10,2.656,"Right",16,4,12,12,0,0,0,-12,0,-12,12,12,"Advent",6,-6,10,16,10,4
"91",4,"LAM2-LAM3",0.186954804863636,0.0162585991636364,-0.0978683950863636,-0.130208679586364,-0.0417267275863636,0.000417653113636361,0.116726566363636,0.167137165863636,0.168988862863636,0.262534626863636,0.201984485363636,0.116507728563636,0.0881406665636364,0.0261091760636364,0.0615203950636364,0.230172980363636,0.247676648363636,0.102094498363636,0.0899670308636364,-0.0321234821363636,3084,"DG_s15",10.386,11.091,13.747,13.749,16,4,10,10,2.656,"Right",16,4,12,12,0,0,0,-12,0,-12,12,12,"Advent",6,-6,10,16,10,4
"92",4,"LAM3-LAM4",0.0818693990959596,-0.0368097151540404,-0.00197411015404041,0.10883272384596,0.15216054934596,0.25356103754596,0.20499265104596,0.15191910904596,0.0467422645459596,0.0481515500959596,0.0739469080959596,0.0454388385959596,0.0637137465959596,0.0514491720959596,0.0665655805959596,0.18963645109596,0.25989704059596,0.13418881509596,0.18014818459596,0.17793220209596,3084,"DG_s15",10.386,11.091,13.747,13.749,16,4,10,10,2.656,"Right",16,4,12,12,0,0,0,-12,0,-12,12,12,"Advent",6,-6,10,16,10,4
"93",4,"LAM8-LAM9",-0.165987365059596,-0.096664900059596,-0.0791844365595959,0.00594497794040405,0.0439657775404041,0.0894082850404041,0.019556575040404,-0.00117936095959595,0.000352894040404048,-0.028475618459596,0.0439307920404041,0.051975331540404,0.0334206215404041,0.033213327540404,0.022051645540404,-0.048617476459596,-0.0782019854595959,-0.0918326764595959,-0.177414864009596,-0.062930339009596,3084,"DG_s15",10.386,11.091,13.747,13.749,16,4,10,10,2.656,"Right",16,4,12,12,0,0,0,-12,0,-12,12,12,"Advent",6,-6,10,16,10,4
"94",4,"LAM4-LAM5",-0.224448437878788,-0.267822835878788,-0.335243920878788,-0.271112995078788,-0.149788445078788,-0.152096481078788,-0.0680585830787879,0.0337162826212121,-0.0658242673787879,0.165840501621212,0.144592736621212,0.0191732476212121,0.0980374276212121,-0.0708091473787879,0.0134951853212121,0.100215681321212,0.106696456821212,0.0180296468212121,-0.0444183388787879,-0.0127072073787879,3084,"DG_s15",10.386,11.091,13.747,13.749,16,4,10,10,2.656,"Right",16,4,12,12,0,0,0,-12,0,-12,12,12,"Advent",6,-6,10,16,10,4
"95",4,"LIP1-LIP2",-0.0895056663080808,-0.0476925638080808,-0.0435607188080808,-0.240037413858081,-0.243663330358081,-0.299256428858081,-0.371113787358081,-0.309572849808081,-0.363581210308081,-0.439488866808081,-0.332946018308081,-0.406440940808081,-0.351073167258081,-0.221003182258081,-0.296966275408081,-0.254541917408081,-0.197831629958081,-0.221097879608081,-0.162577114458081,-0.0990878874580808,3084,"DG_s15",10.386,11.091,13.747,13.749,16,4,10,10,2.656,"Right",16,4,12,12,0,0,0,-12,0,-12,12,12,"Advent",6,-6,10,16,10,4
"96",4,"LHB8-LHB9",-0.0752500982474748,0.00531540825252526,0.0871946082525252,0.170222830252525,0.122153225252525,0.0599077300525253,-0.131895539947475,-0.117075217947475,-0.147135587947475,-0.0473847062474747,0.0114950952525253,-0.0184841892474747,0.105658290752525,0.0989718047525252,0.183330508752525,0.248876335752525,0.120987317752525,-0.0222952872474747,-0.149397665747475,-0.269692963247475,3084,"DG_s15",10.386,11.091,13.747,13.749,16,4,10,10,2.656,"Right",16,4,12,12,0,0,0,-12,0,-12,12,12,"Advent",6,-6,10,16,10,4
"97",4,"LHB4-LHB5",0.380723774318182,0.380801726818182,0.354556041818182,0.552524086818182,0.438630238818182,0.417323496418182,0.379530990418182,0.184622100418182,0.290258998418182,0.198889059318182,0.242604765318182,0.369361515318182,0.215818825318182,0.230327894818182,0.207465999818182,0.201067059818182,0.220562692318182,0.381161874318182,0.405449989818182,0.392295007418182,3084,"DG_s15",10.386,11.091,13.747,13.749,16,4,10,10,2.656,"Right",16,4,12,12,0,0,0,-12,0,-12,12,12,"Advent",6,-6,10,16,10,4
"98",4,"LAM1-LAM2",0.225908982479798,0.160644367479798,0.322652318479798,0.328733512979798,0.292750008979798,0.197748728979798,0.103331724479798,0.019917079479798,0.092374947229798,0.206082642229798,0.192948491729798,0.190265469729798,0.201500731979798,0.128927856979798,0.067992021479798,0.256959173479798,0.340116828479798,0.393252913479798,0.332750727979798,0.155625930279798,3084,"DG_s15",10.386,11.091,13.747,13.749,16,4,10,10,2.656,"Right",16,4,12,12,0,0,0,-12,0,-12,12,12,"Advent",6,-6,10,16,10,4
"99",4,"LIP2-LIP3",0.0667279893873738,0.122341064387374,0.0111546609373737,-0.0643956475626263,0.0209960097373738,0.156101524737374,0.346439375237374,0.322580548737374,0.248076423287374,0.0317224417873737,0.0147145442873737,0.0470185192873737,0.114992114737374,0.126655681237374,0.0403861135273738,0.101342298527374,0.0421072230273737,0.00891406302737374,-0.0561076415626263,-0.128655804212626,3084,"DG_s15",10.386,11.091,13.747,13.749,16,4,10,10,2.656,"Right",16,4,12,12,0,0,0,-12,0,-12,12,12,"Advent",6,-6,10,16,10,4
"100",4,"LHB7-LHB8",0.151065765631313,0.200230900631313,0.0750794976313131,0.152101438631313,0.255462335131313,0.217443864131313,0.342769216131313,0.214699980631313,0.227843330631313,0.216422708981313,0.156275949481313,0.309886111981313,0.197442716981313,0.224163733131313,0.222873264631313,0.181925642631313,0.185536372631313,0.181303642131313,0.198645342131313,0.134402446631313,3084,"DG_s15",10.386,11.091,13.747,13.749,16,4,10,10,2.656,"Right",16,4,12,12,0,0,0,-12,0,-12,12,12,"Advent",6,-6,10,16,10,4
"101",4,"LAM7-LAM8",0.238585037181818,0.249090238181818,0.171191843181818,0.218870991281818,0.0867976737818182,-0.118038616218182,-0.0926771897181818,-0.0917775403181818,-0.0940588374681818,-0.0840963094681818,-0.126342690968182,-0.265380875968182,-0.242117423818182,-0.264997573218182,-0.133697458718182,-0.0700918247181818,-0.0162186847181818,0.110825256681818,-0.0162088538181818,-0.0150998192181818,3084,"DG_s15",10.386,11.091,13.747,13.749,16,4,10,10,2.656,"Right",16,4,12,12,0,0,0,-12,0,-12,12,12,"Advent",6,-6,10,16,10,4
"102",4,"LIP4-LIP5",0.106456523070707,0.0256902220707071,-0.0352023714292929,-0.111219518929293,0.0520482790707071,0.0556599135707071,-0.00202319387929294,0.0632692506207071,-0.0422371193792929,-6.12278792929272e-05,0.0244582180707071,-0.0956531784292929,-0.115559603429293,-0.163766578429293,-0.104614839679293,0.134145590820707,0.126198580820707,0.0835554918207071,-0.0327976754292929,-0.0948556609292929,3084,"DG_s15",10.386,11.091,13.747,13.749,16,4,10,10,2.656,"Right",16,4,12,12,0,0,0,-12,0,-12,12,12,"Advent",6,-6,10,16,10,4
"103",4,"LIP3-LIP4",0.144571384168182,0.0972152876681818,-0.0966454538318182,-0.159884213831818,-0.0475124391818182,0.0409916603181818,0.202741351818182,0.253095829818182,0.129657328318182,0.0933785783181818,0.127954678318182,0.204471652068182,0.289702415068182,0.184034144568182,0.120653894568182,0.120641787818182,0.0480303063181818,-0.0772981681818182,-0.0881202436818182,-0.125715026681818,3084,"DG_s15",10.386,11.091,13.747,13.749,16,4,10,10,2.656,"Right",16,4,12,12,0,0,0,-12,0,-12,12,12,"Advent",6,-6,10,16,10,4
"104",4,"LIP6-LIP7",0.209865466712121,0.141162781712121,0.346069171212121,0.335222191212121,0.248329439712121,0.324952649712121,0.273872476712121,0.120432527712121,0.106927737212121,0.0189690542121212,-0.0339405277878788,0.0214177967121212,-0.0221489565778788,0.0607881064221212,-0.00128386357787879,0.000586154422121211,0.120455463712121,0.0878265487121212,0.139396378712121,0.212152190212121,3084,"DG_s15",10.386,11.091,13.747,13.749,16,4,10,10,2.656,"Right",16,4,12,12,0,0,0,-12,0,-12,12,12,"Advent",6,-6,10,16,10,4
"105",4,"LHH7-LHH8",-0.249531418419192,-0.195403388669192,-0.0636379481691919,-0.0382354891691919,-0.00394059316919192,0.0957732340808081,0.0840899125808081,0.0639432585808081,0.139918502580808,0.0300881455808081,-0.0454985994191919,-0.0293297289191919,-0.0147932589191919,0.0221494850808081,0.141661603580808,0.187492019580808,0.190197114580808,0.335421645580808,0.314876984580808,0.328148622580808,3084,"DG_s15",10.386,11.091,13.747,13.749,16,4,10,10,2.656,"Right",16,4,12,12,0,0,0,-12,0,-12,12,12,"Advent",6,-6,10,16,10,4
"106",4,"LHB6-LHB7",-0.0464227333939394,-0.0224810518939394,-0.0832070973939394,-0.128657056893939,-0.114247422393939,-0.172969878893939,-0.218755234893939,-0.243830071893939,-0.338618618393939,-0.315848502393939,-0.296819407443939,-0.270928938993939,-0.121875323493939,-0.0321012949939394,0.0599675965560606,0.0910216526060606,0.0895798426060606,0.0202919031060606,-0.0730752142439394,-0.100827929943939,3084,"DG_s15",10.386,11.091,13.747,13.749,16,4,10,10,2.656,"Right",16,4,12,12,0,0,0,-12,0,-12,12,12,"Advent",6,-6,10,16,10,4
"107",4,"LAM9-LAM10",0.225744396043434,0.0636087110434343,-0.0169227674565657,-0.0298090166065657,0.000802026193434342,0.0249580801934343,0.00678246819343434,-0.0429089980065657,-0.108115363006566,-0.131688802006566,-0.151513589606566,-0.0903180332565657,-0.0655747697565657,-0.196066049756566,-0.0864565271565657,-0.154045742156566,-0.151939648656566,0.0327776213434343,-0.0816360004565657,0.107862844543434,3084,"DG_s15",10.386,11.091,13.747,13.749,16,4,10,10,2.656,"Right",16,4,12,12,0,0,0,-12,0,-12,12,12,"Advent",6,-6,10,16,10,4
"108",4,"LIP8-LIP9",-0.257105860077778,-0.148889320077778,-0.0539032220777778,-0.176601650577778,-0.273785184277778,-0.378294424277778,-0.356629285277778,-0.323533930277778,-0.242676608777778,-0.190141686527778,-0.237691878527778,-0.162666704027778,-0.102482782472778,-0.0294860447227778,-0.0755233547227778,-0.163481019222778,-0.126395742277778,-0.244145567277778,-0.112607247277778,-0.0666345662777778,3084,"DG_s15",10.386,11.091,13.747,13.749,16,4,10,10,2.656,"Right",16,4,12,12,0,0,0,-12,0,-12,12,12,"Advent",6,-6,10,16,10,4
"109",4,"LHH6-LHH7",0.0212797507424242,0.0941159412424243,0.130132262742424,0.170545925742424,0.0827818757424242,-0.0592372492575758,-0.141621945757576,-0.138412396757576,-0.00353078725757576,0.0262810912424242,0.00118725124242424,0.0236158317424242,-0.0774030607575758,-0.0869633400075758,-0.0512963610075758,-0.102887588507576,-0.125150733757576,-0.161426662557576,-0.0884865565575758,-0.0252382635575758,3084,"DG_s15",10.386,11.091,13.747,13.749,16,4,10,10,2.656,"Right",16,4,12,12,0,0,0,-12,0,-12,12,12,"Advent",6,-6,10,16,10,4
"110",4,"LTT9-LTT10",0.125966278580808,0.135100592580808,0.137633973130808,0.00277572463080808,0.00111645963080808,0.00322462313080808,0.0738929845808081,0.225272216580808,0.265812676580808,0.311561464580808,0.179183229580808,0.0321284675808081,0.0656351105808081,0.0453315230808081,0.0748579310808081,0.0989498145808081,0.0781554965808081,0.0509922765808081,0.118775801580808,0.257117365980808,3084,"DG_s15",10.386,11.091,13.747,13.749,16,4,10,10,2.656,"Right",16,4,12,12,0,0,0,-12,0,-12,12,12,"Advent",6,-6,10,16,10,4
"111",4,"LAM5-LAM6",-0.0706905243939394,-0.0333069598939394,0.0482170501060606,0.0801257481060606,0.129672822106061,0.0427118121060606,0.132031312106061,0.112304005106061,0.0804912047560606,0.0984505267560606,0.0154184997560606,0.0488178967560606,0.0741535471060606,0.106742621106061,0.187195273106061,0.191093973106061,0.162961518106061,0.201787145606061,0.0298768806060606,0.0939529806060606,3084,"DG_s15",10.386,11.091,13.747,13.749,16,4,10,10,2.656,"Right",16,4,12,12,0,0,0,-12,0,-12,12,12,"Advent",6,-6,10,16,10,4
"112",4,"LIP5-LIP6",0.504716906873737,0.378931569073737,0.280756961573737,0.385908242073737,0.293337927073737,0.141549814873737,0.0530049918737374,-0.0737006611262626,-0.0835606306262626,-0.0916083456262626,-0.100423440776263,-0.0380467577762626,-0.0406591447762626,0.0718186852237374,0.0744955003737374,0.0801003453737374,0.0547698368737374,0.138168956873737,0.215941285373737,0.210714880373737,3084,"DG_s15",10.386,11.091,13.747,13.749,16,4,10,10,2.656,"Right",16,4,12,12,0,0,0,-12,0,-12,12,12,"Advent",6,-6,10,16,10,4
"113",4,"LHB5-LHB6",0.368024264469697,0.306057180319697,0.189234975819697,0.097847150819697,0.097755953319697,0.126289731469697,0.229632085969697,0.247974389569697,0.186674158619697,0.141715704619697,0.021358290619697,0.00822035301969697,0.183723143969697,0.246624797969697,0.417577511969697,0.429946785969697,0.231848419969697,0.233212405969697,0.196167190969697,0.251932050969697,3084,"DG_s15",10.386,11.091,13.747,13.749,16,4,10,10,2.656,"Right",16,4,12,12,0,0,0,-12,0,-12,12,12,"Advent",6,-6,10,16,10,4
"114",4,"LTT8-LTT9",0.0231568984343434,0.0165796606843435,-0.125018374815657,-0.198623947815657,-0.164373022815657,-0.207985127565657,-0.277238879065657,-0.262366440065657,-0.221524774065657,-0.170350396065657,-0.262717781565657,-0.336144423065657,-0.317678729565657,-0.308660304065657,-0.197078001565657,-0.166328351065657,-0.165552262565657,-0.207728484065657,-0.188322794065657,-0.169735261065657,3084,"DG_s15",10.386,11.091,13.747,13.749,16,4,10,10,2.656,"Right",16,4,12,12,0,0,0,-12,0,-12,12,12,"Advent",6,-6,10,16,10,4
"115",4,"LIP7-LIP8",0.130519137249495,0.132520290749495,0.097090581449495,0.148850037949495,0.184816284449495,0.227094994499495,0.389418647499495,0.525093586499495,0.407016473999495,0.362602856449495,0.0528191564494949,-0.276675393550505,-0.256913344355505,-0.224266026855505,-0.00755246185550505,0.141983558094495,0.214261729899495,0.145385729399495,0.0878417843994949,0.070694438949495,3084,"DG_s15",10.386,11.091,13.747,13.749,16,4,10,10,2.656,"Right",16,4,12,12,0,0,0,-12,0,-12,12,12,"Advent",6,-6,10,16,10,4
"116",4,"LAM6-LAM7",-0.288585175909091,-0.214364751909091,-0.136594341909091,-0.0994780119090909,-0.100143050409091,-0.0585141399090909,-0.0374693814090909,-0.0672174924090909,-0.0447642114590909,-0.0974539569590909,-0.120393593459091,-0.202532894409091,-0.241685684859091,-0.195266394859091,-0.116273011859091,0.0582562485909091,0.106255667090909,0.124946837090909,0.0530460796409091,0.0189778496409091,3084,"DG_s15",10.386,11.091,13.747,13.749,16,4,10,10,2.656,"Right",16,4,12,12,0,0,0,-12,0,-12,12,12,"Advent",6,-6,10,16,10,4
"117",5,"LHB8-LHB9",-0.40464821990404,-0.34371862490404,-0.27893695040404,-0.0861343544040404,-0.00395775440404039,0.0357588195959596,0.00186621359595959,-0.17067714245404,-0.23794077545404,-0.36095458945404,-0.35639063945404,-0.26417673690404,-0.10499891390404,-0.0245339539040404,0.0494231460959596,-0.0070948414040404,-0.0922739014040404,-0.20535426240404,-0.29159692590404,-0.17192571990404,3085,"DG_s15",14.75,15.456,17.897,17.899,10,10,6,6,2.441,"Right",6,6,0,0,0,0,0,0,0,0,0,0,"10-10",4,4,6,10,6,10
"118",5,"LAM4-LAM5",0.265490799833333,0.305903209833333,0.351209691333333,0.283614223333333,0.248828789833333,0.168085919083333,0.124137444083333,0.166347496083333,0.231733191583333,0.259345129533333,0.182763690533333,0.150302733533333,0.114940069033333,0.242677271833333,0.270860108683333,0.264682459183333,0.170764658183333,0.0252232696833333,0.0422483618333333,0.0561250388333333,3085,"DG_s15",14.75,15.456,17.897,17.899,10,10,6,6,2.441,"Right",6,6,0,0,0,0,0,0,0,0,0,0,"10-10",4,4,6,10,6,10
"119",5,"LIP1-LIP2",0.137323555727273,0.168498064727273,0.0563402392272727,-0.113324530772727,-0.158979766272727,-0.180158332772727,-0.158070167272727,-0.145387022272727,-0.126256260272727,-0.134755700272727,-0.138095021272727,-0.168626680272727,-0.204784512772727,-0.210731888772727,-0.126613882772727,-0.122763898772727,-0.157457530772727,-0.176756570887727,-0.212969004887727,-0.144515975387727,3085,"DG_s15",14.75,15.456,17.897,17.899,10,10,6,6,2.441,"Right",6,6,0,0,0,0,0,0,0,0,0,0,"10-10",4,4,6,10,6,10
"120",5,"LAM3-LAM4",0.0209439898409091,-0.0321202979590909,0.0745430899909091,0.131899602540909,0.0840675345409091,0.198488560040909,0.147787604090909,0.183708280590909,0.274410603590909,0.303800908090909,0.246057979090909,0.131115956940909,0.0763945959409091,0.0990228119409091,0.0672245889409091,0.147966025590909,0.0990552305909091,0.131198949590909,0.128262585090909,0.0814736040909091,3085,"DG_s15",14.75,15.456,17.897,17.899,10,10,6,6,2.441,"Right",6,6,0,0,0,0,0,0,0,0,0,0,"10-10",4,4,6,10,6,10
"121",5,"LAM1-LAM2",0.118500934988384,0.156228070988384,0.118623277338384,0.0997670138383839,0.157648646338384,0.0993905668383838,0.145196596838384,0.188174335338384,0.203768881188384,0.276527833313384,0.283285833313384,0.242052884963384,0.231861194113384,0.234807785488384,0.279331085488384,0.213197066338384,0.192616646338384,0.0775893273383838,0.0728565773383838,0.168330230838384,3085,"DG_s15",14.75,15.456,17.897,17.899,10,10,6,6,2.441,"Right",6,6,0,0,0,0,0,0,0,0,0,0,"10-10",4,4,6,10,6,10
"122",5,"LIP5-LIP6",0.0920754456969697,-0.00390077130303029,0.0439029836969697,-0.0870701363030303,-0.0376772543030303,-0.12359688230303,-0.34519698230303,-0.32839075262303,-0.28211097809303,-0.13530088259303,-0.0436931675930303,-0.0778631357730303,-0.16450019380303,-0.18967136480303,-0.17967774980303,-0.20206996630303,-0.16662239230303,-0.11863046130303,-0.26527014130303,-0.31272089130303,3085,"DG_s15",14.75,15.456,17.897,17.899,10,10,6,6,2.441,"Right",6,6,0,0,0,0,0,0,0,0,0,0,"10-10",4,4,6,10,6,10
"123",5,"LAM9-LAM10",-0.0862901013949495,-0.0517972003949495,-0.0093913793949495,-0.101041049494949,0.0455034570050505,0.0644536870050505,-0.0602058279949495,0.0175857340550505,-0.0319902674449495,-0.26231149244495,-0.204367707944949,-0.189615566994949,-0.101821496994949,-0.0117419794949495,-0.0226260404949495,-0.0416981434949495,-0.16074448499495,-0.0690178324949495,-0.00441887599494949,0.17569830400505,3085,"DG_s15",14.75,15.456,17.897,17.899,10,10,6,6,2.441,"Right",6,6,0,0,0,0,0,0,0,0,0,0,"10-10",4,4,6,10,6,10
"124",5,"LHB9-LHB10",-0.390412296535354,-0.341719541035354,-0.414549078035354,-0.277502790535354,-0.241864074035354,-0.151051940035354,-0.0563662570353536,-0.221838772035354,-0.219041489035354,-0.206876490535354,-0.230278998035354,-0.174641045535354,-0.185541576035354,-0.221495369035354,-0.236225734035354,-0.241283084035354,-0.235728161035354,-0.150077821035354,-0.0974401345353536,-0.0708973495353535,3085,"DG_s15",14.75,15.456,17.897,17.899,10,10,6,6,2.441,"Right",6,6,0,0,0,0,0,0,0,0,0,0,"10-10",4,4,6,10,6,10
"125",5,"LAM8-LAM9",-0.0498120203378788,-0.0750670555878788,-0.0188834590878788,-0.141392331087879,-0.125943956937879,-0.188764234937879,-0.313133405687879,-0.176917594887879,-0.0393312470378788,0.0227362919621212,0.131677714212121,0.115641474212121,0.119150163712121,0.0118373972121212,0.0511832237121212,-0.0196872312878788,-0.182958178037879,-0.106747853037879,-0.0908831585378788,-0.0529869575378788,3085,"DG_s15",14.75,15.456,17.897,17.899,10,10,6,6,2.441,"Right",6,6,0,0,0,0,0,0,0,0,0,0,"10-10",4,4,6,10,6,10
"126",5,"LIP2-LIP3",0.244442787582828,0.108779422582828,0.0408511902828283,-0.0190311747171717,-0.0859261592171717,0.0571582257828283,0.0602666832828283,-0.0434080097171717,0.0561895502828283,0.00702397978282829,-0.0463849102171717,-0.0444711222171717,-0.233373837717172,-0.177730262217172,-0.133674426267172,-0.0462555267671717,0.0265223017328283,-0.0683142462671717,-0.0129508367171717,-0.0607171062171717,3085,"DG_s15",14.75,15.456,17.897,17.899,10,10,6,6,2.441,"Right",6,6,0,0,0,0,0,0,0,0,0,0,"10-10",4,4,6,10,6,10
"127",5,"LHH5-LHH6",-0.0954232023333333,0.0992178311666667,0.172344105666667,0.180731417666667,0.188915597166667,0.127784169666667,-0.0684376448333333,-0.146527739833333,-0.195327746833333,-0.230279305333333,-0.131308189583333,-0.0652865055833333,0.0242279979166667,0.00646831891666669,0.0843178531666667,0.0698930666666667,-0.0330734977833333,-0.0624473477833333,-0.0742171542833333,-0.160790153283333,3085,"DG_s15",14.75,15.456,17.897,17.899,10,10,6,6,2.441,"Right",6,6,0,0,0,0,0,0,0,0,0,0,"10-10",4,4,6,10,6,10
"128",5,"LAM5-LAM6",0.153081336424444,0.223772761944444,0.207563007394444,0.176297382394444,0.0825322158944445,-0.0295252551055556,-0.110385535555556,-0.130458170555556,-0.0114218365555556,0.128441589444444,0.179772952444444,0.132197396944444,0.0734084564444444,-0.0916102230555556,-0.0682989795555556,-0.0313259010555555,-0.0376471605555556,0.121910538944444,0.0810761024444444,0.0877392244444445,3085,"DG_s15",14.75,15.456,17.897,17.899,10,10,6,6,2.441,"Right",6,6,0,0,0,0,0,0,0,0,0,0,"10-10",4,4,6,10,6,10
"129",5,"LHH4-LHH5",-0.0119454321010101,-0.0439630906010101,0.0570089728989899,0.15872447239899,0.14661071789899,0.12339185639899,0.11818661189899,-0.000747853101010096,0.14620744839899,0.23150027339899,0.22460581489899,0.31181768989899,0.23240800739899,0.0673097473989899,-0.0969598031010101,-0.21068080310101,-0.21207997560101,-0.0277110585510101,0.11867822944899,0.16202737294899,3085,"DG_s15",14.75,15.456,17.897,17.899,10,10,6,6,2.441,"Right",6,6,0,0,0,0,0,0,0,0,0,0,"10-10",4,4,6,10,6,10
"130",5,"LIP4-LIP5",-0.126288441244444,-0.0768110597444444,-0.0270167319444444,-0.0412361594444444,0.0394517025555556,0.00494027255555557,0.0374318325555556,-0.00714906169444443,-0.0395094801944444,-0.186020400194444,-0.371765500194444,-0.346326875944444,-0.330432312994444,-0.260182560994444,-0.134734731494444,-0.0744413174944444,-0.116462025944444,0.0587680220555556,0.0729564600555556,0.143092493555556,3085,"DG_s15",14.75,15.456,17.897,17.899,10,10,6,6,2.441,"Right",6,6,0,0,0,0,0,0,0,0,0,0,"10-10",4,4,6,10,6,10
"131",5,"LAM2-LAM3",-0.139456630867677,0.0478585222323232,0.118229136232323,0.217508672232323,0.271491774232323,0.281662860232323,0.236850602732323,0.273386070232323,0.258764448232323,0.144167056732323,0.116434799232323,-0.0279573682676768,-0.0113398132676768,0.0215785182323232,0.0705448487323232,0.120772166232323,-0.00812230876767677,-0.0673423317676768,-0.0174250147676768,-0.0419871188176768,3085,"DG_s15",14.75,15.456,17.897,17.899,10,10,6,6,2.441,"Right",6,6,0,0,0,0,0,0,0,0,0,0,"10-10",4,4,6,10,6,10
"132",5,"LHB7-LHB8",-0.0917680569358586,0.00147314806414142,0.0811968660641414,0.172463367064141,0.146530780914141,0.152801889914141,0.0703286039141414,-0.0501960260858586,-0.169250600585859,-0.140434359585859,-0.0881257305858586,-0.0739346815858586,-0.0240837040858586,-0.110862408085859,-0.197830150085859,-0.201401033085859,-0.139065209085859,-0.214993455085859,-0.196283182085859,-0.148195614085859,3085,"DG_s15",14.75,15.456,17.897,17.899,10,10,6,6,2.441,"Right",6,6,0,0,0,0,0,0,0,0,0,0,"10-10",4,4,6,10,6,10
"133",5,"LAM7-LAM8",-0.0710212097060606,0.00500704229393939,0.00431892834393939,-0.00462668915606061,-0.0931829711560606,-0.188254716156061,-0.226043216606061,-0.158130776091061,-0.0861477285910606,-0.0406720925910606,-0.0311534432410606,-0.0817405447560606,-0.0344899852560606,-0.139475632756061,-0.123306485106061,-0.130348919106061,-0.230428436106061,-0.0819214621060606,-0.0815700096060606,-0.0687539493060606,3085,"DG_s15",14.75,15.456,17.897,17.899,10,10,6,6,2.441,"Right",6,6,0,0,0,0,0,0,0,0,0,0,"10-10",4,4,6,10,6,10
"134",5,"LIP7-LIP8",-0.272310041565152,-0.361433301565152,-0.361035675815152,-0.316128832815152,-0.425108590315152,-0.386181124815152,-0.320985707015152,-0.277830867015152,-0.253261474515152,-0.274776070015152,-0.280521198515152,-0.233198403515152,-0.218509195515152,-0.202990773015152,-0.175654862015152,-0.292989432015152,-0.326229265015152,-0.216331982515152,-0.204732462015152,-0.118791432015152,3085,"DG_s15",14.75,15.456,17.897,17.899,10,10,6,6,2.441,"Right",6,6,0,0,0,0,0,0,0,0,0,0,"10-10",4,4,6,10,6,10
"135",5,"LTT8-LTT9",-0.100344664858586,-0.126249834033586,-0.190901984033586,-0.208116834033586,-0.106775088033586,-0.0684019923585859,-0.0131960468585859,0.136946768141414,0.119687918141414,0.0613361846414141,0.141295895141414,0.0402987621914142,0.106741052191414,0.168274971191414,0.0878034671914141,-0.00905442485858586,-0.134568039858586,-0.204000727358586,-0.184373624358586,0.00759086064141413,3085,"DG_s15",14.75,15.456,17.897,17.899,10,10,6,6,2.441,"Right",6,6,0,0,0,0,0,0,0,0,0,0,"10-10",4,4,6,10,6,10
"136",5,"LIP3-LIP4",0.0389450628181818,0.153342580318182,0.172314373318182,0.0316798518181818,-0.102634055681818,-0.141736478281818,-0.0542024307818182,0.0178128302181818,0.234152942218182,0.302089692818182,0.226751920318182,0.238920200318182,0.0847929968181818,0.00177196181818182,0.0288108278181818,-0.0603463294318182,-0.0753237603818182,-0.130503955881818,-0.213838064881818,-0.218608139631818,3085,"DG_s15",14.75,15.456,17.897,17.899,10,10,6,6,2.441,"Right",6,6,0,0,0,0,0,0,0,0,0,0,"10-10",4,4,6,10,6,10
"137",5,"LHH7-LHH8",0.362302825510101,0.362353317010101,0.231786103010101,0.272410665510101,0.181022587510101,0.104082097510101,0.078492965010101,-0.00587326098989899,0.043690265510101,-0.00339762498989899,-0.022961845039899,-0.122458839039899,-0.094588195039899,0.078662599460101,0.125620166510101,0.350412636510101,0.436260821010101,0.373940494510101,0.426619010010101,0.303203870010101,3085,"DG_s15",14.75,15.456,17.897,17.899,10,10,6,6,2.441,"Right",6,6,0,0,0,0,0,0,0,0,0,0,"10-10",4,4,6,10,6,10
"138",5,"LHB6-LHB7",-0.0739938731919192,-0.0685789131919192,-0.0438204881919192,-0.173413499191919,-0.264146400191919,-0.264076500191919,-0.247001371191919,-0.144128275191919,-0.0197467111919192,0.0590484813080808,0.0198365098080808,-0.0561701701919192,-0.142858549191919,-0.218839579191919,-0.206056343691919,-0.0977496236919192,-0.00753085619191919,-0.0274986236919192,0.0214755353080808,-0.165596259691919,3085,"DG_s15",14.75,15.456,17.897,17.899,10,10,6,6,2.441,"Right",6,6,0,0,0,0,0,0,0,0,0,0,"10-10",4,4,6,10,6,10
"139",5,"LAM6-LAM7",0.282850678217677,0.126697973217677,0.190872218217677,0.222401014067677,0.162116692317677,0.263515667317677,0.0969322903176768,0.0119929490176768,0.0202484258176768,-0.0845896096823232,0.137777232317677,0.237562542817677,0.266779284267677,0.234174606267677,0.0444333422676768,0.0343881247676768,-0.0350386977323232,0.0322780857676768,0.130897522267677,0.0782332742676768,3085,"DG_s15",14.75,15.456,17.897,17.899,10,10,6,6,2.441,"Right",6,6,0,0,0,0,0,0,0,0,0,0,"10-10",4,4,6,10,6,10
"140",5,"LHB5-LHB6",0.0318897135464647,-0.0661245002035353,-0.121707979203535,-0.253344284203535,-0.350410050853535,-0.220926355853535,-0.197844222003535,-0.0775854670035353,0.00195939799646466,0.0265287929964647,-0.0184792467535353,-0.0216923317535354,-0.0693038367535353,-0.126746943253535,-0.0383480618535353,-0.156671604853535,-0.119174734853535,-0.240102128353535,-0.316213783353535,-0.0677196603535353,3085,"DG_s15",14.75,15.456,17.897,17.899,10,10,6,6,2.441,"Right",6,6,0,0,0,0,0,0,0,0,0,0,"10-10",4,4,6,10,6,10
"141",5,"LHB4-LHB5",0.0686012248449495,0.0103423319949495,-0.0885225432050505,-0.0614714977050505,0.0467413477949495,0.138710263794949,0.18417798399495,0.246113735494949,0.23139060799495,0.114185386994949,0.168135161344949,0.0610176013449495,0.0969160293449495,0.17859141784495,0.189932086494949,0.27933576649495,0.210527390994949,0.244605291994949,0.31594613399495,0.29264781499495,3085,"DG_s15",14.75,15.456,17.897,17.899,10,10,6,6,2.441,"Right",6,6,0,0,0,0,0,0,0,0,0,0,"10-10",4,4,6,10,6,10
"142",5,"LTT9-LTT10",-0.0777599556313131,0.0412870473686869,0.157042627368687,0.286844597368687,0.180898074368687,0.195453926368687,-0.000791392131313143,-0.0821339321313131,-0.151994050631313,-0.226216093631313,-0.146665415131313,-0.0806820701313131,0.149024308868687,0.202495686868687,0.231260157368687,0.0996921628686869,-0.0700499371313131,-0.0225841061313131,-0.118826452631313,-0.0948068151313131,3085,"DG_s15",14.75,15.456,17.897,17.899,10,10,6,6,2.441,"Right",6,6,0,0,0,0,0,0,0,0,0,0,"10-10",4,4,6,10,6,10
"143",5,"LHH6-LHH7",-0.096645752479798,-0.015040312479798,0.094446392520202,0.113031884520202,0.178008347020202,0.203812374520202,0.216400256020202,0.204706276520202,0.207356681520202,0.225267558520202,0.194687525020202,0.174395446520202,0.186003348020202,0.053064303520202,-0.00827433447979798,0.082329123520202,0.082994642020202,0.173552401520202,0.223438551520202,0.171883344520202,3085,"DG_s15",14.75,15.456,17.897,17.899,10,10,6,6,2.441,"Right",6,6,0,0,0,0,0,0,0,0,0,0,"10-10",4,4,6,10,6,10
"144",5,"LIP6-LIP7",-0.375093617949495,-0.443481474949495,-0.311364261449495,-0.366665368449495,-0.390715087949495,-0.385607106949495,-0.455447070449495,-0.453855792949495,-0.455944629449495,-0.407876837449495,-0.424162437449495,-0.472666492949495,-0.508314251449495,-0.539210417449495,-0.429252655949495,-0.303988905949495,-0.104012220949495,0.019037506550505,0.072892717050505,0.031924840550505,3085,"DG_s15",14.75,15.456,17.897,17.899,10,10,6,6,2.441,"Right",6,6,0,0,0,0,0,0,0,0,0,0,"10-10",4,4,6,10,6,10
"145",5,"LIP8-LIP9",0.171454628525253,0.187410051525253,0.134175754525253,0.168082000525253,-0.0585463659747475,-0.131064687474747,0.0211603695252525,0.0303163170252525,0.113623973525253,0.185850755025253,0.0134164450252525,0.0316732915252525,-0.00634088847474747,-0.0749138644747475,-0.0390872709747475,-0.0639457584747475,-0.0177014706247475,-0.00213039362474747,-0.0581695831247475,-0.0111183196247475,3085,"DG_s15",14.75,15.456,17.897,17.899,10,10,6,6,2.441,"Right",6,6,0,0,0,0,0,0,0,0,0,0,"10-10",4,4,6,10,6,10
"146",6,"LAM8-LAM9",0.0859627580606061,0.160532238060606,0.185909805560606,-0.0574597944393939,-0.0719555191393939,-0.175128039139394,-0.303153609139394,-0.145686484139394,-0.0314063564393939,0.00334393956060605,0.121754368560606,0.083632156560606,-0.0290872918393939,-0.081031102339394,-0.0867394238393939,-0.0729090328393939,-0.0603404994393939,-0.0338515704393939,-0.0859067639393939,-0.134671042939394,3086,"DG_s15",18.9,19.605,22.571,22.573,10,10,8,11,2.966,"Right",8,11,3,0,3,3,3,0,0,0,-3,0,"10-10",2,-1,8,10,11,10
"147",6,"LHB9-LHB10",-0.139479129756566,-0.119721920756566,-0.181957567756566,-0.216052352156566,-0.195615583656566,-0.173047722656566,-0.0902365056565656,-0.0177870801565656,-0.0629267516565656,-0.0221638536565656,-0.0372182486565656,-0.0680445686565656,-0.0214931160065656,0.000805913993434354,-0.131747956006566,-0.0997993770065656,-0.168286061656566,-0.224772913156566,-0.257475428156566,-0.299843569856566,3086,"DG_s15",18.9,19.605,22.571,22.573,10,10,8,11,2.966,"Right",8,11,3,0,3,3,3,0,0,0,-3,0,"10-10",2,-1,8,10,11,10
"148",6,"LHH4-LHH5",-0.404585964156566,-0.261981159156566,-0.198953182156566,-0.150225862156566,-0.224491728656566,-0.269508663656566,-0.344044324156566,-0.293527630656566,-0.136720209156566,-0.201286128156566,-0.151465236156566,-0.0998382096565657,-0.164795946156566,-0.153478072156566,-0.191762440656566,-0.291540822156566,-0.249916654656566,-0.164814974656566,-0.194211229656566,-0.0727178531565657,3086,"DG_s15",18.9,19.605,22.571,22.573,10,10,8,11,2.966,"Right",8,11,3,0,3,3,3,0,0,0,-3,0,"10-10",2,-1,8,10,11,10
"149",6,"LAM1-LAM2",0.0701847034545455,0.0201952879545455,0.111804077454545,0.129062367454545,0.132972225954545,0.184324798954545,0.0814704089545455,-0.00813876804545455,-0.104980866545455,-0.141225590545455,-0.107618015545455,-0.114469199595455,-0.0313194490954545,0.0255757347695455,0.124042001769545,0.142852824319545,0.108840839319545,0.0799581339545455,0.0766571919545455,0.145939590454545,3086,"DG_s15",18.9,19.605,22.571,22.573,10,10,8,11,2.966,"Right",8,11,3,0,3,3,3,0,0,0,-3,0,"10-10",2,-1,8,10,11,10
"150",6,"LHB8-LHB9",-0.125509910555556,-0.0433841905555555,-0.0445613390555556,-0.0751803680555556,-0.0457412530555556,-0.0946489425555556,-0.142455014555556,-0.222438535555556,-0.184986356055556,-0.143891228055556,-0.00571384605555555,0.135643103944444,0.114007628219444,0.0790942202194445,-0.0126316187805555,0.00271080121944445,-0.00851685355555555,0.0525873759444445,0.0704929914444445,0.0979420714444444,3086,"DG_s15",18.9,19.605,22.571,22.573,10,10,8,11,2.966,"Right",8,11,3,0,3,3,3,0,0,0,-3,0,"10-10",2,-1,8,10,11,10
"151",6,"LAM3-LAM4",0.240399507215657,0.278169966215657,0.185300704065657,0.121469924065657,0.0274248870656566,-0.122038814434343,-0.0777438479343434,-0.0560801649343434,0.0553815500656566,0.134248531065657,0.247203339565657,0.185172179065657,0.303614789065657,0.283602320065657,0.249773686065657,0.316053607565657,0.187180090565657,0.0969770815656566,0.0682921530656566,-0.0540070335843434,3086,"DG_s15",18.9,19.605,22.571,22.573,10,10,8,11,2.966,"Right",8,11,3,0,3,3,3,0,0,0,-3,0,"10-10",2,-1,8,10,11,10
"152",6,"LIP4-LIP5",0.166025364848485,0.0863939443484848,-0.159951802401515,-0.0982979834015151,-0.0595814029015151,-0.00148925590151516,0.129430850848485,0.0163720353484849,-0.0625507116515152,-0.0910996266515152,-0.156198792651515,-0.245286737151515,-0.0747539551515151,-0.0129984561515152,-0.0376039051515152,-0.0206586851515151,-0.0525219616515152,-0.108807431151515,-0.0991694261515152,-0.0842736896515151,3086,"DG_s15",18.9,19.605,22.571,22.573,10,10,8,11,2.966,"Right",8,11,3,0,3,3,3,0,0,0,-3,0,"10-10",2,-1,8,10,11,10
"153",6,"LIP5-LIP6",-0.411165038961616,-0.384457073961616,-0.378818961961616,-0.342813479161616,-0.208366989161616,-0.0974389616616162,0.0228933428383838,-0.0778979291616162,-0.163087111161616,-0.283422685661616,-0.416017559161616,-0.299316979161616,-0.241106952161616,-0.177743649661616,-0.00551720566161618,0.0598662343383838,-0.00931691116161618,0.138210998338384,0.0207423594383838,-0.125374755561616,3086,"DG_s15",18.9,19.605,22.571,22.573,10,10,8,11,2.966,"Right",8,11,3,0,3,3,3,0,0,0,-3,0,"10-10",2,-1,8,10,11,10
"154",6,"LHH5-LHH6",0.171499036636364,0.129514858136364,0.102666869636364,0.191707480836364,0.127019535836364,0.111331519836364,0.0552636453363636,0.0879370396363636,0.0311719226363636,0.123370473636364,0.169328822636364,0.0925653246363636,0.174497661636364,0.0118705466363636,0.00688840013636363,0.0167648026363636,-0.0143973378636364,0.0522191566363636,0.00769980263636363,0.0148689201363636,3086,"DG_s15",18.9,19.605,22.571,22.573,10,10,8,11,2.966,"Right",8,11,3,0,3,3,3,0,0,0,-3,0,"10-10",2,-1,8,10,11,10
"155",6,"LHB4-LHB5",0.104594332040404,0.127896677040404,0.144470882085404,0.040225439085404,0.064634171085404,0.051603462085404,-0.027473121459596,0.067515541540404,0.143234390540404,0.132777219540404,0.186201434040404,0.205601559040404,0.166759364040404,0.161120895040404,0.168783875040404,0.136817835040404,-0.00665837295959596,0.022223031040404,-0.00855801145959596,-0.100399093459596,3086,"DG_s15",18.9,19.605,22.571,22.573,10,10,8,11,2.966,"Right",8,11,3,0,3,3,3,0,0,0,-3,0,"10-10",2,-1,8,10,11,10
"156",6,"LHH7-LHH8",-0.0944537807707071,-0.0792708957707071,-0.116839677270707,-0.0799076348707071,-0.0253984493707071,0.00752731962929293,-0.040843617370707,-0.0705475083707071,-0.101171938870707,-0.0768957018707071,-0.0896575603707071,-0.0476763693707071,-0.010388622870707,-0.117122173870707,-0.112778684870707,-0.118432848870707,-0.215366675370707,-0.132263650370707,-0.148295857170707,-0.237223403170707,3086,"DG_s15",18.9,19.605,22.571,22.573,10,10,8,11,2.966,"Right",8,11,3,0,3,3,3,0,0,0,-3,0,"10-10",2,-1,8,10,11,10
"157",6,"LAM5-LAM6",0.0357243509242424,0.0757601629242424,0.0513018459242424,-0.00167047857575757,0.0602956664242424,0.165642157924242,0.441044944924242,0.451917654924242,0.385685874424242,0.176571718924242,0.0760393274242424,0.117792018924242,0.0894551444242424,0.0772910669242424,-0.120021261575758,-0.195923431575758,-0.232172901575758,-0.193473920075758,-0.109028530825758,0.00549951717424242,3086,"DG_s15",18.9,19.605,22.571,22.573,10,10,8,11,2.966,"Right",8,11,3,0,3,3,3,0,0,0,-3,0,"10-10",2,-1,8,10,11,10
"158",6,"LAM2-LAM3",0.153719273934343,0.254182967434343,0.315603888934343,0.160442848934343,0.193261426934343,0.0804538719343434,0.0273930564343434,0.0959066224343434,0.0929219369343434,0.162024166934343,0.378799384434343,0.300307246434343,0.372448504934343,0.334385844934343,0.191862327434343,0.305293339434343,0.303662956934343,0.295004251434343,0.329335286434343,0.206194797484343,3086,"DG_s15",18.9,19.605,22.571,22.573,10,10,8,11,2.966,"Right",8,11,3,0,3,3,3,0,0,0,-3,0,"10-10",2,-1,8,10,11,10
"159",6,"LHB7-LHB8",-0.0376738696313131,-0.0352455061313131,-0.00175431808131313,-0.0174957485813131,-0.000260043081313131,0.0718473834186869,0.0992337188686869,0.153205070868687,0.0333934553686869,-0.0692383771313131,-0.0609723646313131,-0.0189045096313131,0.0794268853686869,0.0723471978686869,0.112770186868687,0.0689521268686869,-0.0182956586313131,-0.0113457886313131,0.00620087386868687,-0.00325966033131313,3086,"DG_s15",18.9,19.605,22.571,22.573,10,10,8,11,2.966,"Right",8,11,3,0,3,3,3,0,0,0,-3,0,"10-10",2,-1,8,10,11,10
"160",6,"LIP7-LIP8",-0.288128022868687,-0.234937213368687,-0.0490262283686869,-0.0974107123686869,-0.154821080868687,-0.186629663368687,-0.283669797368687,-0.303475127368687,-0.200837362368687,-0.154858827868687,-0.0341231748686869,0.0461734101313131,0.0135286951313131,-0.114589459368687,-0.218522714368687,-0.231686819368687,-0.329912837368687,-0.318954181868687,-0.303007230868687,-0.440251435868687,3086,"DG_s15",18.9,19.605,22.571,22.573,10,10,8,11,2.966,"Right",8,11,3,0,3,3,3,0,0,0,-3,0,"10-10",2,-1,8,10,11,10
"161",6,"LHB6-LHB7",0.185016019190909,0.0903546621909091,-0.125640432809091,0.00329773059090908,0.107540872590909,0.200081299090909,0.256310463340909,0.135826968340909,0.00360221284090909,0.0538156458409091,0.0933395535909091,0.0592757305909091,0.0505993280909091,-0.0121532969090909,0.0288239195909091,-0.00678378940909091,0.0887877135909091,-0.0286365114090909,0.0265473610909091,0.0878856740909091,3086,"DG_s15",18.9,19.605,22.571,22.573,10,10,8,11,2.966,"Right",8,11,3,0,3,3,3,0,0,0,-3,0,"10-10",2,-1,8,10,11,10
"162",6,"LIP3-LIP4",-0.0665822803737374,-0.108437633173737,-0.115271505673737,-0.168787628173737,-0.180339024173737,-0.176432524573737,-0.138583492073737,-0.0508261835737374,-0.0483185105737374,0.167911991626263,0.363638056626263,0.377268150626263,0.439086245126263,0.165017885126263,-0.0578175458737374,0.0194708911262626,0.0149185436262626,0.0673422221262626,0.150369929626263,0.0360174196262626,3086,"DG_s15",18.9,19.605,22.571,22.573,10,10,8,11,2.966,"Right",8,11,3,0,3,3,3,0,0,0,-3,0,"10-10",2,-1,8,10,11,10
"163",6,"LIP2-LIP3",-0.144584956262626,-0.241088057762626,-0.249612592762626,-0.244083047762626,-0.175486852262626,-0.217911078762626,-0.152922577762626,-0.191808392762626,-0.188140695762626,-0.142145704262626,-0.0872182867626263,-0.108255203762626,-0.158697327762626,-0.273813972762626,-0.356327131262626,-0.223638862262626,-0.122362440762626,-0.0429850293626263,-0.0234298283626263,-0.253337465362626,3086,"DG_s15",18.9,19.605,22.571,22.573,10,10,8,11,2.966,"Right",8,11,3,0,3,3,3,0,0,0,-3,0,"10-10",2,-1,8,10,11,10
"164",6,"LTT9-LTT10",-0.0378870753030303,-0.0760673553030303,-0.13980390230303,-0.14090403730303,-0.11499615730303,-4.55373030303075e-05,0.0736000096969697,0.0519752061969697,0.0273929536969697,-0.0349499658030303,-0.0749642248030303,-0.0345332458030303,-0.0230326383030303,0.0697161711969697,0.10368385669697,0.16160905819697,0.14587257069697,0.19010974569697,0.0664197241969697,-0.0500178768030303,3086,"DG_s15",18.9,19.605,22.571,22.573,10,10,8,11,2.966,"Right",8,11,3,0,3,3,3,0,0,0,-3,0,"10-10",2,-1,8,10,11,10
"165",6,"LAM4-LAM5",0.160721042368687,0.183795346868687,0.265681895368687,0.0305261803686869,-0.0435649991313131,-0.0538626551313131,-0.0760144491313131,-0.00962210713131313,-0.0830767176313131,-0.0715304301313131,-0.0518878621313131,-0.00573772813131313,0.115860032868687,0.0199917328686869,0.0591081138686869,0.0253691878686869,-0.0363670176313131,0.0488006773686869,0.0664253123686869,0.223742522368687,3086,"DG_s15",18.9,19.605,22.571,22.573,10,10,8,11,2.966,"Right",8,11,3,0,3,3,3,0,0,0,-3,0,"10-10",2,-1,8,10,11,10
"166",6,"LAM9-LAM10",0.0683033285909091,0.0089996248209091,0.0585997088209091,-0.0418425616790909,-0.0497078416790909,-0.0184057449090909,-0.117940600909091,-0.167104340909091,-0.135308153809091,-0.199066333809091,-0.271544613809091,-0.214654471809091,-0.223304966909091,-0.211113981909091,-0.150708271459091,-0.130685645959091,-0.153522492959091,-0.0828267929590909,-0.122131697409091,-0.0843473409090909,3086,"DG_s15",18.9,19.605,22.571,22.573,10,10,8,11,2.966,"Right",8,11,3,0,3,3,3,0,0,0,-3,0,"10-10",2,-1,8,10,11,10
"167",6,"LAM6-LAM7",-0.176132814215657,-0.286172944715657,-0.248625194715657,-0.144853819715657,-0.0344830615656566,-0.00982366606565654,-0.0544115395656566,-0.245035964565657,-0.279070577065657,-0.167093183065657,-0.140994897065657,-0.0922963971156566,-0.161886501965657,-0.227973807465657,-0.152552328465657,-0.167213082415657,-0.184125497065657,-0.262570381565657,-0.399373721565657,-0.385288517315657,3086,"DG_s15",18.9,19.605,22.571,22.573,10,10,8,11,2.966,"Right",8,11,3,0,3,3,3,0,0,0,-3,0,"10-10",2,-1,8,10,11,10
"168",6,"LIP1-LIP2",0.262591454318182,0.158874661318182,0.198238386818182,0.128027291318182,0.0753380463181818,0.150113804318182,0.109436519818182,0.0723394568181818,0.128786535318182,-0.0308782796818182,-0.0545924546818182,-0.0878438136818182,-0.100872253181818,-0.110193153181818,-0.167443646681818,0.0293265408181818,0.0468684248181818,0.130536665318182,0.164156190318182,0.0517953413181818,3086,"DG_s15",18.9,19.605,22.571,22.573,10,10,8,11,2.966,"Right",8,11,3,0,3,3,3,0,0,0,-3,0,"10-10",2,-1,8,10,11,10
"169",6,"LIP6-LIP7",0.181080007224747,0.0501056492247475,0.0114715532247475,-0.0404363085252525,-0.102517453525253,-0.161481298525253,-0.190930602525253,-0.150636254525253,-0.123372284525253,-0.0631887645252525,-0.0713004795252525,0.0176271524747475,0.0760071074747475,0.113227130474747,0.179740717474747,0.146439546224747,0.114609202724747,0.279280459724748,0.213971535724747,0.147128453974747,3086,"DG_s15",18.9,19.605,22.571,22.573,10,10,8,11,2.966,"Right",8,11,3,0,3,3,3,0,0,0,-3,0,"10-10",2,-1,8,10,11,10
"170",6,"LAM7-LAM8",-0.0393017101666667,-0.252893612666667,-0.341144701666667,-0.461726336666667,-0.371794300666667,-0.141256519166667,-0.0282833641666667,0.144781060333333,0.198917610833333,0.202002144833333,0.192860615333333,0.244336373283333,0.236664633283333,0.262617117783333,0.334989067283333,0.340662564833333,0.388696873333333,0.351232453333333,0.265312802833333,0.276210234833333,3086,"DG_s15",18.9,19.605,22.571,22.573,10,10,8,11,2.966,"Right",8,11,3,0,3,3,3,0,0,0,-3,0,"10-10",2,-1,8,10,11,10
"171",6,"LIP8-LIP9",0.0261996110808081,0.0252512205808081,0.0467909925808081,0.125830242580808,-0.00613260291919192,0.0125435775808081,-0.0578812289191919,-0.138352580419192,-0.0541927044191919,-0.108130016919192,0.0130226080808081,-0.00412519641919193,0.0121752270808081,-0.0941000994191919,-0.179209367919192,-0.0826453254191919,-0.130889182919192,-0.0426109389191919,-0.104026959419192,-0.220396216419192,3086,"DG_s15",18.9,19.605,22.571,22.573,10,10,8,11,2.966,"Right",8,11,3,0,3,3,3,0,0,0,-3,0,"10-10",2,-1,8,10,11,10
"172",6,"LHH6-LHH7",-0.181594868479798,-0.147650258979798,-0.074982486979798,0.00322699802020203,0.066037367020202,0.128189896520202,0.128109020520202,0.141303210520202,-0.068471872479798,-0.010108866479798,-0.141900096479798,-0.226549890979798,-0.100276487479798,-0.262981604979798,-0.081800739979798,-0.034363395479798,-0.021053605479798,0.052669812020202,-0.118011527429798,-0.171139578929798,3086,"DG_s15",18.9,19.605,22.571,22.573,10,10,8,11,2.966,"Right",8,11,3,0,3,3,3,0,0,0,-3,0,"10-10",2,-1,8,10,11,10
"173",6,"LHB5-LHB6",-0.055096571449495,0.017625029550505,-0.015809463949495,0.150849961050505,0.264000386200505,0.263053911200505,0.306825676200505,0.087903679700505,-0.0572311764494949,-0.112108977449495,-0.211234459949495,-0.053499454449495,0.165285379550505,0.202943598550505,0.226382214050505,0.085743623550505,-0.131111733449495,-0.277398906449495,-0.260458016949495,-0.187341965449495,3086,"DG_s15",18.9,19.605,22.571,22.573,10,10,8,11,2.966,"Right",8,11,3,0,3,3,3,0,0,0,-3,0,"10-10",2,-1,8,10,11,10
"174",6,"LTT8-LTT9",0.105916889747475,0.232307405747475,0.196572430747475,0.102107722397475,-0.204763077602525,-0.426796522602525,-0.533770492602525,-0.587468544752525,-0.483921879752525,-0.360042606752525,-0.429764717302525,-0.429569472802525,-0.449897092802525,-0.500619842852525,-0.421171249802525,-0.352729460302525,-0.254855696302525,-0.261957227252525,-0.265095581752525,-0.0994137512525253,3086,"DG_s15",18.9,19.605,22.571,22.573,10,10,8,11,2.966,"Right",8,11,3,0,3,3,3,0,0,0,-3,0,"10-10",2,-1,8,10,11,10
"175",7,"LHB7-LHB8",0.0281588459292929,-0.0132457700707071,0.0756974664292929,0.126773495429293,0.192452932429293,0.320708621429293,0.287908119929293,0.139369533929293,0.0622197454292929,-0.0278056545707071,0.0620524254292929,0.195938318929293,0.155040380429293,0.107917375829293,0.114664605829293,0.0404378033292929,0.116496173329293,0.0819852879292929,0.0521844629292929,0.0845422329292929,3087,"DG_s15",23.575,24.28,26.332,26.334,28,4,10,10,2.052,"Left",28,4,24,24,0,0,0,-24,0,-24,24,24,"Advent",18,-6,28,10,4,10
"176",7,"LHH7-LHH8",-0.43810088720505,-0.343844825005051,-0.19400797500505,-0.0828881415550505,-0.0143275625550505,-0.0709181505550505,-0.10900272655505,-0.13299778100505,-0.146818720055051,-0.13239614255505,-0.0454754665550505,-0.11780350705505,-0.12143749300505,-0.14014810450505,-0.19754294500505,-0.156468047255051,-0.0909105637550505,-0.0392515732550505,0.0031824622449495,0.00414166514494951,3087,"DG_s15",23.575,24.28,26.332,26.334,28,4,10,10,2.052,"Left",28,4,24,24,0,0,0,-24,0,-24,24,24,"Advent",18,-6,28,10,4,10
"177",7,"LHB8-LHB9",0.0126677232464646,0.0492916732464646,0.134397607646465,0.0379365776464646,0.0332023680964647,-0.0591748269035354,-0.112804546403535,-0.176841156403535,-0.149433992853535,-0.120688082753535,-0.110556811253535,-0.0544565162535354,-0.0679014252535354,-0.0351294453535353,-0.138451182353535,-0.165347453353535,-0.128588320853535,-0.0424987758535354,0.0951560357964646,0.152890976796465,3087,"DG_s15",23.575,24.28,26.332,26.334,28,4,10,10,2.052,"Left",28,4,24,24,0,0,0,-24,0,-24,24,24,"Advent",18,-6,28,10,4,10
"178",7,"LHB9-LHB10",-0.403329354362121,-0.424332779862121,-0.398620552862121,-0.327595869462121,-0.200205591912121,-0.0246392009121212,0.0930238545878788,0.0428704140878788,-0.0697664422121212,-0.0809398272121212,-0.135571002212121,-0.106913091712121,-0.0229117767121212,-0.0940913207121212,-0.101277845712121,-0.0689630837121212,0.00039300878787879,0.0606375527878788,-0.0295747772121212,-0.0164771796621212,3087,"DG_s15",23.575,24.28,26.332,26.334,28,4,10,10,2.052,"Left",28,4,24,24,0,0,0,-24,0,-24,24,24,"Advent",18,-6,28,10,4,10
"179",7,"LAM4-LAM5",-0.11937766479798,0.0384091937020202,-0.0375097292979798,-0.0423102607979798,-0.0372413957979798,-0.13716258284798,-0.0757087998479798,-0.0254360438479798,-0.0475915638479798,-0.00810703529797979,-0.13031478029798,-0.19267067254798,-0.13205425004798,-0.0137376805479798,-0.0270478885479798,-0.0224221417979798,-0.19108997429798,-0.28443883629798,-0.28924756329798,-0.23673840729798,3087,"DG_s15",23.575,24.28,26.332,26.334,28,4,10,10,2.052,"Left",28,4,24,24,0,0,0,-24,0,-24,24,24,"Advent",18,-6,28,10,4,10
"180",7,"LIP7-LIP8",-0.212726218430303,-0.252426911430303,-0.142143803930303,-0.113222528930303,-0.070664926030303,-0.077964823030303,-0.092754170530303,-0.110552855530303,0.020850134469697,0.104524831969697,0.103984113969697,0.115586238969697,-0.036255051530303,-0.150336457030303,-0.057665993730303,-0.041398962230303,-0.090471976730303,0.054213058769697,0.056114005469697,0.092299877469697,3087,"DG_s15",23.575,24.28,26.332,26.334,28,4,10,10,2.052,"Left",28,4,24,24,0,0,0,-24,0,-24,24,24,"Advent",18,-6,28,10,4,10
"181",7,"LHH6-LHH7",0.196315034166667,0.147655045666667,0.199839661166667,0.261599661166667,0.217481681166667,0.281572379666667,0.259830283816667,0.241674483816667,0.132473403816667,0.0593334708166667,0.0347522586666667,-0.0112855263333333,0.0483608186666667,0.0759886141666667,0.00914456916666666,-0.0376365358333333,-0.0384913258333333,-0.103242345833333,-0.141285525833333,-0.138886745833333,3087,"DG_s15",23.575,24.28,26.332,26.334,28,4,10,10,2.052,"Left",28,4,24,24,0,0,0,-24,0,-24,24,24,"Advent",18,-6,28,10,4,10
"182",7,"LAM3-LAM4",0.106862868897475,0.0515570255474748,-0.0356220509525252,-0.0165442872525252,-0.165472239252525,-0.201382014752525,-0.0867475102525252,-0.148537370252525,-0.0895560907525252,-0.152711004252525,-0.219096292752525,-0.116828799252525,-0.132111007752525,-0.0525803627525252,0.0145581322474748,0.0527278337474748,0.0615562607474748,0.174346440747475,0.128398798667475,0.0244253612174748,3087,"DG_s15",23.575,24.28,26.332,26.334,28,4,10,10,2.052,"Left",28,4,24,24,0,0,0,-24,0,-24,24,24,"Advent",18,-6,28,10,4,10
"183",7,"LTT9-LTT10",0.240298287065657,0.232980751565657,0.221107737065657,0.241862358565657,0.126530685065657,0.0845684459656566,0.0698601559656566,0.0526528965656566,0.0909539145656566,0.132734045165657,0.103344219665657,0.115444998565657,0.183363481565657,0.315398593565657,0.417828523565657,0.332672026065657,0.222198293565657,0.0514470310656566,0.163562706065657,0.277187416065657,3087,"DG_s15",23.575,24.28,26.332,26.334,28,4,10,10,2.052,"Left",28,4,24,24,0,0,0,-24,0,-24,24,24,"Advent",18,-6,28,10,4,10
"184",7,"LAM2-LAM3",-0.0913302847323232,-0.115799369732323,-0.149979464732323,-0.117299166732323,-0.221508229232323,-0.178090383232323,-0.147258853232323,-0.214329818232323,-0.197275460232323,-0.255915622732323,-0.392380022732323,-0.420302457232323,-0.379164956732323,-0.401621593232323,-0.303392939232323,-0.197929129232323,-0.236834392232323,-0.146370979232323,-0.142463327732323,-0.276046417732323,3087,"DG_s15",23.575,24.28,26.332,26.334,28,4,10,10,2.052,"Left",28,4,24,24,0,0,0,-24,0,-24,24,24,"Advent",18,-6,28,10,4,10
"185",7,"LAM1-LAM2",-0.261187160772727,-0.347190912222727,-0.107011262222727,-0.00191955772272728,-0.0315718713727273,0.170375220077273,0.0191048360772728,-0.109785430422727,-0.0513815137727273,-0.156498948772727,-0.199463820772727,-0.161125158772727,-0.179396267272727,-0.207900739622727,-0.150947449622727,-0.115184557122727,-0.115461994622727,-0.213900504772727,-0.241904847272727,-0.331663414772727,3087,"DG_s15",23.575,24.28,26.332,26.334,28,4,10,10,2.052,"Left",28,4,24,24,0,0,0,-24,0,-24,24,24,"Advent",18,-6,28,10,4,10
"186",7,"LAM7-LAM8",-0.00564696645454545,-0.0576421109545455,-0.0256794579545455,-0.0729780799545455,-0.0667697905045455,0.0763647244954545,0.114675073995455,0.116567384795455,0.0910924043454546,0.0720502283454545,0.137526900845455,0.146837876045455,0.111823538545455,0.161094599545455,0.0527877495454546,-0.00695482345454545,0.153964661545455,0.172405761545455,0.188039071045455,0.166227041295455,3087,"DG_s15",23.575,24.28,26.332,26.334,28,4,10,10,2.052,"Left",28,4,24,24,0,0,0,-24,0,-24,24,24,"Advent",18,-6,28,10,4,10
"187",7,"LAM8-LAM9",-0.13325687296399,-0.12636583231399,-0.0535924168139899,0.0044144526860101,0.19415267875101,0.28864117310101,0.32854343110101,0.21848574610101,0.10517812760101,-0.0364054163989899,-0.0777549313989899,-0.0562645723989899,-0.0731238168989899,-0.0385174468989899,0.0232539381010101,0.21763602310101,0.17756255110101,0.23492327510101,0.0937394521010101,-0.0710162498989899,3087,"DG_s15",23.575,24.28,26.332,26.334,28,4,10,10,2.052,"Left",28,4,24,24,0,0,0,-24,0,-24,24,24,"Advent",18,-6,28,10,4,10
"188",7,"LAM9-LAM10",-0.147882963544949,-0.0347227115449495,-0.0159295195449495,0.0108211854550505,0.0071403819550505,-0.0312497224949495,-0.0649930394949495,-0.0997093269949495,0.0536897620050505,0.106023458505051,0.0870222935050505,0.0553280099050505,-0.140665290094949,-0.18342306559495,-0.10098707609495,-0.0172358679949495,0.174482482005051,0.14074842400505,0.184479910355051,0.20505674835505,3087,"DG_s15",23.575,24.28,26.332,26.334,28,4,10,10,2.052,"Left",28,4,24,24,0,0,0,-24,0,-24,24,24,"Advent",18,-6,28,10,4,10
"189",7,"LIP1-LIP2",-0.169915100868687,-0.186117941868687,-0.321864571568687,-0.238155621018687,-0.0574519310186869,-0.128120311018687,-0.226116146318687,-0.169679991868687,-0.187690591868687,-0.0970759769186869,-0.0419103824186869,-0.0477079999186869,-0.193525964918687,-0.128736521868687,-0.0894810663686869,-0.0341782008686869,0.100982984131313,0.0743455116313131,0.110529986831313,-0.0325416056686869,3087,"DG_s15",23.575,24.28,26.332,26.334,28,4,10,10,2.052,"Left",28,4,24,24,0,0,0,-24,0,-24,24,24,"Advent",18,-6,28,10,4,10
"190",7,"LIP5-LIP6",0.150820758651515,0.0868137631515151,-0.0147701098484848,-0.149577685848485,-0.209356260348485,-0.190079383848485,-0.188885447998485,-0.120774226998485,0.110220122501515,0.168355853001515,0.260368820151515,0.335709437151515,0.0993085676515151,0.152279102651515,0.0116970026515152,-0.0814690372484849,0.00340116225151516,-0.182705847748485,-0.176413212748485,-0.126699098598485,3087,"DG_s15",23.575,24.28,26.332,26.334,28,4,10,10,2.052,"Left",28,4,24,24,0,0,0,-24,0,-24,24,24,"Advent",18,-6,28,10,4,10
"191",7,"LHH5-LHH6",-0.0505395614191919,-0.168040692919192,0.0223247720808081,0.00896098208080809,-0.0365833669191919,-0.0149428219191919,-0.0566913719191919,-0.171273737669192,-0.0902732086691919,0.0724327694308081,-0.0685563370191919,-0.0748714507691919,-0.00399557476919191,-0.160385017869192,-0.124895288008192,-0.150154993508192,-0.272741408508192,-0.164627963508192,-0.145977230419192,-0.0346380054191919,3087,"DG_s15",23.575,24.28,26.332,26.334,28,4,10,10,2.052,"Left",28,4,24,24,0,0,0,-24,0,-24,24,24,"Advent",18,-6,28,10,4,10
"192",7,"LAM5-LAM6",-0.036531579070202,-0.106123653520202,-0.149519165020202,-0.110484432520202,-0.126169480520202,-0.151632855520202,0.00952927447979798,0.00925761797979798,-0.021392125820202,-0.016695277320202,-0.112122607320202,-0.073899697320202,-0.045563725520202,0.020563420979798,0.100438440479798,-0.00115453602020202,0.043746585479798,0.070326095479798,0.137109195979798,0.138133082479798,3087,"DG_s15",23.575,24.28,26.332,26.334,28,4,10,10,2.052,"Left",28,4,24,24,0,0,0,-24,0,-24,24,24,"Advent",18,-6,28,10,4,10
