"","trial","electrodes","bin_1","bin_2","bin_3","bin_4","bin_5","bin_6","bin_7","bin_8","bin_9","bin_10","bin_11","bin_12","bin_13","bin_14","bin_15","X","SID","newround_time","choice_time","buttonpress_time","reveal_time","self_payoff","other_payoff","self_foregone","other_foregone","RT","side_chosen","self_var_payoff","other_var_payoff","ineq_var_abs","ineq_choice_abs","ineq_foregone_abs","ineq_foregone","ineq_disadvent","ineq_advent","ineq_disadvent_choice","ineq_advent_choice","ineq_var","ineq_choice","chose_equality","self_diff","other_diff","L_self","R_self","L_other","R_other"
"1",1,"LAM1-LAM2",0.0834060515,0.309244009,0.43269172,0.4508385015,0.2946591165,0.099933225,-0.096150525,-0.102048224,-0.136846932,-0.03352611055,0.06984438995,0.04168688545,0.0938646522,0.05313329225,0.03118883425,3081,"DG_s15",-0.702,0.00200000000007,2.082,2.084,10,10,6,6,2.08,"Left",6,6,0,0,0,0,0,0,0,0,0,0,"10-10",4,4,10,6,10,6
"2",1,"LAM2-LAM3",-0.19938144075,-0.31922835325,-0.31594303175,-0.33582943025,-0.21702047475,-0.09429062225,0.00626687625,0.01235302025,-0.08451270225,0.02502311125,0.02586996125,0.02244113025,0.19154525275,0.05047683525,-0.04241061825,3081,"DG_s15",-0.702,0.00200000000007,2.082,2.084,10,10,6,6,2.08,"Left",6,6,0,0,0,0,0,0,0,0,0,0,"10-10",4,4,10,6,10,6
"3",1,"LAM3-LAM4",-0.1533664905,-0.2784868235,-0.344020031,-0.205561846,-0.329237731,-0.353443583,-0.1822646205,-0.237849407,-0.1069043045,-0.013877873,-0.127708373,-0.0806407327,-0.0951107202,-0.0869586522,-0.0591503292,3081,"DG_s15",-0.702,0.00200000000007,2.082,2.084,10,10,6,6,2.08,"Left",6,6,0,0,0,0,0,0,0,0,0,0,"10-10",4,4,10,6,10,6
"4",1,"LAM4-LAM5",0.23184128105,0.26276663535,0.11724243835,0.23054157885,0.3795696,0.3412785392,0.2447153567,0.0070139967,-0.2436560033,-0.2705597201,-0.1922454156,0.0241902344,0.1156814674,0.1671712877,0.2562257502,3081,"DG_s15",-0.702,0.00200000000007,2.082,2.084,10,10,6,6,2.08,"Left",6,6,0,0,0,0,0,0,0,0,0,0,"10-10",4,4,10,6,10,6
"5",1,"LAM6-LAM7",-0.096896159,-0.0172078445,0.08796914,0.280429368,0.3354647385,0.377190944,0.2435569825,-0.0061752735,-0.083319457,-0.103766002,-0.050065287,0.150021274,0.1880383695,0.1388258905,0.1854362695,3081,"DG_s15",-0.702,0.00200000000007,2.082,2.084,10,10,6,6,2.08,"Left",6,6,0,0,0,0,0,0,0,0,0,0,"10-10",4,4,10,6,10,6
"6",1,"LAM7-LAM8",0.2206465444,0.0794681494,-0.0583562306,-0.1563496541,-0.2534296991,-0.2126069641,-0.2816311186,-0.27005379385,-0.16949309885,-0.17162215435,-0.06818479985,0.0672354879,0.0406507759,0.0476285229,-0.0446573278,3081,"DG_s15",-0.702,0.00200000000007,2.082,2.084,10,10,6,6,2.08,"Left",6,6,0,0,0,0,0,0,0,0,0,0,"10-10",4,4,10,6,10,6
"7",1,"LHB9-LHB10",-0.37440273205,-0.25707762855,-0.29126822855,-0.22859634055,-0.212509134,-0.121888124,-0.0989438765,-0.1317784415,-0.1310735385,-0.1746689485,-0.221250494,-0.304359714,-0.2355407455,-0.1628866905,-0.151178545,3081,"DG_s15",-0.702,0.00200000000007,2.082,2.084,10,10,6,6,2.08,"Left",6,6,0,0,0,0,0,0,0,0,0,0,"10-10",4,4,10,6,10,6
"8",1,"LAM8-LAM9",-0.1548253425,-0.2195339475,-0.1057465688,-0.1142095833,-0.0693048083,-0.10427465605,-0.06742961825,0.0035224291,0.1588786766,0.19475067935,0.0792086522,-0.00529103565,-0.27346173065,-0.21661309065,-0.1701259185,3081,"DG_s15",-0.702,0.00200000000007,2.082,2.084,10,10,6,6,2.08,"Left",6,6,0,0,0,0,0,0,0,0,0,0,"10-10",4,4,10,6,10,6
"9",1,"LAM9-LAM10",0.350792878695,0.369905308695,0.331941593695,0.329322950195,0.225044949695,0.162093210695,0.071880010695,-0.014868580305,0.045340483695,0.025402860695,0.027862800695,0.089888813195,0.145386679695,0.194242532195,0.437647692195,3081,"DG_s15",-0.702,0.00200000000007,2.082,2.084,10,10,6,6,2.08,"Left",6,6,0,0,0,0,0,0,0,0,0,0,"10-10",4,4,10,6,10,6
"10",1,"LIP4-LIP5",-0.071530301,-0.17685255795,-0.15831101045,-0.1827271815,-0.170911641,-0.23111086905,-0.25562277955,-0.1474579585,-0.1378337955,-0.045107532,0.0222905771,-0.0349361044,-0.1508997374,-0.2107857214,-0.3133058015,3081,"DG_s15",-0.702,0.00200000000007,2.082,2.084,10,10,6,6,2.08,"Left",6,6,0,0,0,0,0,0,0,0,0,0,"10-10",4,4,10,6,10,6
"11",1,"LHH5-LHH6",0.168489698,0.13202338585,-0.06663732915,-0.26372115415,-0.33628097765,-0.358514725,-0.258647125,-0.156688327,-0.0219681785,0.0354830135,0.033659769,0.117637591,0.066584296,0.0674096715,0.030161261,3081,"DG_s15",-0.702,0.00200000000007,2.082,2.084,10,10,6,6,2.08,"Left",6,6,0,0,0,0,0,0,0,0,0,0,"10-10",4,4,10,6,10,6
"12",1,"LHH7-LHH8",0.20873373995,0.2568287485,0.324975893,0.3000826785,0.37817252,0.461901394,0.326343196,0.440788935,0.473168775,0.308870815,0.3341583891,0.2517663831,0.0899639096,0.0562807146,0.0206415975,3081,"DG_s15",-0.702,0.00200000000007,2.082,2.084,10,10,6,6,2.08,"Left",6,6,0,0,0,0,0,0,0,0,0,0,"10-10",4,4,10,6,10,6
"13",1,"LIP8-LIP9",0.28961257415,0.40153747865,0.3859021935,0.214476646,0.176911731,0.213991916,0.20489047515,0.32916536765,0.34591017765,0.23158784815,0.26821019815,0.33793111315,0.2630613154,0.4096363054,0.3974049109,3081,"DG_s15",-0.702,0.00200000000007,2.082,2.084,10,10,6,6,2.08,"Left",6,6,0,0,0,0,0,0,0,0,0,0,"10-10",4,4,10,6,10,6
"14",1,"LHB4-LHB5",0.10136177567,0.07875737717,0.04625821417,0.04577157917,-0.12940650883,-0.16285710433,-0.27108799583,-0.30038974933,-0.17172020533,-0.17632949983,-0.06347681983,-0.02456504583,-0.03244639183,0.12927971817,0.06439468817,3081,"DG_s15",-0.702,0.00200000000007,2.082,2.084,10,10,6,6,2.08,"Left",6,6,0,0,0,0,0,0,0,0,0,0,"10-10",4,4,10,6,10,6
"15",1,"LHB5-LHB6",0.05936884025,0.04798667715,-0.07023623935,-0.0094127531,-0.1372474781,-0.1966844075,-0.1989722225,-0.2040958795,-0.076108142,-0.054362453,0.0975464565,0.08969411,0.1126090575,0.016682041,-0.098967407,3081,"DG_s15",-0.702,0.00200000000007,2.082,2.084,10,10,6,6,2.08,"Left",6,6,0,0,0,0,0,0,0,0,0,0,"10-10",4,4,10,6,10,6
"16",1,"LTT8-LTT9",0.071470241,0.0459243165,0.11368251,0.026532059,-0.065733366,-0.151383092,-0.2475615635,-0.196129371,-0.158591351,-0.143386466,-0.049633585,-0.0415130515,-0.0106355055,0.0665204865,-0.05933781,3081,"DG_s15",-0.702,0.00200000000007,2.082,2.084,10,10,6,6,2.08,"Left",6,6,0,0,0,0,0,0,0,0,0,0,"10-10",4,4,10,6,10,6
"17",1,"LHB6-LHB7",-0.17501774695,-0.11242726045,-0.14678823295,-0.1835195022,-0.0822809212,-0.1131004607,-0.1512918757,-0.226740244,-0.2892130265,-0.2801314075,-0.164854287,-0.0432569175,-0.00219799750000001,0.018915118,-0.127275501,3081,"DG_s15",-0.702,0.00200000000007,2.082,2.084,10,10,6,6,2.08,"Left",6,6,0,0,0,0,0,0,0,0,0,0,"10-10",4,4,10,6,10,6
"18",1,"LHB7-LHB8",-0.11108750725,-0.14450613725,-0.21413493025,-0.21486998775,-0.19920060525,-0.22155269775,-0.16507836325,-0.20303466775,-0.29320301925,-0.28256475075,-0.28050111675,-0.22578444725,-0.17710901925,-0.08366521575,-0.10129458175,3081,"DG_s15",-0.702,0.00200000000007,2.082,2.084,10,10,6,6,2.08,"Left",6,6,0,0,0,0,0,0,0,0,0,0,"10-10",4,4,10,6,10,6
"19",1,"LHB8-LHB9",0.034391776,0.09698725,0.17736917,0.224554715,0.2964406986,0.3034271524,0.3617854524,0.3107730029,0.2923718248,0.3098562285,0.161781398,0.185727907,0.273306473,0.371271371,0.3137008965,3081,"DG_s15",-0.702,0.00200000000007,2.082,2.084,10,10,6,6,2.08,"Left",6,6,0,0,0,0,0,0,0,0,0,0,"10-10",4,4,10,6,10,6
"20",1,"LTT9-LTT10",-0.2838396593,-0.1634055493,-0.0565125515,0.00637663399999999,-0.0109784645,-0.1780347345,-0.299514954,-0.281172489,-0.1773687145,0.0108471335,0.04068644,-0.007308855,-0.1428199,-0.279202578,-0.30637919,3081,"DG_s15",-0.702,0.00200000000007,2.082,2.084,10,10,6,6,2.08,"Left",6,6,0,0,0,0,0,0,0,0,0,0,"10-10",4,4,10,6,10,6
"21",1,"LIP1-LIP2",0.3973271956,0.4004674196,0.2377382221,0.2512153946,0.1710256757,0.1650086127,0.2800024462,0.3631292687,0.4444645391,0.3730953896,0.3563262701,0.2415630701,0.1603703011,0.1685479301,0.1938892061,3081,"DG_s15",-0.702,0.00200000000007,2.082,2.084,10,10,6,6,2.08,"Left",6,6,0,0,0,0,0,0,0,0,0,0,"10-10",4,4,10,6,10,6
"22",1,"LIP2-LIP3",0.1519829395,0.2631759815,0.2753942934835,0.2960394581335,0.2937963826335,0.2455340826335,0.24979544165,0.204860394,0.256780473,0.198954254,0.087895822,0.11196584165,0.02207417165,-0.08914359935,0.07419696615,3081,"DG_s15",-0.702,0.00200000000007,2.082,2.084,10,10,6,6,2.08,"Left",6,6,0,0,0,0,0,0,0,0,0,0,"10-10",4,4,10,6,10,6
"23",1,"LIP3-LIP4",-0.0136457735,-0.039699483,0.039532852,0.01111269,-0.117318761,-0.180570775,-0.1319737276,-0.2386064806,-0.2756458111,-0.2775747471,-0.346660487,-0.3570088605,-0.340842482,-0.314574888,-0.2806361545,3081,"DG_s15",-0.702,0.00200000000007,2.082,2.084,10,10,6,6,2.08,"Left",6,6,0,0,0,0,0,0,0,0,0,0,"10-10",4,4,10,6,10,6
"24",1,"LIP7-LIP8",0.059547944,0.0761644915,-0.0230720015,-0.023539143,0.0576689035,0.044447711,0.04801904765,0.15322363115,0.11693751115,0.25731580365,0.2348807145,0.374718171,0.226048737,0.044191257,0.127540538,3081,"DG_s15",-0.702,0.00200000000007,2.082,2.084,10,10,6,6,2.08,"Left",6,6,0,0,0,0,0,0,0,0,0,0,"10-10",4,4,10,6,10,6
"25",1,"LHH4-LHH5",0.00754119149999999,-0.0948898585,-0.2182001285,-0.1018473835,0.00648003149999998,-0.05554083205,-0.00588928255000001,0.09298638145,0.02900705745,0.030760136,0.1015353615,0.0894234625,0.119844257,0.14196913195,0.14030929695,3081,"DG_s15",-0.702,0.00200000000007,2.082,2.084,10,10,6,6,2.08,"Left",6,6,0,0,0,0,0,0,0,0,0,0,"10-10",4,4,10,6,10,6
"26",1,"LHH6-LHH7",0.01790492515,0.00510702015,-0.14823077385,-0.30121063985,-0.45471561685,-0.49402564185,-0.44196496735,-0.38542307535,-0.30467357285,-0.19311809285,-0.14134823285,-0.15117642585,-0.19287080135,-0.25553808085,-0.32865270035,3081,"DG_s15",-0.702,0.00200000000007,2.082,2.084,10,10,6,6,2.08,"Left",6,6,0,0,0,0,0,0,0,0,0,0,"10-10",4,4,10,6,10,6
"27",1,"LIP6-LIP7",0.1358347574,0.1323743224,0.0815815184,0.1158516475,0.000548921500000001,0.07031267,0.161347426,0.179710342,0.2701645026,0.2930182591,0.2263816171,0.4030152561,0.374271143,0.354684593,0.335572403,3081,"DG_s15",-0.702,0.00200000000007,2.082,2.084,10,10,6,6,2.08,"Left",6,6,0,0,0,0,0,0,0,0,0,0,"10-10",4,4,10,6,10,6
"28",1,"LIP5-LIP6",0.49932702918,0.59569565918,0.37433177918,0.23807205068,-0.01724249932,-0.05047841932,-0.03748582157,0.02887158893,0.22541048893,0.29467904393,0.40978339518,0.48940133418,0.44925112168,0.35644774568,0.31087653468,3081,"DG_s15",-0.702,0.00200000000007,2.082,2.084,10,10,6,6,2.08,"Left",6,6,0,0,0,0,0,0,0,0,0,0,"10-10",4,4,10,6,10,6
"29",1,"LAM5-LAM6",0.25152401835,0.1843043778,0.1474381328,0.16691244695,0.19558492695,0.186074064,0.051101444,-0.04757158775,-0.1395066541,-0.0109789056,0.1050570194,0.1641809709,0.1108058475,-0.0802096425,-0.14641666,3081,"DG_s15",-0.702,0.00200000000007,2.082,2.084,10,10,6,6,2.08,"Left",6,6,0,0,0,0,0,0,0,0,0,0,"10-10",4,4,10,6,10,6
"30",2,"LIP7-LIP8",-0.1797110015,-0.145635938,-0.284043478,-0.28843872,-0.27765046,-0.3824881573,-0.3831216323,-0.3689798518,-0.3053619218,-0.262590603,-0.258521643,-0.3050017875,-0.4249713025,-0.3896957925,-0.3286997575,3082,"DG_s15",3.085,3.791,6.023,6.025,18,18,10,10,2.232,"Right",18,18,0,0,0,0,0,0,0,0,0,0,"Equal",8,8,10,18,10,18
"31",2,"LTT8-LTT9",-0.0148073765,-0.1311604369,-0.1535124194,-0.0387498094,0.1298367746,0.165389719,0.183770021,0.075311691,0.0284698335,0.047448787,0.059459574,0.091793314,0.087995706,0.1231875835,0.1728666815,3082,"DG_s15",3.085,3.791,6.023,6.025,18,18,10,10,2.232,"Right",18,18,0,0,0,0,0,0,0,0,0,0,"Equal",8,8,10,18,10,18
"32",2,"LAM5-LAM6",-0.0633273795,-0.0242449935,-0.01455777,0.018515435,-0.111213497,-0.08658528175,-0.15806769525,-0.07911113275,-0.06097459605,-0.0492815798,-0.0951235333,-0.2129984388,-0.1128220755,-0.0925161075,-0.0739132273,3082,"DG_s15",3.085,3.791,6.023,6.025,18,18,10,10,2.232,"Right",18,18,0,0,0,0,0,0,0,0,0,0,"Equal",8,8,10,18,10,18
"33",2,"LHH4-LHH5",-0.011035755,0.05377007375,-0.02611222975,-0.12686681275,-0.18799549075,-0.2794167725,-0.1679242595,-0.1838734635,-0.090959694,-0.0358009705,-0.0470135015,-0.1452239195,-0.1564777545,-0.1936472965,-0.2777646365,3082,"DG_s15",3.085,3.791,6.023,6.025,18,18,10,10,2.232,"Right",18,18,0,0,0,0,0,0,0,0,0,0,"Equal",8,8,10,18,10,18
"34",2,"LAM2-LAM3",-0.4372448035,-0.4084188345,-0.480826458,-0.537610787,-0.395533447,-0.398017662,-0.33198707115,-0.21377723215,-0.20837208865,-0.24097148565,-0.2120425065,-0.401697852,-0.46527553605,-0.4931239818,-0.5629665168,3082,"DG_s15",3.085,3.791,6.023,6.025,18,18,10,10,2.232,"Right",18,18,0,0,0,0,0,0,0,0,0,0,"Equal",8,8,10,18,10,18
"35",2,"LHB9-LHB10",-0.1063493842,-0.1805966452,-0.2180736467,-0.1975435817,-0.1110454847,-0.1361654747,-0.1343984782,-0.0768936617,-0.0654020682,0.0130393863,0.0687596373,0.1044984088,0.1150026533,0.10482450345,0.08899249345,3082,"DG_s15",3.085,3.791,6.023,6.025,18,18,10,10,2.232,"Right",18,18,0,0,0,0,0,0,0,0,0,0,"Equal",8,8,10,18,10,18
"36",2,"LAM1-LAM2",0.18711497132,0.19706721632,0.10846374832,0.06116846382,0.10925108182,0.20454043682,0.20600446682,0.19883619632,0.19627799632,0.19741330082,0.24180868882,0.32595421882,0.30427710432,0.18855235832,0.17938546632,3082,"DG_s15",3.085,3.791,6.023,6.025,18,18,10,10,2.232,"Right",18,18,0,0,0,0,0,0,0,0,0,0,"Equal",8,8,10,18,10,18
"37",2,"LIP2-LIP3",0.2876156706,0.2876906805,0.178822599,0.268723374,0.156505116,0.116530146,0.11117473315,-0.02101887705,0.09436368445,0.09085067545,0.1151794343,0.1572472095,0.226254753,0.178270194,0.1517305104,3082,"DG_s15",3.085,3.791,6.023,6.025,18,18,10,10,2.232,"Right",18,18,0,0,0,0,0,0,0,0,0,0,"Equal",8,8,10,18,10,18
"38",2,"LIP5-LIP6",-0.27322486,-0.260002139,-0.249356399,-0.091698704,0.121312121,0.0765248015,0.00883725799999996,-0.0296979086,-0.2489499086,-0.3255955616,-0.2709770866,-0.2957836895,-0.4116795415,-0.3837264515,-0.352818471,3082,"DG_s15",3.085,3.791,6.023,6.025,18,18,10,10,2.232,"Right",18,18,0,0,0,0,0,0,0,0,0,0,"Equal",8,8,10,18,10,18
"39",2,"LIP4-LIP5",-0.1760798681,-0.1108737921,-0.2172509221,-0.1249284376,-0.038931344,-0.0357058285,-0.00162913349999999,0.0335047065,0.1179703665,0.08001674035,0.12977345535,0.06386120985,-0.16280792315,-0.213500335,-0.23750116,3082,"DG_s15",3.085,3.791,6.023,6.025,18,18,10,10,2.232,"Right",18,18,0,0,0,0,0,0,0,0,0,0,"Equal",8,8,10,18,10,18
"40",2,"LAM3-LAM4",0.14102866075,0.1661292379,0.1158463884,0.0749577029,0.02919074415,0.05000941925,0.04475404275,0.20651639325,0.306147352,0.3536939175,0.3633312255,0.2126202495,0.065190199,-0.0622697235,-0.0470090085,3082,"DG_s15",3.085,3.791,6.023,6.025,18,18,10,10,2.232,"Right",18,18,0,0,0,0,0,0,0,0,0,0,"Equal",8,8,10,18,10,18
"41",2,"LHB4-LHB5",-0.11127427545,-0.13623939095,-0.22054884995,-0.27242588195,-0.182326263405,-0.134856710905,-0.051413823905,0.021651860595,0.0103007807,-0.0666041948,0.0063076792,0.0974950892,0.0626860717,0.2095122277,0.1249558227,3082,"DG_s15",3.085,3.791,6.023,6.025,18,18,10,10,2.232,"Right",18,18,0,0,0,0,0,0,0,0,0,0,"Equal",8,8,10,18,10,18
"42",2,"LIP6-LIP7",-0.02244449325,-0.00841927074999999,-0.00143382,0.101904788,0.1483582535,0.039881806,-0.042160457,-0.09965822,-0.167689309,-0.0365378185,0.03474138,-0.01495574,-0.031652486,-0.080768749,-0.0800936045,3082,"DG_s15",3.085,3.791,6.023,6.025,18,18,10,10,2.232,"Right",18,18,0,0,0,0,0,0,0,0,0,0,"Equal",8,8,10,18,10,18
"43",2,"LIP8-LIP9",0.0971886525,0.1074755425,0.12356049805,0.18395533055,0.0553010926,0.0429301976,0.05221835205,-0.02766934145,0.0627777565,0.037064258,0.0111908865,-0.0317509755,-0.1281671805,-0.066409077,-0.1168620155,3082,"DG_s15",3.085,3.791,6.023,6.025,18,18,10,10,2.232,"Right",18,18,0,0,0,0,0,0,0,0,0,0,"Equal",8,8,10,18,10,18
"44",2,"LAM4-LAM5",0.0491401654,0.0713185019,-0.0385893081,0.042861519,0.04465916,0.1305441909,0.11765864204,0.10687433204,0.16085448704,0.17582758314,0.1662816565,0.075065373,-0.072723863,-0.174008638,-0.247724087,3082,"DG_s15",3.085,3.791,6.023,6.025,18,18,10,10,2.232,"Right",18,18,0,0,0,0,0,0,0,0,0,0,"Equal",8,8,10,18,10,18
"45",2,"LHH5-LHH6",0.2329369255,0.144184507,0.048936484,-0.018444966,-0.089652267,-0.067606868,-0.00359513350000001,-0.0617707955,-0.1306034595,-0.06095473,0.0457096585,0.0137883568,0.1464548668,0.2025511768,0.1412378676,3082,"DG_s15",3.085,3.791,6.023,6.025,18,18,10,10,2.232,"Right",18,18,0,0,0,0,0,0,0,0,0,0,"Equal",8,8,10,18,10,18
"46",2,"LIP1-LIP2",0.027153515,0.0287321439,0.0258622124,0.0724965574,-0.0343609121,-0.0166913325,0.0220494985,-0.0906000445,0.109282465,0.063256827,0.0565442925,0.0490994095,0.0141293345,0.035351441,-0.04039196355,3082,"DG_s15",3.085,3.791,6.023,6.025,18,18,10,10,2.232,"Right",18,18,0,0,0,0,0,0,0,0,0,0,"Equal",8,8,10,18,10,18
"47",2,"LHB8-LHB9",-0.1933062995,-0.1307647985,-0.0134531335,-0.0419598285,-0.0783798485,-0.148026874,-0.2011527815,-0.2728880005,-0.3321954139,-0.1749953444,-0.120753889,-0.148943289,0.0093173624,-0.0661866441,-0.151395154,3082,"DG_s15",3.085,3.791,6.023,6.025,18,18,10,10,2.232,"Right",18,18,0,0,0,0,0,0,0,0,0,0,"Equal",8,8,10,18,10,18
"48",2,"LHB6-LHB7",-0.03646018822,-0.08199163772,-0.06781696772,-0.17709116622,-0.05206576672,-0.01948771372,-0.11191244872,-0.09629723822,-0.23320869622,-0.21490943972,-0.16365119222,-0.07502765872,0.04537677778,0.04252749778,0.04308134628,3082,"DG_s15",3.085,3.791,6.023,6.025,18,18,10,10,2.232,"Right",18,18,0,0,0,0,0,0,0,0,0,0,"Equal",8,8,10,18,10,18
"49",2,"LHB7-LHB8",-0.0838782385,-0.1131760535,-0.058671319,-0.150814194,-0.188887944,-0.2829112675,-0.1799819075,-0.0257301588,-0.0188772038,0.1491122217,0.0233045802,-0.0342883985,-0.019273741,-0.1242458665,-0.1016045,3082,"DG_s15",3.085,3.791,6.023,6.025,18,18,10,10,2.232,"Right",18,18,0,0,0,0,0,0,0,0,0,0,"Equal",8,8,10,18,10,18
"50",2,"LAM6-LAM7",-0.1089469455,-0.1588209015,-0.3186834845,-0.2735012545,-0.2202583335,-0.154270416,-0.183723763,-0.150141198,-0.1397250195,-0.126922145,-0.07590727,-0.1306026743,-0.2741138543,-0.2552931043,-0.2574011898,3082,"DG_s15",3.085,3.791,6.023,6.025,18,18,10,10,2.232,"Right",18,18,0,0,0,0,0,0,0,0,0,0,"Equal",8,8,10,18,10,18
"51",2,"LAM7-LAM8",0.05613797045,-0.0047577204,-0.0310091679,-0.00610869949999999,0.0760247805,0.15633793505,-0.00935442245,-0.15041761895,-0.27985599645,-0.311193528,-0.219683653,-0.1079873655,-0.085832438,-0.0872829825,-0.0153766575,3082,"DG_s15",3.085,3.791,6.023,6.025,18,18,10,10,2.232,"Right",18,18,0,0,0,0,0,0,0,0,0,0,"Equal",8,8,10,18,10,18
"52",2,"LHH6-LHH7",0.34960036465,0.36628929805,0.37063807505,0.39327929405,0.3050265389,0.234803545307,0.230485716307,0.281880540307,0.310157801307,0.285250025,0.173628804,0.1916324435,0.078893619,0.0449905295,0.1149682865,3082,"DG_s15",3.085,3.791,6.023,6.025,18,18,10,10,2.232,"Right",18,18,0,0,0,0,0,0,0,0,0,0,"Equal",8,8,10,18,10,18
"53",2,"LHH7-LHH8",0.029324403,0.189141561,0.126251806,0.081840311,-0.0291079945,-0.20380105395,-0.28227341895,-0.17441555395,-0.19835734045,-0.192214171,-0.211667735,-0.155053916,-0.118675834,-0.136579439,-0.060612879,3082,"DG_s15",3.085,3.791,6.023,6.025,18,18,10,10,2.232,"Right",18,18,0,0,0,0,0,0,0,0,0,0,"Equal",8,8,10,18,10,18
"54",2,"LTT9-LTT10",-0.109341475,-0.18651327,-0.2995509475,-0.1869997,-0.114713289,0.004887367,0.022159897,-0.0151551178,0.2250154712,0.2635010802,0.2936171747,0.290505466,0.200585366,0.14016891744,0.14309741544,3082,"DG_s15",3.085,3.791,6.023,6.025,18,18,10,10,2.232,"Right",18,18,0,0,0,0,0,0,0,0,0,0,"Equal",8,8,10,18,10,18
"55",2,"LAM8-LAM9",-0.13358820295,-0.27062173095,-0.30327688845,-0.3543955465,-0.2102973135,-0.0934430285,-0.113063883,-0.095714777,0.00472032999999999,0.021302915,0.110655047,0.051533917,-0.126492628,-0.091491963,-0.1536826555,3082,"DG_s15",3.085,3.791,6.023,6.025,18,18,10,10,2.232,"Right",18,18,0,0,0,0,0,0,0,0,0,0,"Equal",8,8,10,18,10,18
"56",2,"LHB5-LHB6",0.0129713775,-0.0273440175,-0.1564025515,-0.169708771,-0.029349616,-0.115501066,0.0317786205,0.086702265,0.082625615,0.118847325,0.0941895355,0.1527634625,0.0806503465,0.0382692765,-0.1041551365,3082,"DG_s15",3.085,3.791,6.023,6.025,18,18,10,10,2.232,"Right",18,18,0,0,0,0,0,0,0,0,0,0,"Equal",8,8,10,18,10,18
"57",2,"LAM9-LAM10",-0.05821788655,-0.11848151255,-0.10654106065,-0.13838039615,0.02489764835,0.00610271434999998,-0.13414402455,-0.16845978305,-0.2183128141,-0.1724257751,-0.0252256481,-0.0285130581,-0.000913918550000004,-0.11513467045,-0.12347317045,3082,"DG_s15",3.085,3.791,6.023,6.025,18,18,10,10,2.232,"Right",18,18,0,0,0,0,0,0,0,0,0,0,"Equal",8,8,10,18,10,18
"58",2,"LIP3-LIP4",-0.107852451,-0.0644061815,-0.081817902,-0.112980562,-0.049256211,0.0737346695,-0.0380905332,0.1674677568,0.13012775455,0.09665571705,0.31359062875,0.13390899695,0.2301041432,0.1969940997,0.1168054547,3082,"DG_s15",3.085,3.791,6.023,6.025,18,18,10,10,2.232,"Right",18,18,0,0,0,0,0,0,0,0,0,0,"Equal",8,8,10,18,10,18
"59",3,"LAM7-LAM8",-0.0448425965,-0.0425424925,-0.0400951665,0.0578445125,0.00589006949999998,0.01262734505,-0.05690739745,-0.15198909495,-0.106708784895,-0.147326540295,-0.189229572795,-0.00458719329500001,-0.08738600385,-0.0824544925,-0.082797973,3083,"DG_s15",7.026,7.731,9.383,9.385,10,26,10,10,1.652,"Right",10,26,16,16,0,0,16,0,16,0,-16,-16,"Disadvent",0,16,10,10,10,26
"60",3,"LAM2-LAM3",-0.28521477165,-0.25230434665,-0.25623937115,-0.09299049515,0.00369188984999999,0.036551837,0.03515968345,-0.15559797655,-0.14679854655,-0.1120702047,-0.16301103115,-0.08453315415,-0.09052571915,-0.07732210965,-0.04954614065,3083,"DG_s15",7.026,7.731,9.383,9.385,10,26,10,10,1.652,"Right",10,26,16,16,0,0,16,0,16,0,-16,-16,"Disadvent",0,16,10,10,10,26
"61",3,"LIP8-LIP9",0.00788404995,-0.19196126555,-0.304727303,-0.3390870925,-0.3165750245,-0.187266266,-0.1789066931,-0.0337103436,0.1086940484,0.0985252554,0.110287586,0.0436394725,-0.116551525,-0.1880069405,-0.202754024,3083,"DG_s15",7.026,7.731,9.383,9.385,10,26,10,10,1.652,"Right",10,26,16,16,0,0,16,0,16,0,-16,-16,"Disadvent",0,16,10,10,10,26
"62",3,"LHH6-LHH7",-0.03932656315,-0.05314440365,-0.01744993115,-0.0407899208,-0.000595953150000009,-0.05082845665,0.02095106735,0.035039568,-0.095804151,-0.0661802055,-0.14072342605,-0.13087046105,0.05071861945,0.11438123901,0.09702717156,3083,"DG_s15",7.026,7.731,9.383,9.385,10,26,10,10,1.652,"Right",10,26,16,16,0,0,16,0,16,0,-16,-16,"Disadvent",0,16,10,10,10,26
"63",3,"LAM4-LAM5",-0.23881094451,-0.2583665,-0.2783532795,-0.3515533525,-0.3149798105,-0.205020915,-0.1370220055,-0.1226273275,0.0319441805,0.0192339785,0.0665397255,0.0787601555,-0.0429299678,-0.1302018563,-0.0747080033,3083,"DG_s15",7.026,7.731,9.383,9.385,10,26,10,10,1.652,"Right",10,26,16,16,0,0,16,0,16,0,-16,-16,"Disadvent",0,16,10,10,10,26
"64",3,"LTT8-LTT9",-0.18414203705,-0.20883668505,-0.03095628505,-0.14253354205,-0.17258867555,-0.17057282155,-0.21019978655,-0.11056265455,-0.12991136965,-0.07081100735,-0.06026324835,-0.05316974335,0.00845083625,0.02676353395,0.07472440495,3083,"DG_s15",7.026,7.731,9.383,9.385,10,26,10,10,1.652,"Right",10,26,16,16,0,0,16,0,16,0,-16,-16,"Disadvent",0,16,10,10,10,26
"65",3,"LHB6-LHB7",0.062827176,0.1336703674,0.0769221394,-0.0200491128,-0.0450317743,-0.04458226505,-0.01435720455,0.00902190815000001,0.01122204765,0.05919849,0.160773244,0.180678909,0.263644937,0.281226235,0.1700255145,3083,"DG_s15",7.026,7.731,9.383,9.385,10,26,10,10,1.652,"Right",10,26,16,16,0,0,16,0,16,0,-16,-16,"Disadvent",0,16,10,10,10,26
"66",3,"LIP7-LIP8",-0.05944991795,-0.07348020895,-0.167270894,0.00640939750000001,0.0556132225,0.1378365765,0.1244017415,0.0806599235,0.0936173414,-0.0754333836,-0.1481653056,-0.2594422696,-0.226817089,-0.093738654,-0.0388694905,3083,"DG_s15",7.026,7.731,9.383,9.385,10,26,10,10,1.652,"Right",10,26,16,16,0,0,16,0,16,0,-16,-16,"Disadvent",0,16,10,10,10,26
"67",3,"LHB5-LHB6",-0.11403547385,-0.1446993542,-0.0950307342,-0.0755732572,-0.0032442655,0.00691881950000001,-0.0053510425,0.107068207,0.0404774455,-0.0638806145,-0.12429739625,-0.22095236275,-0.23579616625,-0.08227347925,-0.103299835,3083,"DG_s15",7.026,7.731,9.383,9.385,10,26,10,10,1.652,"Right",10,26,16,16,0,0,16,0,16,0,-16,-16,"Disadvent",0,16,10,10,10,26
"68",3,"LAM1-LAM2",-0.0469943685,-0.2136740435,-0.25037479,-0.1856623645,-0.1238536545,-0.0786263945,-0.0615668163,-0.1602895818,-0.12441517975,0.04730958025,0.04811739195,0.16271635395,0.1616866869,0.1328255619,0.20506245455,3083,"DG_s15",7.026,7.731,9.383,9.385,10,26,10,10,1.652,"Right",10,26,16,16,0,0,16,0,16,0,-16,-16,"Disadvent",0,16,10,10,10,26
"69",3,"LHB4-LHB5",0.12737475305,0.15440070305,0.22898790805,0.13587562005,0.25014111305,0.2381983534,0.0750055684,-0.0203618436,-0.1541353086,-0.12528498395,-0.11460641395,-0.08742457395,-0.09565141285,-0.14557434985,0.01875046015,3083,"DG_s15",7.026,7.731,9.383,9.385,10,26,10,10,1.652,"Right",10,26,16,16,0,0,16,0,16,0,-16,-16,"Disadvent",0,16,10,10,10,26
"70",3,"LHH5-LHH6",0.013298840815,-0.082995876255,-0.164974991255,-0.015477466755,0.053570187195,0.048671630765,0.025387715765,-0.129406404235,-0.197847502185,-0.099041748685,-0.074933270685,-0.059554554185,-0.130655674685,-0.248737077185,-0.297735022685,3083,"DG_s15",7.026,7.731,9.383,9.385,10,26,10,10,1.652,"Right",10,26,16,16,0,0,16,0,16,0,-16,-16,"Disadvent",0,16,10,10,10,26
"71",3,"LIP5-LIP6",0.3010618003,0.3654225648,0.2731400728,0.2357919006,0.1654328732,0.2124044332,0.2491672487,0.3122403407,0.2507521516,0.13768916205,0.12576014355,-0.00237030895000001,0.0111295882,-0.04913131225,-0.05217385225,3083,"DG_s15",7.026,7.731,9.383,9.385,10,26,10,10,1.652,"Right",10,26,16,16,0,0,16,0,16,0,-16,-16,"Disadvent",0,16,10,10,10,26
"72",3,"LAM9-LAM10",0.2215114,0.080031945,-0.0609430525,-0.103138571,-0.162868229,-0.1383828915,-0.229498809,-0.2235658325,-0.1606700395,-0.136292147,-0.0858879335,-0.097019175,-0.16346565,-0.204982333,-0.1178433435,3083,"DG_s15",7.026,7.731,9.383,9.385,10,26,10,10,1.652,"Right",10,26,16,16,0,0,16,0,16,0,-16,-16,"Disadvent",0,16,10,10,10,26
"73",3,"LIP1-LIP2",-0.15266785025,-0.12019268425,0.02722847025,0.03506315525,-0.01909702705,-0.06137608955,-0.25248492455,-0.21927633155,-0.2333425635,-0.2227573895,-0.0872977745,-0.0647130835,-0.033132603,-0.0777910185,-0.1598580745,3083,"DG_s15",7.026,7.731,9.383,9.385,10,26,10,10,1.652,"Right",10,26,16,16,0,0,16,0,16,0,-16,-16,"Disadvent",0,16,10,10,10,26
"74",3,"LHH4-LHH5",-0.5132107865,-0.5013133835,-0.4014750635,-0.3301955505,-0.4138199855,-0.504768392,-0.575931576,-0.599853775,-0.3708939975,-0.3502086125,-0.264549566,-0.2867983365,-0.410628236,-0.327662576,-0.2708843625,3083,"DG_s15",7.026,7.731,9.383,9.385,10,26,10,10,1.652,"Right",10,26,16,16,0,0,16,0,16,0,-16,-16,"Disadvent",0,16,10,10,10,26
"75",3,"LHH7-LHH8",0.0257501099,0.06172056735,0.07737126435,-0.01717388915,-0.15611457415,-0.2563855646,-0.2945950816,-0.278742608,-0.100361836,-0.027990362,0.01345815605,0.09124662245,0.000577598949999994,-0.06972081075,-0.1397744083,3083,"DG_s15",7.026,7.731,9.383,9.385,10,26,10,10,1.652,"Right",10,26,16,16,0,0,16,0,16,0,-16,-16,"Disadvent",0,16,10,10,10,26
"76",3,"LAM3-LAM4",-0.0629845555,0.00596551275,-0.0298798952,-0.00418042020000001,0.0710967293,0.1360311623,0.1827364413,0.2337983288,0.2176523228,0.1458164268,0.1441540483,-0.0514244242,-0.1265308002,-0.2538134807,-0.2597013617,3083,"DG_s15",7.026,7.731,9.383,9.385,10,26,10,10,1.652,"Right",10,26,16,16,0,0,16,0,16,0,-16,-16,"Disadvent",0,16,10,10,10,26
"77",3,"LIP3-LIP4",-0.1130975845,-0.20124055985,-0.29378599635,-0.19219561685,-0.25476858485,-0.2715101195,-0.1952873345,-0.2698937105,-0.0542075605,-0.0678600655,-0.0513520805,-0.012140846,-0.080871151,0.0530523398,0.0610671618,3083,"DG_s15",7.026,7.731,9.383,9.385,10,26,10,10,1.652,"Right",10,26,16,16,0,0,16,0,16,0,-16,-16,"Disadvent",0,16,10,10,10,26
"78",3,"LIP6-LIP7",-0.11373588495,-0.2036393285,-0.221263969,-0.1243734115,-0.2856225175,-0.1632518845,-0.1466515745,-0.1211332135,0.0293505675,-0.0112647525,-0.1108740573,-0.2763148801,-0.3820859351,-0.3781668171,-0.3499838163,3083,"DG_s15",7.026,7.731,9.383,9.385,10,26,10,10,1.652,"Right",10,26,16,16,0,0,16,0,16,0,-16,-16,"Disadvent",0,16,10,10,10,26
"79",3,"LIP4-LIP5",0.05271438735,0.06596127735,0.02659281435,0.12610361435,0.07262972535,0.15762285435,0.23047020535,0.21756062285,0.29455771785,0.27972468885,0.27221891285,0.37083511385,0.32542686785,0.31701343785,0.33974662135,3083,"DG_s15",7.026,7.731,9.383,9.385,10,26,10,10,1.652,"Right",10,26,16,16,0,0,16,0,16,0,-16,-16,"Disadvent",0,16,10,10,10,26
"80",3,"LAM8-LAM9",0.0347408356,0.0911305906,0.0045570275,0.033172934,0.060215904,0.065395319,-0.0433780985,-0.124919598,-0.2261650765,-0.2983977565,-0.1391703965,-0.054913622,-0.1406052935,-0.1612722895,-0.1676022135,3083,"DG_s15",7.026,7.731,9.383,9.385,10,26,10,10,1.652,"Right",10,26,16,16,0,0,16,0,16,0,-16,-16,"Disadvent",0,16,10,10,10,26
"81",3,"LAM5-LAM6",-0.3314423485,-0.3037434285,-0.2019417435,-0.162721367,-0.1319330285,-0.2115928235,-0.2487457035,-0.240627782,-0.2670930855,-0.363224159,-0.404468596,-0.529276866,-0.6017014145,-0.4612448105,-0.3962762575,3083,"DG_s15",7.026,7.731,9.383,9.385,10,26,10,10,1.652,"Right",10,26,16,16,0,0,16,0,16,0,-16,-16,"Disadvent",0,16,10,10,10,26
"82",3,"LHB7-LHB8",-0.128356416,-0.1317037495,-0.03526115595,-0.005683178,0.1194820555,0.2514105855,0.19513932695,0.2563275025,0.2683419025,0.1861593205,0.2261174255,0.216876262,0.176234627,0.103453869,0.082311274,3083,"DG_s15",7.026,7.731,9.383,9.385,10,26,10,10,1.652,"Right",10,26,16,16,0,0,16,0,16,0,-16,-16,"Disadvent",0,16,10,10,10,26
"83",3,"LIP2-LIP3",-0.12872518075,-0.13309504325,-0.17699486325,-0.1242776405,-0.2029750095,-0.29200466575,-0.37694695575,-0.4939007445,-0.3364263795,-0.227710817,-0.160015032,-0.10343319525,-0.19677055185,-0.17663994435,-0.23130850435,3083,"DG_s15",7.026,7.731,9.383,9.385,10,26,10,10,1.652,"Right",10,26,16,16,0,0,16,0,16,0,-16,-16,"Disadvent",0,16,10,10,10,26
"84",3,"LHB9-LHB10",-0.26969805055,-0.11774358505,-0.09587974405,-0.16865729605,-0.12022997105,-0.12164266605,-0.20078906155,-0.21352740005,-0.20216789905,-0.24824324415,-0.19318933265,-0.06981087515,0.08403949885,0.10165424295,0.14584497395,3083,"DG_s15",7.026,7.731,9.383,9.385,10,26,10,10,1.652,"Right",10,26,16,16,0,0,16,0,16,0,-16,-16,"Disadvent",0,16,10,10,10,26
"85",3,"LAM6-LAM7",0.235746776,0.229959492,0.351897467,0.0922293716,0.1357703821,0.1685193501,0.09404036315,0.17967790855,0.14143445965,0.13828963165,0.0815374936,0.1080708936,0.1527670695,0.2199210755,0.15794654155,3083,"DG_s15",7.026,7.731,9.383,9.385,10,26,10,10,1.652,"Right",10,26,16,16,0,0,16,0,16,0,-16,-16,"Disadvent",0,16,10,10,10,26
"86",3,"LHB8-LHB9",0.15648319375,0.27959019525,0.35913805925,0.31115647725,0.25705035285,0.16354765235,0.08893589085,0.21871051735,0.2172278864,0.24101457465,0.25771183115,0.02597228665,0.08925983515,0.1196800839,0.2509931089,3083,"DG_s15",7.026,7.731,9.383,9.385,10,26,10,10,1.652,"Right",10,26,16,16,0,0,16,0,16,0,-16,-16,"Disadvent",0,16,10,10,10,26
"87",3,"LTT9-LTT10",-0.5509184525,-0.5076980575,-0.5319673925,-0.4444367385,-0.488189703,-0.509964733,-0.4680127415,-0.425766834,-0.44431894745,-0.44654991695,-0.46180779975,-0.43396623975,-0.3199610753,-0.3036288103,-0.168109154,3083,"DG_s15",7.026,7.731,9.383,9.385,10,26,10,10,1.652,"Right",10,26,16,16,0,0,16,0,16,0,-16,-16,"Disadvent",0,16,10,10,10,26
"88",4,"LAM1-LAM2",0.123580581,0.190105851,0.1116306015,0.023555313,0.0310903607,-0.1195138093,-0.0003457693,0.0313217347,-0.0302869605,0.0723076745,0.081737837,0.149543283,0.155381757,0.1354809555,0.114977903,3084,"DG_s15",10.386,11.091,13.747,13.749,16,4,10,10,2.656,"Right",16,4,12,12,0,0,0,-12,0,-12,12,12,"Advent",6,-6,10,16,10,4
"89",4,"LIP1-LIP2",-0.3057482725,-0.350162758745,-0.139525658745,-0.193556383745,-0.175387529745,-0.166395744,-0.1981065302,-0.152200088555,-0.073485132555,-0.040017982555,-0.063420666855,-0.107065445,-0.077532325,-0.0619037245,-0.018788035,3084,"DG_s15",10.386,11.091,13.747,13.749,16,4,10,10,2.656,"Right",16,4,12,12,0,0,0,-12,0,-12,12,12,"Advent",6,-6,10,16,10,4
"90",4,"LHB8-LHB9",-0.27347295705,-0.26477190305,-0.07827460305,0.04289464695,0.24788785345,0.24193702795,0.05666679795,0.03958788195,-0.12057661405,-0.24436451855,-0.17364533205,-0.12322646605,0.02308447195,0.22736168695,0.20872255745,3084,"DG_s15",10.386,11.091,13.747,13.749,16,4,10,10,2.656,"Right",16,4,12,12,0,0,0,-12,0,-12,12,12,"Advent",6,-6,10,16,10,4
"91",4,"LIP7-LIP8",0.363957551,0.240394059,0.2633688865,0.1830819525,0.098891753,0.1346904341,0.0822117997,0.126140150338,0.129620003338,0.138734344238,0.114214456738,0.0550971911,0.1422935571,0.0541872076,0.0692561465,3084,"DG_s15",10.386,11.091,13.747,13.749,16,4,10,10,2.656,"Right",16,4,12,12,0,0,0,-12,0,-12,12,12,"Advent",6,-6,10,16,10,4
"92",4,"LAM7-LAM8",-0.07699218465,-0.18065344965,-0.10934254215,0.01225004285,0.04656338235,0.08084998035,0.06125460235,-0.01923879265,0.12831457235,0.22372513935,0.290266348825,0.345268829325,0.224926177325,0.047452798325,0.04946309585,3084,"DG_s15",10.386,11.091,13.747,13.749,16,4,10,10,2.656,"Right",16,4,12,12,0,0,0,-12,0,-12,12,12,"Advent",6,-6,10,16,10,4
"93",4,"LAM2-LAM3",0.279433382,0.279599013,0.1710530095,0.1550600835,0.0692573835,-0.0159829415,-0.0467640495,-0.111099996,-0.13999633,-0.152866001,-0.15808754,-0.1783121225,-0.1915931385,-0.18644905655,-0.17953487405,3084,"DG_s15",10.386,11.091,13.747,13.749,16,4,10,10,2.656,"Right",16,4,12,12,0,0,0,-12,0,-12,12,12,"Advent",6,-6,10,16,10,4
"94",4,"LAM5-LAM6",-0.1503164356,-0.1652406493,-0.2741628153,-0.3409670198,-0.2368186108,-0.2875326275,-0.1275270175,0.027119246,-0.011443638,0.0498382992,0.00133364670000001,-0.1347412523,-0.0132049428,-0.033243415,-0.1081312415,3084,"DG_s15",10.386,11.091,13.747,13.749,16,4,10,10,2.656,"Right",16,4,12,12,0,0,0,-12,0,-12,12,12,"Advent",6,-6,10,16,10,4
"95",4,"LAM4-LAM5",-0.0078410515,-0.016721653,-0.1116922715,-0.1213781865,-0.111502838,-0.14997111365,-0.06807238015,0.07752842485,0.11968330945,0.2189828116,0.1372399145,0.1216604945,0.1127354584,-0.0048022571,0.065565886,3084,"DG_s15",10.386,11.091,13.747,13.749,16,4,10,10,2.656,"Right",16,4,12,12,0,0,0,-12,0,-12,12,12,"Advent",6,-6,10,16,10,4
"96",4,"LAM6-LAM7",-0.03050087735,0.07430568765,-0.00695689734999999,-0.14023451735,-0.07629538635,-0.06465781885,-0.03907965485,-0.04380284935,0.03323449565,0.02197332865,-0.09072362385,-0.15757293785,-0.278900995,-0.379015232,-0.377861121,3084,"DG_s15",10.386,11.091,13.747,13.749,16,4,10,10,2.656,"Right",16,4,12,12,0,0,0,-12,0,-12,12,12,"Advent",6,-6,10,16,10,4
"97",4,"LHB9-LHB10",-0.1014613435,-0.2174611038,-0.2212991008,-0.1976909618,-0.1806606803,-0.174908625,-0.10340134,-0.16013976275,-0.15850040775,-0.20444782775,-0.46059932775,-0.53821901175,-0.5332341213,-0.5632880463,-0.4646863638,3084,"DG_s15",10.386,11.091,13.747,13.749,16,4,10,10,2.656,"Right",16,4,12,12,0,0,0,-12,0,-12,12,12,"Advent",6,-6,10,16,10,4
"98",4,"LIP2-LIP3",-0.270072485,-0.1943577525,-0.1095862525,-0.0924775785,0.00958735450000001,0.048693882,0.0645913575,0.0773171245,0.042666029,-0.041626751,-0.0999797815,-0.1461251205,-0.106767061,-0.038451206,0.026051449,3084,"DG_s15",10.386,11.091,13.747,13.749,16,4,10,10,2.656,"Right",16,4,12,12,0,0,0,-12,0,-12,12,12,"Advent",6,-6,10,16,10,4
"99",4,"LAM3-LAM4",0.33051021745,0.29792112245,0.22105105945,0.17235763345,0.05822495095,0.02840272795,-0.07131277305,-0.13099855205,-0.15044377855,-0.20907661345,-0.05293809495,0.09974123505,0.11629491555,0.13362228145,0.07672290395,3084,"DG_s15",10.386,11.091,13.747,13.749,16,4,10,10,2.656,"Right",16,4,12,12,0,0,0,-12,0,-12,12,12,"Advent",6,-6,10,16,10,4
"100",4,"LIP5-LIP6",-0.1470381085,-0.107448116,0.019233124,0.172130123,0.242660384,0.2485384945,0.19936886045,0.21286342565,0.21703384565,0.14474867015,0.171009519,0.1385942248,0.1315019898,0.0559968603,0.0844567655,3084,"DG_s15",10.386,11.091,13.747,13.749,16,4,10,10,2.656,"Right",16,4,12,12,0,0,0,-12,0,-12,12,12,"Advent",6,-6,10,16,10,4
"101",4,"LIP4-LIP5",-0.1000189676,-0.0791337931,-0.030632141,0.052501863,0.0627528105,0.117299415,0.0550221675,-0.05133493005,-0.18922842255,-0.29045753605,-0.34960300655,-0.2092888155,-0.136965142,-0.0822738485,0.1047878325,3084,"DG_s15",10.386,11.091,13.747,13.749,16,4,10,10,2.656,"Right",16,4,12,12,0,0,0,-12,0,-12,12,12,"Advent",6,-6,10,16,10,4
"102",4,"LTT8-LTT9",-0.0598782525,-0.0225102275,0.1955394525,0.2080918585,-0.0606143595,-0.1543141185,-0.359353758,-0.3489400235,-0.2591824705,-0.2383729265,-0.168129542,-0.126739776,-0.126199176,-0.220137481,-0.1590443175,3084,"DG_s15",10.386,11.091,13.747,13.749,16,4,10,10,2.656,"Right",16,4,12,12,0,0,0,-12,0,-12,12,12,"Advent",6,-6,10,16,10,4
"103",4,"LHH7-LHH8",-0.1677327119,-0.092023806,-0.020466216,-0.032684216,-0.0932776855,-0.096541587,-0.0596564045,-0.0085581055,0.1546446045,0.14264062435,0.02970151685,0.03503041385,-0.10260991115,-0.1377017005,0.0235284175,3084,"DG_s15",10.386,11.091,13.747,13.749,16,4,10,10,2.656,"Right",16,4,12,12,0,0,0,-12,0,-12,12,12,"Advent",6,-6,10,16,10,4
"104",4,"LTT9-LTT10",-0.0233590835,0.098791706,0.240189118,0.202372692,0.25263408615,0.21290996915,0.05169159415,0.12139469515,0.14706012975,0.06136740175,0.02592402325,-0.01672906025,0.04487836425,-0.01554384025,0.04663573375,3084,"DG_s15",10.386,11.091,13.747,13.749,16,4,10,10,2.656,"Right",16,4,12,12,0,0,0,-12,0,-12,12,12,"Advent",6,-6,10,16,10,4
"105",4,"LHB5-LHB6",0.121341966,0.031815841,0.0778928695,0.1237552205,0.0853284075,0.2124440675,0.263771894,0.250486393,0.2626831213,0.0993828943,0.0162679713,0.0415354863,-0.008150896,0.0436074535,0.0738060515,3084,"DG_s15",10.386,11.091,13.747,13.749,16,4,10,10,2.656,"Right",16,4,12,12,0,0,0,-12,0,-12,12,12,"Advent",6,-6,10,16,10,4
"106",4,"LIP3-LIP4",-0.1745704285,-0.199805577,-0.24951788,-0.153714803,-0.2766687555,-0.233935606,-0.221271748,-0.1097017029,-0.0518032384,-0.0446009429,-0.0699472879,-0.1353852095,-0.08872215825,-0.07279514825,0.04655179975,3084,"DG_s15",10.386,11.091,13.747,13.749,16,4,10,10,2.656,"Right",16,4,12,12,0,0,0,-12,0,-12,12,12,"Advent",6,-6,10,16,10,4
"107",4,"LHB7-LHB8",0.1276929065,0.3762358965,0.2302094645,0.2350180655,0.194456705,0.0641094725,0.1838136295,0.1660776155,0.245300613,0.3292273555,0.3043741105,0.4321803115,0.2594902715,0.280462565,0.217914278,3084,"DG_s15",10.386,11.091,13.747,13.749,16,4,10,10,2.656,"Right",16,4,12,12,0,0,0,-12,0,-12,12,12,"Advent",6,-6,10,16,10,4
"108",4,"LHH6-LHH7",0.23808854628,0.18296685828,0.11460909928,0.12999758353,0.08467357403,0.05135389503,0.15927474303,0.18614895653,0.23004016603,0.17936792603,0.12869644503,0.26398153153,0.22204853753,0.25527345653,0.30358729353,3084,"DG_s15",10.386,11.091,13.747,13.749,16,4,10,10,2.656,"Right",16,4,12,12,0,0,0,-12,0,-12,12,12,"Advent",6,-6,10,16,10,4
"109",4,"LAM8-LAM9",0.0809837015,-0.0057140951,0.0845586779,0.0998082389,0.0339769944,0.0455306175,-0.0291628,-0.0592990825,-0.0109408675,0.1356413875,0.03226238,0.1145087085,0.10098645965,0.00146961579999999,0.1234863508,3084,"DG_s15",10.386,11.091,13.747,13.749,16,4,10,10,2.656,"Right",16,4,12,12,0,0,0,-12,0,-12,12,12,"Advent",6,-6,10,16,10,4
"110",4,"LIP6-LIP7",0.1474492795,0.067116341,0.010842186,0.0315460385,-0.0221933475,0.027810872,0.188359902,0.1983388705,0.332705794,0.4827055195,0.3637642045,0.244609305,0.1396514015,0.042450702,0.076876888,3084,"DG_s15",10.386,11.091,13.747,13.749,16,4,10,10,2.656,"Right",16,4,12,12,0,0,0,-12,0,-12,12,12,"Advent",6,-6,10,16,10,4
"111",4,"LHB4-LHB5",0.33238500962,0.2995363212,0.14959227925,0.09273971475,-0.05983685025,0.00190395125000001,0.09186028825,0.04588876975,0.04908867975,0.07914952425,0.13838688375,0.20308842975,0.21629460475,0.09562537475,0.04958476325,3084,"DG_s15",10.386,11.091,13.747,13.749,16,4,10,10,2.656,"Right",16,4,12,12,0,0,0,-12,0,-12,12,12,"Advent",6,-6,10,16,10,4
"112",4,"LHH4-LHH5",-0.0614222165,-0.0134591015,-0.0661525465,-0.0360874445,-0.055170221,0.0384804975,0.1881425875,0.115042586,0.04616015575,0.05513217225,-0.01596928775,-0.03184193275,-0.092884331,-0.177398356,-0.185263231,3084,"DG_s15",10.386,11.091,13.747,13.749,16,4,10,10,2.656,"Right",16,4,12,12,0,0,0,-12,0,-12,12,12,"Advent",6,-6,10,16,10,4
"113",4,"LIP8-LIP9",-0.0891816386,-0.0551908736,-0.1215841811,-0.11032044265,-0.16328898365,-0.23796145015,-0.36927073265,-0.4283234075,-0.2928093325,-0.2232973545,-0.07498793895,0.06459742805,0.20894110915,0.20740720815,0.1896180576,3084,"DG_s15",10.386,11.091,13.747,13.749,16,4,10,10,2.656,"Right",16,4,12,12,0,0,0,-12,0,-12,12,12,"Advent",6,-6,10,16,10,4
"114",4,"LHH5-LHH6",0.04150261905,0.05048272155,0.11255950255,0.24361749855,0.26539083105,0.34695241605,0.39754568055,0.28629855455,0.17375853195,0.10254435845,0.03317395595,0.11724153095,0.12743784805,0.13425425155,0.12496469455,3084,"DG_s15",10.386,11.091,13.747,13.749,16,4,10,10,2.656,"Right",16,4,12,12,0,0,0,-12,0,-12,12,12,"Advent",6,-6,10,16,10,4
"115",4,"LAM9-LAM10",-0.0896426403,-0.1445666568,-0.0375763623,0.0594640762,0.109135991,0.136764688,0.1028801875,0.1265517635,0.1367027505,0.1922589515,0.1868454965,0.248184522,0.260632324,0.2278655275,0.3518159475,3084,"DG_s15",10.386,11.091,13.747,13.749,16,4,10,10,2.656,"Right",16,4,12,12,0,0,0,-12,0,-12,12,12,"Advent",6,-6,10,16,10,4
"116",4,"LHB6-LHB7",0.08211189944,0.07046236444,0.02707766604,0.0697791879,-0.0465841511,-0.1058969156,-0.10027840785,-0.19317841735,-0.23506952385,-0.20413802285,-0.14187405385,-0.01042606585,0.01564141965,0.12462936815,0.17001456415,3084,"DG_s15",10.386,11.091,13.747,13.749,16,4,10,10,2.656,"Right",16,4,12,12,0,0,0,-12,0,-12,12,12,"Advent",6,-6,10,16,10,4
"117",5,"LIP8-LIP9",0.03084869955,0.03063491195,-0.07559236555,-0.1113156255,-0.1376309715,-0.201613882,-0.1737545455,-0.167409369,-0.1416220835,-0.1466309219,-0.0606000924,-0.0664976804,-0.0405033159,0.0220667465,-0.00182714319999999,3085,"DG_s15",14.75,15.456,17.897,17.899,10,10,6,6,2.441,"Right",6,6,0,0,0,0,0,0,0,0,0,0,"10-10",4,4,6,10,6,10
"118",5,"LHH7-LHH8",0.29103040705,0.36764073095,0.42161686095,0.29881503095,0.10063299095,-0.04445456715,-0.10823355215,-0.16915058215,-0.08984263615,-0.07972134115,-0.03428969615,0.05931978885,0.05443229085,0.24310770385,0.33506481885,3085,"DG_s15",14.75,15.456,17.897,17.899,10,10,6,6,2.441,"Right",6,6,0,0,0,0,0,0,0,0,0,0,"10-10",4,4,6,10,6,10
"119",5,"LAM5-LAM6",0.06557821085,-0.0409673623,-0.1687622443,-0.2848569933,-0.2349743768,-0.1329415642,-0.0856059617,-0.0981132757,-0.0890069122,-0.093036317935,0.031643321065,0.075039910065,0.024972440065,0.0563294197,0.0896469697,3085,"DG_s15",14.75,15.456,17.897,17.899,10,10,6,6,2.441,"Right",6,6,0,0,0,0,0,0,0,0,0,0,"10-10",4,4,6,10,6,10
"120",5,"LAM2-LAM3",0.20375124945,0.29107223445,0.24899317125,0.29990334025,0.28472867375,0.23798785875,0.25442662595,0.16920666795,0.1026064604,0.1116851499,0.1800673699,0.1460652539,0.10778170895,0.0655331927,-0.0321381313,3085,"DG_s15",14.75,15.456,17.897,17.899,10,10,6,6,2.441,"Right",6,6,0,0,0,0,0,0,0,0,0,0,"10-10",4,4,6,10,6,10
"121",5,"LIP6-LIP7",-0.20351893,-0.1465708765,-0.084363326,-0.108190267685,-0.165626463185,-0.169516041685,-0.227347938635,-0.26580914795,-0.22879824795,-0.09787053295,-0.012149707,-0.0821830425,-0.1526930615,-0.3426881015,-0.450526246,3085,"DG_s15",14.75,15.456,17.897,17.899,10,10,6,6,2.441,"Right",6,6,0,0,0,0,0,0,0,0,0,0,"10-10",4,4,6,10,6,10
"122",5,"LAM9-LAM10",0.242899581,0.076687185,-0.0080861815,-0.1004760415,-0.2955448094,-0.2458293484,-0.0690765504,0.0693084546,0.1184304575,0.0577626885,0.0409597805,-0.0576009095,0.0395266975,0.0798750855,-0.0491808927,3085,"DG_s15",14.75,15.456,17.897,17.899,10,10,6,6,2.441,"Right",6,6,0,0,0,0,0,0,0,0,0,0,"10-10",4,4,6,10,6,10
"123",5,"LIP4-LIP5",-0.10191863345,-0.05933069345,-0.07699275455,0.05214785545,0.19831353295,0.12380397645,0.21681581195,0.12686233695,0.06529451445,0.10131020195,-0.06046936505,-0.08750909005,-0.06557953605,-0.06553991505,-0.03362509015,3085,"DG_s15",14.75,15.456,17.897,17.899,10,10,6,6,2.441,"Right",6,6,0,0,0,0,0,0,0,0,0,0,"10-10",4,4,6,10,6,10
"124",5,"LHH6-LHH7",0.244780138,0.2410560682,0.1555759417,0.1347689432,0.1265908287,0.1982917435,0.1735567115,0.20586113465,0.14580312915,0.12768424415,0.31420411415,0.296005561,0.2593907945,0.0598767945,-0.087725717,3085,"DG_s15",14.75,15.456,17.897,17.899,10,10,6,6,2.441,"Right",6,6,0,0,0,0,0,0,0,0,0,0,"10-10",4,4,6,10,6,10
"125",5,"LIP7-LIP8",-0.14638228685,-0.29136292685,-0.3001607795,-0.320511689,-0.355146646,-0.3254311365,-0.369903111,-0.410325759,-0.3934346795,-0.3613528815,-0.294375784,-0.3229788715,-0.255414814,-0.2569007505,-0.3273419145,3085,"DG_s15",14.75,15.456,17.897,17.899,10,10,6,6,2.441,"Right",6,6,0,0,0,0,0,0,0,0,0,0,"10-10",4,4,6,10,6,10
"126",5,"LIP1-LIP2",0.08556752465,0.19557506665,0.14332732225,0.10078110995,0.0610675398,-0.0366367752,0.04116234735,0.06286007535,0.042973748,-0.016668777,-0.04635463775,-0.07785665125,-0.10677581375,-0.03552625675,0.08902302585,3085,"DG_s15",14.75,15.456,17.897,17.899,10,10,6,6,2.441,"Right",6,6,0,0,0,0,0,0,0,0,0,0,"10-10",4,4,6,10,6,10
"127",5,"LAM1-LAM2",0.210594185,0.2460966775,0.169543638,0.183529093,0.2462171365,0.23587747325,0.25970667205,0.17356696705,0.07540081205,0.0338720703,0.0991065465,0.1234326227,0.0947652227,0.1914245927,0.1434902892,3085,"DG_s15",14.75,15.456,17.897,17.899,10,10,6,6,2.441,"Right",6,6,0,0,0,0,0,0,0,0,0,0,"10-10",4,4,6,10,6,10
"128",5,"LAM4-LAM5",0.092205412435,0.126017417935,0.171981154435,0.201412513435,0.185319272935,0.100832523435,0.029065078785,-0.098430454715,-0.108476469715,-0.004719795715,0.064584697935,0.165533346435,0.216816776435,0.155211085435,0.247127936935,3085,"DG_s15",14.75,15.456,17.897,17.899,10,10,6,6,2.441,"Right",6,6,0,0,0,0,0,0,0,0,0,0,"10-10",4,4,6,10,6,10
"129",5,"LIP5-LIP6",-0.044671956,-0.085705601,-0.080696631,-0.086748969,-0.1367659275,-0.0999627225,-0.00613698735000001,-0.04952752385,-0.08748874035,-0.02977301485,-0.01634893,-0.0129768645,0.1301338605,0.16365464,0.18055526,3085,"DG_s15",14.75,15.456,17.897,17.899,10,10,6,6,2.441,"Right",6,6,0,0,0,0,0,0,0,0,0,0,"10-10",4,4,6,10,6,10
"130",5,"LIP2-LIP3",-0.05732328635,0.15230921815,0.33035173515,0.34538079415,0.29063013715,0.06727448145,-0.08830550755,-0.15156649005,-0.06238645655,-0.11996359035,-0.06073218385,0.00238900765000001,-0.02135701385,0.1028594517,0.1664586342,3085,"DG_s15",14.75,15.456,17.897,17.899,10,10,6,6,2.441,"Right",6,6,0,0,0,0,0,0,0,0,0,0,"10-10",4,4,6,10,6,10
"131",5,"LAM7-LAM8",0.00209822129999999,0.0519233989,0.05135142135,-0.04886150015,-0.00769032265,-0.00388807815,0.026554533,-0.015950663,-0.0522097885,-0.15308717455,-0.29199210955,-0.34676876955,-0.31489680805,-0.2362468605,-0.210708822,3085,"DG_s15",14.75,15.456,17.897,17.899,10,10,6,6,2.441,"Right",6,6,0,0,0,0,0,0,0,0,0,0,"10-10",4,4,6,10,6,10
"132",5,"LHB8-LHB9",-0.08320924645,-0.12703527145,-0.1805077635,-0.2343670475,-0.1893742595,-0.107066601,-0.14785984,-0.1267406165,-0.1302205635,-0.17270588055,-0.17284202585,-0.15259091185,-0.25916893635,-0.2263513208,-0.26054157765,3085,"DG_s15",14.75,15.456,17.897,17.899,10,10,6,6,2.441,"Right",6,6,0,0,0,0,0,0,0,0,0,0,"10-10",4,4,6,10,6,10
"133",5,"LHB4-LHB5",0.1861486935,0.2815311285,0.336885601435,0.436354752435,0.286253707435,0.139202257435,0.0287549071,-0.0677528694,0.0112951156,0.0102206641,0.000749044300000001,-0.0378487612,-0.0223691887,0.0010969428,0.06596851,3085,"DG_s15",14.75,15.456,17.897,17.899,10,10,6,6,2.441,"Right",6,6,0,0,0,0,0,0,0,0,0,0,"10-10",4,4,6,10,6,10
"134",5,"LAM8-LAM9",-0.00585954499999999,0.0103508885,-0.0722539465,-0.06759703845,-0.17441658395,-0.03029817895,0.03071965755,0.1326279315,0.115442267,-0.0402327425,-0.045108761,-0.2254587425,-0.0642311835,-0.07581604135,-0.01786196035,3085,"DG_s15",14.75,15.456,17.897,17.899,10,10,6,6,2.441,"Right",6,6,0,0,0,0,0,0,0,0,0,0,"10-10",4,4,6,10,6,10
"135",5,"LHB9-LHB10",-0.272056378,-0.2466706705,-0.081149147,0.102910078,-0.0330655635,0.161756769,-0.058114656,-0.125927051,-0.1880558275,-0.237493896,-0.1725932485,-0.2347462335,-0.2728974845,-0.3002894862,-0.3669650817,3085,"DG_s15",14.75,15.456,17.897,17.899,10,10,6,6,2.441,"Right",6,6,0,0,0,0,0,0,0,0,0,0,"10-10",4,4,6,10,6,10
"136",5,"LHB6-LHB7",-0.090030485,-0.120565123,-0.05985327,-0.05864244,-0.09525103771,-0.04874550221,-0.18187024371,-0.15141280271,-0.06760029,-0.0092943675,0.071906059,0.046117239,-0.04291040325,-0.16569323625,-0.15378062125,3085,"DG_s15",14.75,15.456,17.897,17.899,10,10,6,6,2.441,"Right",6,6,0,0,0,0,0,0,0,0,0,0,"10-10",4,4,6,10,6,10
"137",5,"LHB5-LHB6",-0.080499193,-0.0342721015,-0.0405726105,0.1573067035,0.170547188,0.1819811105,0.063078052,-0.048541025,-0.175737949,-0.249327375,-0.17739699395,-0.24157072495,-0.18708461095,-0.13023098495,-0.102095066,3085,"DG_s15",14.75,15.456,17.897,17.899,10,10,6,6,2.441,"Right",6,6,0,0,0,0,0,0,0,0,0,0,"10-10",4,4,6,10,6,10
"138",5,"LIP3-LIP4",-0.0545235767,-0.0107317135,-0.0643983072,-0.0297510652,-0.04662931902,-0.07930319902,-0.11164245232,-0.17608623832,-0.1274195065,-0.1570831875,-0.0529854245,-0.019002591,-0.0628194315,-0.1279176655,-0.129652531,3085,"DG_s15",14.75,15.456,17.897,17.899,10,10,6,6,2.441,"Right",6,6,0,0,0,0,0,0,0,0,0,0,"10-10",4,4,6,10,6,10
"139",5,"LAM6-LAM7",0.2690148409,0.3215506514,0.2289529074,0.1512994079,0.0808213914,0.0428786369,0.0190480574,-0.0426282446,-0.0344762146,0.0721348303,0.1945825406,0.2003211406,0.3614206281,0.3903972377,0.3026457564,3085,"DG_s15",14.75,15.456,17.897,17.899,10,10,6,6,2.441,"Right",6,6,0,0,0,0,0,0,0,0,0,0,"10-10",4,4,6,10,6,10
"140",5,"LHH4-LHH5",0.083132314155,0.077141923655,0.042795556155,-0.021748963345,0.068807161155,0.080596802505,0.012893315005,-0.019953614495,-0.066903844995,0.121686674155,0.164254684155,0.239461025155,0.293557826155,0.039579891155,0.000645636155000004,3085,"DG_s15",14.75,15.456,17.897,17.899,10,10,6,6,2.441,"Right",6,6,0,0,0,0,0,0,0,0,0,0,"10-10",4,4,6,10,6,10
"141",5,"LHH5-LHH6",-0.3375146175,-0.3523834855,-0.313798475,-0.2448257145,-0.14748045815,-0.07308052415,0.01016450885,0.00160679385000001,-0.075252944,-0.084354184,-0.147697005,-0.137802464,-0.1087514055,-0.10546818,-0.054436209,3085,"DG_s15",14.75,15.456,17.897,17.899,10,10,6,6,2.441,"Right",6,6,0,0,0,0,0,0,0,0,0,0,"10-10",4,4,6,10,6,10
"142",5,"LAM3-LAM4",0.086765092,0.0973993367,0.0108225972,0.10030922595,0.04848134145,0.02503743245,-0.00578560755,-0.06278469205,0.03413060395,0.08289341295,0.17194069295,0.18867187295,0.15652547845,0.09662482945,0.06338945145,3085,"DG_s15",14.75,15.456,17.897,17.899,10,10,6,6,2.441,"Right",6,6,0,0,0,0,0,0,0,0,0,0,"10-10",4,4,6,10,6,10
"143",5,"LTT8-LTT9",-0.088962648,-0.00788443345000001,0.057171243,-0.061585632,-0.043341182,-0.01050076155,-0.064670276,-0.032295808,-0.07200091435,-0.18546841735,-0.21076948285,-0.14231728185,-0.0916807049,-0.0223827619,0.0407951166,3085,"DG_s15",14.75,15.456,17.897,17.899,10,10,6,6,2.441,"Right",6,6,0,0,0,0,0,0,0,0,0,0,"10-10",4,4,6,10,6,10
"144",5,"LHB7-LHB8",0.120495797,0.113189174,0.0623853215,0.115640569,0.050892509,0.050123539,0.115914796,0.2379810465,0.1606789645,0.1137034745,-0.006879027,-0.0330064255,-0.0219733685,-0.07760238355,0.00120908944999999,3085,"DG_s15",14.75,15.456,17.897,17.899,10,10,6,6,2.441,"Right",6,6,0,0,0,0,0,0,0,0,0,0,"10-10",4,4,6,10,6,10
"145",5,"LTT9-LTT10",-0.141401241,-0.0570437882,-0.0151335857,-0.0745205642,-0.0123555027,0.03514755755,-0.01185057295,0.0460668567,0.0895323667,0.04111966815,0.16034251565,0.141137275,-0.00778761,-0.0672348895,-0.1257372625,3085,"DG_s15",14.75,15.456,17.897,17.899,10,10,6,6,2.441,"Right",6,6,0,0,0,0,0,0,0,0,0,0,"10-10",4,4,6,10,6,10
"146",6,"LTT9-LTT10",0.12085283395,0.20893390495,0.18687575845,0.10582976895,0.2262403517,0.1012665617,0.1752844727,0.2767535667,0.2522596177,0.2708385677,0.2096955822,0.0672970372,-0.0481323158,-0.2395645758,-0.3790464003,3086,"DG_s15",18.9,19.605,22.571,22.573,10,10,8,11,2.966,"Right",8,11,3,0,3,3,3,0,0,0,-3,0,"10-10",2,-1,8,10,11,10
"147",6,"LHB6-LHB7",0.066221056,0.104787002,0.0693661268,0.1093159093,0.0595744478,0.02248169505,-0.02090494895,-0.02450477695,-0.00036014795,-0.000971845200000002,-0.019822409,-0.012254891,0.0778527935,0.1158976235,0.0220697915,3086,"DG_s15",18.9,19.605,22.571,22.573,10,10,8,11,2.966,"Right",8,11,3,0,3,3,3,0,0,0,-3,0,"10-10",2,-1,8,10,11,10
"148",6,"LHB5-LHB6",-0.089456509,-0.1806900575,-0.0967073545,-0.0019408695,-0.031165657,0.028793423,-0.039190688,-0.1884493525,-0.210314196,-0.288464401,-0.303887054,-0.223840144,-0.13167021,-0.040664635,0.0173345375,3086,"DG_s15",18.9,19.605,22.571,22.573,10,10,8,11,2.966,"Right",8,11,3,0,3,3,3,0,0,0,-3,0,"10-10",2,-1,8,10,11,10
"149",6,"LIP1-LIP2",-0.02811537445,0.04988054055,0.02644140905,0.00929338805,-0.06043225195,-0.14631030195,0.000999157549999997,0.16252243055,0.18730070655,0.23051465605,0.21957845605,0.0450850446,0.0462287931,0.1200751536,-0.0498383799,3086,"DG_s15",18.9,19.605,22.571,22.573,10,10,8,11,2.966,"Right",8,11,3,0,3,3,3,0,0,0,-3,0,"10-10",2,-1,8,10,11,10
"150",6,"LHH6-LHH7",0.09243277105,0.0809141055,0.187251315,0.14907182,0.1704242285,0.22469304575,0.13239012275,-0.08952249725,-0.1489887014,-0.19460579315,-0.24570286365,-0.01558953365,0.0717634855,0.087563897,0.0948264095,3086,"DG_s15",18.9,19.605,22.571,22.573,10,10,8,11,2.966,"Right",8,11,3,0,3,3,3,0,0,0,-3,0,"10-10",2,-1,8,10,11,10
"151",6,"LIP7-LIP8",-0.136562176585,-0.181146627085,-0.259902576085,-0.323227087585,-0.312138275585,-0.323527601585,-0.155034461585,-0.085503668585,-0.177040701335,-0.171754724335,-0.184705114335,-0.214330274335,-0.238038261585,-0.239224181085,-0.217101881085,3086,"DG_s15",18.9,19.605,22.571,22.573,10,10,8,11,2.966,"Right",8,11,3,0,3,3,3,0,0,0,-3,0,"10-10",2,-1,8,10,11,10
"152",6,"LHH4-LHH5",-0.18286662125,-0.15670409425,-0.17938200475,-0.15369487025,-0.28680719775,-0.2495870931,-0.0962641246,-0.1336423151,-0.1194036304,-0.15464312645,-0.19060038645,-0.22129453745,-0.11928866715,-0.18794226175,-0.27892336125,3086,"DG_s15",18.9,19.605,22.571,22.573,10,10,8,11,2.966,"Right",8,11,3,0,3,3,3,0,0,0,-3,0,"10-10",2,-1,8,10,11,10
"153",6,"LHB7-LHB8",-0.1829428863,-0.1977330248,-0.1004440698,0.0111621842,0.0705493338,0.0687568773,-0.0172858872,-0.0043065087,0.0428197013,0.04403342028,0.11228791628,0.14666959778,0.10297545128,0.2438174008,0.3068775678,3086,"DG_s15",18.9,19.605,22.571,22.573,10,10,8,11,2.966,"Right",8,11,3,0,3,3,3,0,0,0,-3,0,"10-10",2,-1,8,10,11,10
"154",6,"LIP5-LIP6",-0.120404567,-0.096110127,-0.0738593605,0.00796016300000002,-0.0981056565,-0.1279007415,0.1731713045,0.156017791,0.21900005315,0.21977566315,-0.0171158372,-0.00942169919999999,-0.06151479335,-0.01206906835,-0.11440443227,3086,"DG_s15",18.9,19.605,22.571,22.573,10,10,8,11,2.966,"Right",8,11,3,0,3,3,3,0,0,0,-3,0,"10-10",2,-1,8,10,11,10
"155",6,"LTT8-LTT9",-0.324307508,-0.294428073,-0.3035933165,-0.372785612,-0.349892686,-0.424963476,-0.4179249785,-0.3832599075,-0.31931273945,-0.34777664945,-0.30221934945,-0.35684558295,-0.384131013,-0.431518663,-0.5310261077,3086,"DG_s15",18.9,19.605,22.571,22.573,10,10,8,11,2.966,"Right",8,11,3,0,3,3,3,0,0,0,-3,0,"10-10",2,-1,8,10,11,10
"156",6,"LIP8-LIP9",-0.08396557725,0.0851666185,0.248240718,0.296382516,0.2842091285,0.2027303735,0.00659732,-0.060418463,-0.134112228,-0.212739613,-0.0830036095,0.0087465125,0.0897915625,0.129959968,0.123032808,3086,"DG_s15",18.9,19.605,22.571,22.573,10,10,8,11,2.966,"Right",8,11,3,0,3,3,3,0,0,0,-3,0,"10-10",2,-1,8,10,11,10
"157",6,"LAM6-LAM7",-0.092746594,0.051352671,0.0185877865,-0.0648700055,-0.1178068455,-0.2549921155,-0.2009172485,-0.154505557,-0.20808429655,-0.25792726255,-0.2909510897,-0.2790826156,-0.193825105315,-0.106003089315,-0.103567491165,3086,"DG_s15",18.9,19.605,22.571,22.573,10,10,8,11,2.966,"Right",8,11,3,0,3,3,3,0,0,0,-3,0,"10-10",2,-1,8,10,11,10
"158",6,"LHB8-LHB9",-0.04829570855,-0.05432394795,-0.04397137775,-0.06279821875,0.06800012925,0.01168315115,-0.00803086885,0.02193782315,-0.09919774735,-0.11224501335,-0.19676577835,-0.27933452685,-0.30306070935,-0.32534118085,-0.23767714785,3086,"DG_s15",18.9,19.605,22.571,22.573,10,10,8,11,2.966,"Right",8,11,3,0,3,3,3,0,0,0,-3,0,"10-10",2,-1,8,10,11,10
"159",6,"LAM7-LAM8",0.0761116899,0.0837420024,0.1346850124,0.1830947489,0.3269555989,0.3727792689,0.3140946009,0.2975313039,0.1839882879,0.1816813679,0.1899158874,0.2402263199,0.2466792159,0.1997151084,0.2283882669,3086,"DG_s15",18.9,19.605,22.571,22.573,10,10,8,11,2.966,"Right",8,11,3,0,3,3,3,0,0,0,-3,0,"10-10",2,-1,8,10,11,10
"160",6,"LAM9-LAM10",0.24693832555,0.17845445655,0.10011043005,0.01911569505,-0.097331334,-0.171330493,-0.092204378,-0.156940268,-0.0298529035,-0.0333123535,-0.0950345539,0.0591542011,0.0352281436,0.0990274886,0.203869004,3086,"DG_s15",18.9,19.605,22.571,22.573,10,10,8,11,2.966,"Right",8,11,3,0,3,3,3,0,0,0,-3,0,"10-10",2,-1,8,10,11,10
"161",6,"LIP3-LIP4",-0.1243456335,-0.11233736505,-0.12152452005,-0.00957583704999999,0.04165954695,-0.0139524575,-0.083791924,-0.142523636,-0.144746856,0.0226163215,0.169147224,0.120918298,0.061539993,-0.0607044845,-0.189021504,3086,"DG_s15",18.9,19.605,22.571,22.573,10,10,8,11,2.966,"Right",8,11,3,0,3,3,3,0,0,0,-3,0,"10-10",2,-1,8,10,11,10
"162",6,"LHH7-LHH8",0.017058197263,-0.002420578737,0.133121264763,0.127697889763,0.072052524763,0.00808207076299999,-0.147851906737,-0.196670747237,-0.244011190737,-0.161046100737,-0.062084976237,0.025809189073,0.014375682573,0.099250682573,0.175572350073,3086,"DG_s15",18.9,19.605,22.571,22.573,10,10,8,11,2.966,"Right",8,11,3,0,3,3,3,0,0,0,-3,0,"10-10",2,-1,8,10,11,10
"163",6,"LHB4-LHB5",0.04980479875,0.02024602875,-0.00989100985,0.10833066015,0.01949279915,0.14563815315,0.2425515535,0.16630823,0.10457703,-0.01669478255,-0.12409178755,-0.01269892405,0.09483660095,0.1278853895,0.195054692,3086,"DG_s15",18.9,19.605,22.571,22.573,10,10,8,11,2.966,"Right",8,11,3,0,3,3,3,0,0,0,-3,0,"10-10",2,-1,8,10,11,10
"164",6,"LHB9-LHB10",-0.07907305535,-0.011770568,-0.0103352465,0.0056009105,-0.115983271,-0.213456897,-0.307207452,-0.154093216,-0.198830147,-0.1811735845,-0.1736784215,-0.3086845625,-0.2346908945,-0.248475513,-0.2930477425,3086,"DG_s15",18.9,19.605,22.571,22.573,10,10,8,11,2.966,"Right",8,11,3,0,3,3,3,0,0,0,-3,0,"10-10",2,-1,8,10,11,10
"165",6,"LIP4-LIP5",-0.252203088,-0.157204797,-0.080068657,-0.0865373565,-0.017520281,-0.10271407355,-0.11664834405,-0.20150592755,-0.2645755455,-0.31187694295,-0.33696273645,-0.26234376245,-0.230945325,-0.115692925,-0.127313026,3086,"DG_s15",18.9,19.605,22.571,22.573,10,10,8,11,2.966,"Right",8,11,3,0,3,3,3,0,0,0,-3,0,"10-10",2,-1,8,10,11,10
"166",6,"LAM4-LAM5",-0.03179169025,0.02090245725,-0.04253525875,-0.03266258575,-0.03522682525,-0.08488369875,-0.00524355974999999,-0.05987685775,-0.00741980775,0.03906963345,-0.0591474731,0.1135845169,0.2237100604,0.1773294157,0.20680768125,3086,"DG_s15",18.9,19.605,22.571,22.573,10,10,8,11,2.966,"Right",8,11,3,0,3,3,3,0,0,0,-3,0,"10-10",2,-1,8,10,11,10
"167",6,"LAM1-LAM2",0.0244144485,0.0559066945,0.0724247675,0.0677217665,-0.1220449295,-0.0552404712,-0.0120242767,-0.0466814012,0.1426559713,0.215371828,0.1989689266,0.3376761676,0.3634938551,0.2125609491,0.21126200885,3086,"DG_s15",18.9,19.605,22.571,22.573,10,10,8,11,2.966,"Right",8,11,3,0,3,3,3,0,0,0,-3,0,"10-10",2,-1,8,10,11,10
"168",6,"LAM5-LAM6",-0.07100537305,-0.06073935605,-0.03016224305,0.07806004725,0.0090769772,-0.0508771348,0.0489501817,0.0271489629,-0.0212690571,-0.0083538926,-0.0612626161,0.1518507924,0.3253986624,0.4904831409,0.4811350949,3086,"DG_s15",18.9,19.605,22.571,22.573,10,10,8,11,2.966,"Right",8,11,3,0,3,3,3,0,0,0,-3,0,"10-10",2,-1,8,10,11,10
"169",6,"LAM3-LAM4",0.173079564,0.225850762,0.250540887,0.278335422,0.3531760515,0.374343345,0.366667815,0.179682275,0.2095192335,0.145581231,0.031471991,0.077431151,-0.0447294965,-0.015430108,-0.067316863,3086,"DG_s15",18.9,19.605,22.571,22.573,10,10,8,11,2.966,"Right",8,11,3,0,3,3,3,0,0,0,-3,0,"10-10",2,-1,8,10,11,10
"170",6,"LIP2-LIP3",-0.101146255,-0.1120046755,-0.1367573245,-0.12060284815,-0.17514822315,-0.07215235265,-0.05429012015,-0.0257405015,-0.1716358965,-0.2269163215,-0.2327593855,-0.2704587555,-0.19687171705,-0.29070101705,-0.28913945305,3086,"DG_s15",18.9,19.605,22.571,22.573,10,10,8,11,2.966,"Right",8,11,3,0,3,3,3,0,0,0,-3,0,"10-10",2,-1,8,10,11,10
"171",6,"LAM2-LAM3",-0.0636700225,-0.07661409795,0.0315674714,0.0621846749,0.0900415199,0.03776765545,0.0744320011,0.1259146626,0.3344853241,0.41570353255,0.27313214805,0.42476426305,0.45558772655,0.39142225755,0.49929973805,3086,"DG_s15",18.9,19.605,22.571,22.573,10,10,8,11,2.966,"Right",8,11,3,0,3,3,3,0,0,0,-3,0,"10-10",2,-1,8,10,11,10
"172",6,"LHH5-LHH6",0.13640259,0.0398957025,0.068536124,0.130438491,0.12298452745,0.106336399995,0.071669991995,0.055209556995,0.047013586545,0.1264664645,0.172419308,0.1820931995,0.157009053,0.161951198,0.1093093465,3086,"DG_s15",18.9,19.605,22.571,22.573,10,10,8,11,2.966,"Right",8,11,3,0,3,3,3,0,0,0,-3,0,"10-10",2,-1,8,10,11,10
"173",6,"LIP6-LIP7",0.1800776893,0.188416584,0.2862925255,0.1988430465,0.110314951,0.1067852545,0.4275335975,0.5203347715,0.449786075,0.429075469,0.0465410297,-0.1001841623,-0.0436669778,0.0289899602,0.0678000297,3086,"DG_s15",18.9,19.605,22.571,22.573,10,10,8,11,2.966,"Right",8,11,3,0,3,3,3,0,0,0,-3,0,"10-10",2,-1,8,10,11,10
"174",6,"LAM8-LAM9",-0.249720214,-0.165317829,-0.1534599115,0.0647904885,0.0816664331,0.0412555781,-0.0747421046,-0.2711829196,-0.2713231512,-0.2445147162,-0.288670942,-0.202710727,-0.168200244675,-0.108637834675,0.069474891325,3086,"DG_s15",18.9,19.605,22.571,22.573,10,10,8,11,2.966,"Right",8,11,3,0,3,3,3,0,0,0,-3,0,"10-10",2,-1,8,10,11,10
"175",7,"LTT9-LTT10",0.1020324421,0.1302186851,0.1652921276,0.2390921931,0.2346249766,0.1044620201,0.0358107151,0.0523656366,0.0926794206,0.1061995496,0.2072342666,0.1673667446,0.21479292455,0.225525338905,0.195888477905,3087,"DG_s15",23.575,24.28,26.332,26.334,28,4,10,10,2.052,"Left",28,4,24,24,0,0,0,-24,0,-24,24,24,"Advent",18,-6,28,10,4,10
"176",7,"LAM7-LAM8",0.0190765335,-0.0549654575,0.1191028225,0.038005769,-0.0425905695,0.0249512515,0.0229368515,-0.04066823,0.0303463655,-0.0206735405,-0.065290849,0.0602137095,-0.026466564,-0.0320042875,-0.047938290315,3087,"DG_s15",23.575,24.28,26.332,26.334,28,4,10,10,2.052,"Left",28,4,24,24,0,0,0,-24,0,-24,24,24,"Advent",18,-6,28,10,4,10
"177",7,"LIP6-LIP7",-0.0436211225,-0.173360323,-0.159762711,-0.249981649,-0.31545712475,-0.21658271475,-0.17142820825,-0.15611684675,-0.0778020985,-0.2529006285,-0.3555352615,-0.33428559,-0.3894239216,-0.3689220856,-0.3346147506,3087,"DG_s15",23.575,24.28,26.332,26.334,28,4,10,10,2.052,"Left",28,4,24,24,0,0,0,-24,0,-24,24,24,"Advent",18,-6,28,10,4,10
"178",7,"LAM9-LAM10",0.02259006285,-0.03837513505,-0.07135602355,-0.11913650555,-0.095760601,-0.2022647971,-0.2195003896,-0.1655623586,-0.1837188686,-0.0697765776,-0.1267818576,-0.1387398316,-0.0405235346,-0.0451264206,-0.0098860846,3087,"DG_s15",23.575,24.28,26.332,26.334,28,4,10,10,2.052,"Left",28,4,24,24,0,0,0,-24,0,-24,24,24,"Advent",18,-6,28,10,4,10
"179",7,"LIP2-LIP3",-0.041638895,-0.0701134635,0.00709465349999999,-0.089230244,-0.134881195,-0.1807975795,-0.1427379665,-0.041329529,-0.01783052425,0.07756010525,0.02271361525,0.00630247574999998,0.011337336,-0.0298340635,-0.0131541485,3087,"DG_s15",23.575,24.28,26.332,26.334,28,4,10,10,2.052,"Left",28,4,24,24,0,0,0,-24,0,-24,24,24,"Advent",18,-6,28,10,4,10
"180",7,"LAM4-LAM5",-0.197880272,-0.320050358,-0.277990654,-0.3580519425,-0.3101418715,-0.29859846,-0.277571545,-0.1524567245,-0.2266479675,-0.1476894575,-0.0229179775,-0.159440267,-0.0171904435,0.00436708450000001,-0.0786966555,3087,"DG_s15",23.575,24.28,26.332,26.334,28,4,10,10,2.052,"Left",28,4,24,24,0,0,0,-24,0,-24,24,24,"Advent",18,-6,28,10,4,10
"181",7,"LHH4-LHH5",-0.407912166,-0.3858108115,-0.4183145715,-0.324063656,-0.393549509,-0.369319826,-0.2611478565,-0.24785946915,-0.12197124115,-0.09729790215,-0.12650139665,-0.1717671365,-0.1578244765,-0.155542373,-0.059825793,3087,"DG_s15",23.575,24.28,26.332,26.334,28,4,10,10,2.052,"Left",28,4,24,24,0,0,0,-24,0,-24,24,24,"Advent",18,-6,28,10,4,10
"182",7,"LAM8-LAM9",-0.13522362015,-0.10736322565,-0.10993186015,-0.18759056415,-0.12121308565,-0.12667852215,0.10575877785,0.18273837335,0.13657464585,0.09949513685,-0.06251902215,-0.10295832915,-0.15628242345,-0.08753032545,-0.02514994945,3087,"DG_s15",23.575,24.28,26.332,26.334,28,4,10,10,2.052,"Left",28,4,24,24,0,0,0,-24,0,-24,24,24,"Advent",18,-6,28,10,4,10
"183",7,"LAM2-LAM3",-0.02455732905,-0.08591423055,-0.22835201555,-0.19941656725,-0.29786874375,-0.28360023575,-0.15832116575,-0.09164880925,0.00337655225,-0.00320301174999998,-0.02201522675,-0.0752829573,-0.1104286873,-0.1222474348,-0.1484593023,3087,"DG_s15",23.575,24.28,26.332,26.334,28,4,10,10,2.052,"Left",28,4,24,24,0,0,0,-24,0,-24,24,24,"Advent",18,-6,28,10,4,10
"184",7,"LIP4-LIP5",-0.0139192405,-0.02798853325,-0.01627809775,-0.07527483225,-0.08461731375,-0.08972801375,-0.24273098775,-0.2233925649,-0.1509461614,-0.1099838404,-0.0633189669,-0.06470536075,-0.12624965775,-0.21187311115,-0.38204446965,3087,"DG_s15",23.575,24.28,26.332,26.334,28,4,10,10,2.052,"Left",28,4,24,24,0,0,0,-24,0,-24,24,24,"Advent",18,-6,28,10,4,10
"185",7,"LTT8-LTT9",-0.2074548766,-0.1826348638,-0.1570350788,-0.2215706223,-0.2778942883,-0.31166717515,-0.301450757755,-0.288480322755,-0.265922890755,-0.168323656705,-0.1252291976,-0.1026199561,-0.0658723886,-0.1621319936,-0.1242214786,3087,"DG_s15",23.575,24.28,26.332,26.334,28,4,10,10,2.052,"Left",28,4,24,24,0,0,0,-24,0,-24,24,24,"Advent",18,-6,28,10,4,10
"186",7,"LHB4-LHB5",-0.08509096015,-0.17308464015,-0.13995339065,-0.104456182,-0.162297606,0.036805539,0.0356826189,0.01986719835,-0.01062327265,-0.09409378965,-0.03011453555,0.00231016950000001,0.1791125795,0.197483948,0.184039888,3087,"DG_s15",23.575,24.28,26.332,26.334,28,4,10,10,2.052,"Left",28,4,24,24,0,0,0,-24,0,-24,24,24,"Advent",18,-6,28,10,4,10
"187",7,"LIP7-LIP8",0.185289039,0.064033996,0.13367430055,-0.14248997745,-0.20584997245,-0.22185125495,-0.210953704,-0.087005742,-0.069553562,-0.095549885,-0.1744493855,-0.188636042,-0.2660146295,-0.2053766615,-0.13037755,3087,"DG_s15",23.575,24.28,26.332,26.334,28,4,10,10,2.052,"Left",28,4,24,24,0,0,0,-24,0,-24,24,24,"Advent",18,-6,28,10,4,10
"188",7,"LHB7-LHB8",-0.108617246,-0.2049858575,-0.330412148,-0.27051331,-0.203005819,-0.149319184,-0.047160022065,-0.030880819865,0.045369498635,0.029278544135,0.0032966772,0.01736852055,-0.02224066345,0.02138950955,0.05429620955,3087,"DG_s15",23.575,24.28,26.332,26.334,28,4,10,10,2.052,"Left",28,4,24,24,0,0,0,-24,0,-24,24,24,"Advent",18,-6,28,10,4,10
"189",7,"LIP5-LIP6",0.0050509765,-0.0280667245,-0.070826193,-0.1406378655,-0.242220133,-0.257244068,-0.204657104,-0.285749597,-0.166045722,-0.061070425,-0.012456485,0.1766877055,0.1161106021,0.0518830616,-0.0705521659,3087,"DG_s15",23.575,24.28,26.332,26.334,28,4,10,10,2.052,"Left",28,4,24,24,0,0,0,-24,0,-24,24,24,"Advent",18,-6,28,10,4,10
"190",7,"LIP3-LIP4",0.0386739093,0.0654177538,0.0774432883,0.0128006633,-0.0518414417,-0.0138705172,0.0033584233,0.0636287843,0.0593011493,0.00286732905,0.06503447605,0.03977182005,0.06398211505,0.0384723538,-0.0560165632,3087,"DG_s15",23.575,24.28,26.332,26.334,28,4,10,10,2.052,"Left",28,4,24,24,0,0,0,-24,0,-24,24,24,"Advent",18,-6,28,10,4,10
"191",7,"LHB5-LHB6",0.2667696501,0.2318816231,0.22400171865,0.21989769565,0.14169543665,0.04166840065,0.10180063365,0.08552577365,0.17087048315,0.225237686595,0.143980052355,0.106629151355,0.027276145855,-0.01675257509,0.10665259815,3087,"DG_s15",23.575,24.28,26.332,26.334,28,4,10,10,2.052,"Left",28,4,24,24,0,0,0,-24,0,-24,24,24,"Advent",18,-6,28,10,4,10
"192",7,"LAM6-LAM7",0.07403683485,0.04763310995,-0.011195603485,0.010316094515,0.217027120515,0.228467496965,0.2976617946,0.2436639357,0.1410911772,0.17961453965,0.27289567815,0.29362426555,0.16714649355,0.13117849855,-0.01466381145,3087,"DG_s15",23.575,24.28,26.332,26.334,28,4,10,10,2.052,"Left",28,4,24,24,0,0,0,-24,0,-24,24,24,"Advent",18,-6,28,10,4,10
"193",7,"LHH5-LHH6",-0.01824667405,-0.07202752155,-0.01407871655,0.08791336845,0.05049344845,0.12295286195,0.02084217195,-0.10517233755,-0.12428759555,-0.22551381105,-0.10088655605,-0.03490279155,-0.17004068355,-0.00813780705,0.05924355295,3087,"DG_s15",23.575,24.28,26.332,26.334,28,4,10,10,2.052,"Left",28,4,24,24,0,0,0,-24,0,-24,24,24,"Advent",18,-6,28,10,4,10
"194",7,"LHH6-LHH7",0.0119919725,-0.1419771825,-0.1112173435,-0.0868646775,0.059203126,0.16071933,0.1999479185,0.1854161385,0.1405900385,0.005819257,0.0982444825,0.2251522875,0.10303769915,0.26539779165,0.2368134894,3087,"DG_s15",23.575,24.28,26.332,26.334,28,4,10,10,2.052,"Left",28,4,24,24,0,0,0,-24,0,-24,24,24,"Advent",18,-6,28,10,4,10
"195",7,"LAM3-LAM4",-0.089750425396,0.0353435918,0.0360141013,0.0238401063,-0.0359857786,-0.1346584461,-0.1169445061,-0.0920616516,-0.00731805669999999,0.0319369868,0.0409965113,0.1517042708,0.0715878238,0.0286500203,-0.00302383919999999,3087,"DG_s15",23.575,24.28,26.332,26.334,28,4,10,10,2.052,"Left",28,4,24,24,0,0,0,-24,0,-24,24,24,"Advent",18,-6,28,10,4,10
"196",7,"LHB6-LHB7",-0.01497287325,-0.11842601025,-0.030496928,-0.050611266,0.07361139,0.0608980645,0.0352335225,0.069615627,-0.0499654485,0.011403988,-0.0268085125,-0.016482827,-0.0595087815,-0.0232974735,0.033576455,3087,"DG_s15",23.575,24.28,26.332,26.334,28,4,10,10,2.052,"Left",28,4,24,24,0,0,0,-24,0,-24,24,24,"Advent",18,-6,28,10,4,10
"197",7,"LIP8-LIP9",0.2189381864,0.1712503484,0.26038826315,0.22550867865,0.18364114815,0.26716746415,0.16647545265,0.14750556315,0.15655499615,0.10747241615,0.08210861065,0.08509123001,0.03952236696,0.05356532396,0.09325367296,3087,"DG_s15",23.575,24.28,26.332,26.334,28,4,10,10,2.052,"Left",28,4,24,24,0,0,0,-24,0,-24,24,24,"Advent",18,-6,28,10,4,10
"198",7,"LAM5-LAM6",-0.0445797135,-0.041236408,-0.0612088375,-0.05192697865,-0.11643659415,-0.07839184295,0.01592860155,0.0231069447,0.0296550982,0.0260076675,-0.0465765665,-0.0622878565,-0.038470848,-0.155466303,-0.121628245,3087,"DG_s15",23.575,24.28,26.332,26.334,28,4,10,10,2.052,"Left",28,4,24,24,0,0,0,-24,0,-24,24,24,"Advent",18,-6,28,10,4,10
"199",7,"LHB8-LHB9",-0.2647504105,-0.201929908,-0.1384672515,-0.1555625935,-0.112128025,-0.115498555,-0.21252983,-0.2130589825,-0.2089446825,-0.2055992095,-0.021822456,0.0356678195,0.0647897995,0.0731718115,0.0520674265,3087,"DG_s15",23.575,24.28,26.332,26.334,28,4,10,10,2.052,"Left",28,4,24,24,0,0,0,-24,0,-24,24,24,"Advent",18,-6,28,10,4,10
"200",7,"LAM1-LAM2",-0.040539614,-0.212759944,-0.183616544,-0.054925234,0.0980748855,0.0974236555,0.0932207555,0.0497011855,-0.00951483100000003,-0.065961791,-0.2271326895,-0.2479462935,-0.2945372774,-0.2282888074,-0.0350238074,3087,"DG_s15",23.575,24.28,26.332,26.334,28,4,10,10,2.052,"Left",28,4,24,24,0,0,0,-24,0,-24,24,24,"Advent",18,-6,28,10,4,10
"201",7,"LIP1-LIP2",0.00906158070000002,-0.0147121628,0.0811297572,0.1084343555,0.011133244,-0.09186125,-0.1267795115,-0.01259906485,0.01202890215,0.13935172615,0.11459488665,-0.15384646335,-0.19815384385,-0.29592420435,-0.34205113185,3087,"DG_s15",23.575,24.28,26.332,26.334,28,4,10,10,2.052,"Left",28,4,24,24,0,0,0,-24,0,-24,24,24,"Advent",18,-6,28,10,4,10
"202",7,"LHH7-LHH8",0.0794357719,-0.081991616,-0.1274312525,-0.1907569375,-0.2441614775,-0.268731843,-0.1700338506,-0.21151594065,-0.32779981065,-0.35146972015,-0.47261315755,-0.4589891225,-0.4140836825,-0.2377126925,-0.143066653,3087,"DG_s15",23.575,24.28,26.332,26.334,28,4,10,10,2.052,"Left",28,4,24,24,0,0,0,-24,0,-24,24,24,"Advent",18,-6,28,10,4,10
"203",7,"LHB9-LHB10",-0.524151694,-0.484277245,-0.4051660575,-0.34846999,-0.2635200545,-0.1423370985,-0.2552357805,-0.209097352,-0.2002016105,-0.3129327735,-0.274738702,-0.3461129075,-0.440276822,-0.43399746685,-0.38443420485,3087,"DG_s15",23.575,24.28,26.332,26.334,28,4,10,10,2.052,"Left",28,4,24,24,0,0,0,-24,0,-24,24,24,"Advent",18,-6,28,10,4,10
"204",8,"LHH7-LHH8",0.1369381063,0.0971892763,-0.0155920467,-0.0318228817,-0.049753117,-0.073916622,-0.1003603485,-0.1276801565,-0.2376653165,-0.239179555,-0.246956075,-0.1739119055,0.0484173645,-0.077482027,-0.0854907775,3088,"DG_s15",27.335,28.041,30.293,30.295,10,10,11,7,2.252,"Left",11,7,4,0,4,-4,0,-4,0,0,4,0,"10-10",-1,3,10,11,10,7
"205",8,"LAM2-LAM3",0.0825657933,-0.00554477349999999,0.1231729615,0.166686508,0.306338556,0.4298054565,0.4193518267,0.3827401192,0.3107227562,0.2896973007,0.3108029105,0.2935183325,0.3370173315,0.2415203015,0.2483068115,3088,"DG_s15",27.335,28.041,30.293,30.295,10,10,11,7,2.252,"Left",11,7,4,0,4,-4,0,-4,0,0,4,0,"10-10",-1,3,10,11,10,7
"206",8,"LAM9-LAM10",-0.2570549695,-0.0520347995,-0.144096211,-0.164001121,-0.24014069,-0.37472382649,-0.25079834199,-0.17189392649,-0.16033985854,-0.19289551205,-0.30753050245,-0.22007172295,-0.1292529419,-0.1412549169,-0.117416488,3088,"DG_s15",27.335,28.041,30.293,30.295,10,10,11,7,2.252,"Left",11,7,4,0,4,-4,0,-4,0,0,4,0,"10-10",-1,3,10,11,10,7
"207",8,"LAM8-LAM9",-0.310210195655,-0.393961830655,-0.280628532155,-0.205971927155,-0.108792786155,-0.012741235155,0.018689269845,-0.032044439655,-0.056432894655,-0.135979315655,-0.233915220155,-0.162984780155,-0.172289404155,-0.093510971655,-0.010411762155,3088,"DG_s15",27.335,28.041,30.293,30.295,10,10,11,7,2.252,"Left",11,7,4,0,4,-4,0,-4,0,0,4,0,"10-10",-1,3,10,11,10,7
"208",8,"LIP7-LIP8",0.1952247445,0.2058997892,0.2517089142,0.1723458047,0.1598625507,0.08926963775,-0.02022757285,0.01363569565,-0.02177237385,-0.0334273406,-0.0166618035,-0.0526172735,-0.0429118945,-0.055107186,0.023066651,3088,"DG_s15",27.335,28.041,30.293,30.295,10,10,11,7,2.252,"Left",11,7,4,0,4,-4,0,-4,0,0,4,0,"10-10",-1,3,10,11,10,7
"209",8,"LAM3-LAM4",0.223653642,0.255547929995,0.355196465495,0.333938181495,0.370659942995,0.4510203275,0.3050051955,0.1185083345,0.0630617745,-0.01824596715,-0.00584462165000001,0.07969139585,-0.00640121565,-0.0828141915,-0.05810334395,3088,"DG_s15",27.335,28.041,30.293,30.295,10,10,11,7,2.252,"Left",11,7,4,0,4,-4,0,-4,0,0,4,0,"10-10",-1,3,10,11,10,7
"210",8,"LHH4-LHH5",-0.15620635085,-0.26106502585,-0.34528450835,-0.4427196415,-0.444683516,-0.42058865605,-0.41109671455,-0.30185113255,-0.23567606655,-0.258999758,-0.0950781545,-0.0821408765,-0.1575863765,-0.1628027645,-0.168608855,3088,"DG_s15",27.335,28.041,30.293,30.295,10,10,11,7,2.252,"Left",11,7,4,0,4,-4,0,-4,0,0,4,0,"10-10",-1,3,10,11,10,7
"211",8,"LTT8-LTT9",-0.14134670425,-0.08100652905,-0.10666603955,0.01212366645,0.07523152945,0.13253217645,0.16361359895,-0.01623929965,-0.11294830265,-0.14118877265,-0.02520940765,0.10544215595,0.29108073245,0.23882296345,0.19372995845,3088,"DG_s15",27.335,28.041,30.293,30.295,10,10,11,7,2.252,"Left",11,7,4,0,4,-4,0,-4,0,0,4,0,"10-10",-1,3,10,11,10,7
"212",8,"LIP1-LIP2",0.2177923059,0.2308230924,0.0809780974,0.1288341969,0.0903943285,-0.0109310952,0.0142979773,0.1171702528,0.2488735028,0.2281919605,0.1841989075,0.0830320875,0.0122457585,0.00325980299999999,0.0298317035,3088,"DG_s15",27.335,28.041,30.293,30.295,10,10,11,7,2.252,"Left",11,7,4,0,4,-4,0,-4,0,0,4,0,"10-10",-1,3,10,11,10,7
"213",8,"LHB8-LHB9",0.01059165385,0.06016520935,0.023771554,0.063523825,-0.101631239,-0.0157123895,0.093683214,0.04053444515,0.13841307015,0.04457597015,-0.01336852485,0.068836243,0.178766468,0.245326678,0.27877801,3088,"DG_s15",27.335,28.041,30.293,30.295,10,10,11,7,2.252,"Left",11,7,4,0,4,-4,0,-4,0,0,4,0,"10-10",-1,3,10,11,10,7
"214",8,"LIP5-LIP6",0.044664404,0.075225508,0.046795443,-0.0552167245,-0.1420482645,-0.1864190735,-0.2152277455,-0.18081487,-0.1400505985,-0.119568033,-0.1670103355,-0.138064161,-0.0252513025,-0.00282157675,0.01970473475,3088,"DG_s15",27.335,28.041,30.293,30.295,10,10,11,7,2.252,"Left",11,7,4,0,4,-4,0,-4,0,0,4,0,"10-10",-1,3,10,11,10,7
"215",8,"LHH6-LHH7",0.2057934729,0.1270494829,0.1779037079,0.1622760729,0.1448196243,0.1226289613,-0.0837338887,-0.2036932887,-0.2322233732,-0.1204030102,-0.0449185497,-0.0250829012,0.1401604098,0.0244989528,0.0242198698,3088,"DG_s15",27.335,28.041,30.293,30.295,10,10,11,7,2.252,"Left",11,7,4,0,4,-4,0,-4,0,0,4,0,"10-10",-1,3,10,11,10,7
"216",8,"LHH5-LHH6",0.0268407255,-0.072161473,0.0592390925,0.18381557,0.0478822473,0.0144071575,-0.089916063,-0.2117360635,-0.1633772293,-0.1730884945,-0.0716677445,-0.085426876,-0.048997991,0.103257384,-0.000353368999999992,3088,"DG_s15",27.335,28.041,30.293,30.295,10,10,11,7,2.252,"Left",11,7,4,0,4,-4,0,-4,0,0,4,0,"10-10",-1,3,10,11,10,7
"217",8,"LIP8-LIP9",-0.02192933135,-0.0101380148,-0.0954969988,-0.095828638,-0.094986027,-0.11778389555,-0.15823031255,-0.18092901,-0.1407091235,-0.1502178285,-0.1058258705,-0.139468031,-0.127977052,-0.0947452165,-0.03449765425,3088,"DG_s15",27.335,28.041,30.293,30.295,10,10,11,7,2.252,"Left",11,7,4,0,4,-4,0,-4,0,0,4,0,"10-10",-1,3,10,11,10,7
"218",8,"LTT9-LTT10",-0.124525719045,-0.09519698666,-0.00241212916,0.21149013084,0.14490497969,0.075004487305,-0.066516410445,-0.207826270445,-0.104555423445,0.054095846055,0.152219252305,0.233258122305,0.267931565305,0.225940546305,0.327542800305,3088,"DG_s15",27.335,28.041,30.293,30.295,10,10,11,7,2.252,"Left",11,7,4,0,4,-4,0,-4,0,0,4,0,"10-10",-1,3,10,11,10,7
"219",8,"LIP6-LIP7",-0.021197028,-0.0600583185,-0.18672958045,-0.2428608533,-0.2635808128,-0.1046526073,-0.02901850785,-0.039560723,-0.0413926805,-0.1651446055,-0.2120759625,-0.2165715,-0.1457930825,-0.123024167,-0.1283375415,3088,"DG_s15",27.335,28.041,30.293,30.295,10,10,11,7,2.252,"Left",11,7,4,0,4,-4,0,-4,0,0,4,0,"10-10",-1,3,10,11,10,7
"220",8,"LIP3-LIP4",-0.0410788668,-0.0411057378,-0.00693359330000001,-0.1004442638,-0.0248657188,0.0063941647,-0.1419922065,-0.1090624274,-0.1557952129,-0.2369163184,-0.0377636034,0.0123110395,-0.058230948,-0.06074445,-0.021519205,3088,"DG_s15",27.335,28.041,30.293,30.295,10,10,11,7,2.252,"Left",11,7,4,0,4,-4,0,-4,0,0,4,0,"10-10",-1,3,10,11,10,7
"221",8,"LHB7-LHB8",-0.3472207285,-0.3582004746,-0.40803087555,-0.42303113155,-0.48434645255,-0.42186523795,-0.386457049,-0.4422637965,-0.332987631,-0.330097906,-0.3667927295,-0.202956319,-0.1872086135,-0.162751282,-0.0727684065,3088,"DG_s15",27.335,28.041,30.293,30.295,10,10,11,7,2.252,"Left",11,7,4,0,4,-4,0,-4,0,0,4,0,"10-10",-1,3,10,11,10,7
"222",8,"LAM6-LAM7",0.2249835435,0.26625877,0.248637903,0.2506373354,0.1087522949,0.0295034919,0.0929288089,-0.011352926,0.037168325,0.03311634,-0.031727417,0.098799258,0.123864277,0.245446927,0.1816538935,3088,"DG_s15",27.335,28.041,30.293,30.295,10,10,11,7,2.252,"Left",11,7,4,0,4,-4,0,-4,0,0,4,0,"10-10",-1,3,10,11,10,7
"223",8,"LIP2-LIP3",0.0596208485,-0.004117314,0.032086198,0.04496568775,0.10687309125,0.08347546425,0.01576551925,0.06599301595,0.10429374745,0.02382181195,0.07951574695,0.1123676255,0.2139128155,0.2461089255,0.2137861195,3088,"DG_s15",27.335,28.041,30.293,30.295,10,10,11,7,2.252,"Left",11,7,4,0,4,-4,0,-4,0,0,4,0,"10-10",-1,3,10,11,10,7
"224",8,"LHB6-LHB7",-0.0629812725,-0.10848770275,-0.10163736875,-0.08673516575,-0.08858335775,-0.1642861165,-0.1963265365,-0.1479836345,-0.0441921945,0.0903798835,0.124139927,0.042918032,-0.095649478,-0.160056561,-0.1453704995,3088,"DG_s15",27.335,28.041,30.293,30.295,10,10,11,7,2.252,"Left",11,7,4,0,4,-4,0,-4,0,0,4,0,"10-10",-1,3,10,11,10,7
"225",8,"LAM1-LAM2",0.0556081485,-0.033080337,0.0126055615,-0.03602072,0.0229633935,0.081469136,0.086241522,0.159249561,0.20574573495,0.17618790895,0.20381377945,0.25791472695,0.2216387395,0.1268502615,0.1377537415,3088,"DG_s15",27.335,28.041,30.293,30.295,10,10,11,7,2.252,"Left",11,7,4,0,4,-4,0,-4,0,0,4,0,"10-10",-1,3,10,11,10,7
"226",8,"LHB5-LHB6",0.2043692945,0.2839766685,0.2966426045,0.4306561595,0.2344535635,0.1682438065,0.1669293365,0.054322095,0.1590063675,0.175605692,0.302480822,0.4310883135,0.442760025,0.499061014,0.388082969,3088,"DG_s15",27.335,28.041,30.293,30.295,10,10,11,7,2.252,"Left",11,7,4,0,4,-4,0,-4,0,0,4,0,"10-10",-1,3,10,11,10,7
"227",8,"LHB9-LHB10",0.2513887215,0.2344147687,0.3537647687,0.4582521037,0.2951476122,0.242300932,0.2209655959,0.1287129149,0.2433661864,0.2636491994,0.2428146005,0.2987939665,0.34558989,0.300878984,0.371307239,3088,"DG_s15",27.335,28.041,30.293,30.295,10,10,11,7,2.252,"Left",11,7,4,0,4,-4,0,-4,0,0,4,0,"10-10",-1,3,10,11,10,7
"228",8,"LAM4-LAM5",0.2091449161,0.1206955551,-0.0358119394,-0.2356846235,-0.0999026165,-0.109003293,-0.0365528085,-0.0660390035,-0.2899509955,-0.273201712,-0.351499942,-0.27578281,-0.142177125,-0.10509218,-0.00987288,3088,"DG_s15",27.335,28.041,30.293,30.295,10,10,11,7,2.252,"Left",11,7,4,0,4,-4,0,-4,0,0,4,0,"10-10",-1,3,10,11,10,7
"229",8,"LAM5-LAM6",0.029118026,0.0558664625,0.000891207500000019,-0.224993628,-0.2317413335,-0.2139456695,-0.1942686095,-0.2302028355,-0.28291528,-0.3426845355,-0.370546149439,-0.222155549439,-0.160886950439,-0.095657335939,-0.06508513,3088,"DG_s15",27.335,28.041,30.293,30.295,10,10,11,7,2.252,"Left",11,7,4,0,4,-4,0,-4,0,0,4,0,"10-10",-1,3,10,11,10,7
"230",8,"LHB4-LHB5",-0.0462020555,-0.2367143205,-0.2662759155,-0.2274356162,-0.3017579997,-0.1745387072,-0.1943727922,-0.1802883385,-0.1515071135,-0.048332566,0.025543360175,-0.048266019825,-0.204739930825,-0.288095580825,-0.3508800197,3088,"DG_s15",27.335,28.041,30.293,30.295,10,10,11,7,2.252,"Left",11,7,4,0,4,-4,0,-4,0,0,4,0,"10-10",-1,3,10,11,10,7
"231",8,"LAM7-LAM8",-0.2531156991,-0.244334599,-0.122869434,-0.0819898495,-0.14616256205,-0.22052595705,-0.30828688105,-0.2814684242,-0.24290400165,-0.23205222675,-0.19310982645,-0.3094568788,-0.4627024343,-0.5157147642,-0.5888234355,3088,"DG_s15",27.335,28.041,30.293,30.295,10,10,11,7,2.252,"Left",11,7,4,0,4,-4,0,-4,0,0,4,0,"10-10",-1,3,10,11,10,7
"232",8,"LIP4-LIP5",-0.300372624,-0.253002316,-0.208637304,-0.2608998835,-0.185168814,-0.26036727695,-0.31355610145,-0.27315526545,-0.35914622495,-0.287164688,-0.3412307,-0.420444831,-0.3711029055,-0.4398584865,-0.3065691815,3088,"DG_s15",27.335,28.041,30.293,30.295,10,10,11,7,2.252,"Left",11,7,4,0,4,-4,0,-4,0,0,4,0,"10-10",-1,3,10,11,10,7
"233",9,"LIP6-LIP7",-0.0890961033,-0.1485286653,-0.0950390373,-0.0410345123,-0.00261373749999999,0.07604348265,-0.01940650735,-0.01530226535,-0.05148089985,-0.0954476735,0.0635509515,0.118039171,0.144640432,0.273696117,0.127317772,3089,"DG_s15",31.296,32.001,34.315,34.318,6,22,10,10,2.314,"Left",6,22,16,16,0,0,16,0,16,0,-16,-16,"Disadvent",-4,12,6,10,22,10
"234",9,"LHH6-LHH7",-0.17889682895,-0.05593512995,0.00631980455,-0.00127821845000001,-0.00409552995000001,-0.12836800395,-0.13070726845,-0.04654889095,-0.09495140555,0.01109669195,0.15780889395,0.01178168795,0.01455335155,-0.12527738295,-0.3171079284,3089,"DG_s15",31.296,32.001,34.315,34.318,6,22,10,10,2.314,"Left",6,22,16,16,0,0,16,0,16,0,-16,-16,"Disadvent",-4,12,6,10,22,10
"235",9,"LIP2-LIP3",-0.046074140065,-0.087609732465,-0.116352729965,-0.146989832965,-0.19878075255,-0.20334503755,-0.22643060005,-0.18894574405,-0.1701195605,-0.1663406505,-0.0679915705,-0.0297447125,0.02105398845,-0.00241327655000001,-0.05014806605,3089,"DG_s15",31.296,32.001,34.315,34.318,6,22,10,10,2.314,"Left",6,22,16,16,0,0,16,0,16,0,-16,-16,"Disadvent",-4,12,6,10,22,10
"236",9,"LAM8-LAM9",0.0731309335,0.184106291,0.241304913,0.233163163,0.1881419515,0.15596821395,0.03416294995,-0.10665619005,-0.14163915855,-0.1827879105,-0.184473317,-0.165592030585,-0.119488591485,-0.127744875485,-0.015693128485,3089,"DG_s15",31.296,32.001,34.315,34.318,6,22,10,10,2.314,"Left",6,22,16,16,0,0,16,0,16,0,-16,-16,"Disadvent",-4,12,6,10,22,10
"237",9,"LHH7-LHH8",-0.19944255,-0.230084295,-0.2932781535,-0.4058438965,-0.528884802,-0.5293660925,-0.47649769455,-0.37345191855,-0.19038510755,-0.26864479455,0.0266599325,-0.0161239485,-0.050237619,0.0274279205,-0.2045146215,3089,"DG_s15",31.296,32.001,34.315,34.318,6,22,10,10,2.314,"Left",6,22,16,16,0,0,16,0,16,0,-16,-16,"Disadvent",-4,12,6,10,22,10
"238",9,"LHB4-LHB5",-0.3093430434,-0.2410038884,-0.0473778715,0.011263905,0.041293258,-0.0366451065,-0.1139387095,-0.1265258545,-0.129308846,-0.154087898,-0.23706642,-0.203563467,-0.234448121,-0.2647542245,-0.216385768,3089,"DG_s15",31.296,32.001,34.315,34.318,6,22,10,10,2.314,"Left",6,22,16,16,0,0,16,0,16,0,-16,-16,"Disadvent",-4,12,6,10,22,10
"239",9,"LIP4-LIP5",-0.08879905595,-0.17181516145,-0.187331312,-0.2629183705,-0.1948275645,-0.1382325985,-0.0937563255,-0.0275062455,-0.1605676755,-0.2594623355,-0.2460464021,-0.1648381571,-0.1633977521,-0.1637209031,-0.1745196985,3089,"DG_s15",31.296,32.001,34.315,34.318,6,22,10,10,2.314,"Left",6,22,16,16,0,0,16,0,16,0,-16,-16,"Disadvent",-4,12,6,10,22,10
"240",9,"LAM6-LAM7",0.29753809075,0.28812126475,0.3357941652,0.3783622302,0.4326246392,0.3486934942,0.3059125792,0.3126147992,0.1950034842,0.1221897242,0.0601157527,-0.0593155773,0.1178081032,0.20997181675,0.23574269565,3089,"DG_s15",31.296,32.001,34.315,34.318,6,22,10,10,2.314,"Left",6,22,16,16,0,0,16,0,16,0,-16,-16,"Disadvent",-4,12,6,10,22,10
"241",9,"LHB9-LHB10",0.3214406395,0.283841043,0.099540174,0.033052087,0.094904962,0.175535768,0.250431284,0.193724891,0.167990461,0.2229095,0.3029865615,0.3107597153,0.3036112758,0.2809755308,0.1481504223,3089,"DG_s15",31.296,32.001,34.315,34.318,6,22,10,10,2.314,"Left",6,22,16,16,0,0,16,0,16,0,-16,-16,"Disadvent",-4,12,6,10,22,10
"242",9,"LAM7-LAM8",-0.36189506615,-0.30302528365,-0.11532506415,-0.00682104665,0.0710825374,0.0924411794,-0.0580443896,-0.1635777221,-0.1645291771,-0.1591079866,-0.1220634576,-0.0442124926,-0.0855745151,-0.2034834961,-0.2282974521,3089,"DG_s15",31.296,32.001,34.315,34.318,6,22,10,10,2.314,"Left",6,22,16,16,0,0,16,0,16,0,-16,-16,"Disadvent",-4,12,6,10,22,10
"243",9,"LHB5-LHB6",0.247751001,0.182330127,0.1817445535,0.2026016885,0.077586141,0.0694517715,0.102140936,0.1581428125,0.2197098025,0.158556742,0.13356770405,0.08463787755,0.10277477255,0.26806451155,0.458776662,3089,"DG_s15",31.296,32.001,34.315,34.318,6,22,10,10,2.314,"Left",6,22,16,16,0,0,16,0,16,0,-16,-16,"Disadvent",-4,12,6,10,22,10
"244",9,"LIP3-LIP4",-0.057718998,-0.0405857645,-0.0384399215,0.131616855,0.0689304945,0.00110006949999999,0.077970434,-0.03732074,-0.015935647,0.070712183,0.070719873,0.055553573,-0.0775403195,-0.13142282005,-0.17060706105,3089,"DG_s15",31.296,32.001,34.315,34.318,6,22,10,10,2.314,"Left",6,22,16,16,0,0,16,0,16,0,-16,-16,"Disadvent",-4,12,6,10,22,10
"245",9,"LHB8-LHB9",0.02821469686,-0.01642522314,-0.06922815779,0.0123743065,-0.0324058795,-0.0955782595,-0.0954824165,-0.1214195115,0.0526483425,0.3214530925,0.40391333035,0.45528695535,0.35526225535,0.23053086035,0.1540994975,3089,"DG_s15",31.296,32.001,34.315,34.318,6,22,10,10,2.314,"Left",6,22,16,16,0,0,16,0,16,0,-16,-16,"Disadvent",-4,12,6,10,22,10
"246",9,"LIP5-LIP6",-0.105857951,-0.04906609,-0.14125718515,-0.25363358515,-0.35559272115,-0.51491322965,-0.4795223145,-0.287700025,-0.22399027935,-0.22889473585,-0.28851857735,-0.26678431685,-0.2767977445,-0.1113497795,0.0477610095,3089,"DG_s15",31.296,32.001,34.315,34.318,6,22,10,10,2.314,"Left",6,22,16,16,0,0,16,0,16,0,-16,-16,"Disadvent",-4,12,6,10,22,10
"247",9,"LTT8-LTT9",0.16362596206,0.06881999956,0.05768833456,0.03079987406,0.16010237285,0.20183641835,0.19733884285,0.18460750835,0.09814389185,0.05165437385,0.07881786935,0.09494724435,0.16817379735,0.24118315085,0.21165105635,3089,"DG_s15",31.296,32.001,34.315,34.318,6,22,10,10,2.314,"Left",6,22,16,16,0,0,16,0,16,0,-16,-16,"Disadvent",-4,12,6,10,22,10
"248",9,"LAM2-LAM3",-0.338902034,-0.454584586,-0.5222676795,-0.4347584745,-0.6453199935,-0.6549845905,-0.6050432955,-0.7113432355,-0.635600247,-0.5206872595,-0.45045421525,-0.29226472215,-0.37160606165,-0.38513487115,-0.4310950099,3089,"DG_s15",31.296,32.001,34.315,34.318,6,22,10,10,2.314,"Left",6,22,16,16,0,0,16,0,16,0,-16,-16,"Disadvent",-4,12,6,10,22,10
"249",9,"LAM1-LAM2",0.21129350255,0.21696100855,0.16257623655,0.23046935705,0.06197647555,0.02519997355,0.02855677805,-0.06602758895,0.02849429255,0.16887803705,0.25865469505,0.41056856955,0.2879847837,0.2393349762,0.2026722787,3089,"DG_s15",31.296,32.001,34.315,34.318,6,22,10,10,2.314,"Left",6,22,16,16,0,0,16,0,16,0,-16,-16,"Disadvent",-4,12,6,10,22,10
"250",9,"LIP1-LIP2",-0.2365141984,-0.2069083174,-0.1078130119,-0.0118562419,-0.011535353,0.211669107,0.169695557,0.132034062,0.1843258585,0.1003486535,0.2220270285,0.2338225285,0.128400504,-0.094724286,-0.214675616,3089,"DG_s15",31.296,32.001,34.315,34.318,6,22,10,10,2.314,"Left",6,22,16,16,0,0,16,0,16,0,-16,-16,"Disadvent",-4,12,6,10,22,10
"251",9,"LAM4-LAM5",0.0299522965,0.0991643455,0.14874496785,0.06220535185,0.0673409763,0.0213413413,0.01012062595,0.11953507845,0.1375648505,0.0397879595,-0.0088739035,0.0450718655,0.125299734,0.187637252,0.19791882945,3089,"DG_s15",31.296,32.001,34.315,34.318,6,22,10,10,2.314,"Left",6,22,16,16,0,0,16,0,16,0,-16,-16,"Disadvent",-4,12,6,10,22,10
"252",9,"LHH4-LHH5",-0.122890930035,-0.143678547535,-0.015364551,0.036689311,0.0731236635,0.050404286,-0.093393704,-0.11750632955,-0.21445249455,-0.24872124055,-0.12950123585,-0.1753649558,-0.22540335965,-0.29746694365,-0.36437253135,3089,"DG_s15",31.296,32.001,34.315,34.318,6,22,10,10,2.314,"Left",6,22,16,16,0,0,16,0,16,0,-16,-16,"Disadvent",-4,12,6,10,22,10
"253",9,"LAM3-LAM4",-0.107652603,-0.13330543805,-0.17568645805,-0.19337462905,-0.25953307155,-0.2206797655,-0.3145840505,-0.2470334795,-0.2466847475,-0.1841842105,-0.0131486955,0.2443758445,0.24754990515,0.16350369615,0.15166081115,3089,"DG_s15",31.296,32.001,34.315,34.318,6,22,10,10,2.314,"Left",6,22,16,16,0,0,16,0,16,0,-16,-16,"Disadvent",-4,12,6,10,22,10
"254",9,"LIP7-LIP8",0.2608559896,0.2251872596,0.1511157596,0.1527307641,0.14512455565,0.0670537879,0.0867900929,0.1445541779,0.03362783535,0.0398618096,-0.1012138204,-0.1111860794,-0.0621126664,-0.0072975289,0.0861340656,3089,"DG_s15",31.296,32.001,34.315,34.318,6,22,10,10,2.314,"Left",6,22,16,16,0,0,16,0,16,0,-16,-16,"Disadvent",-4,12,6,10,22,10
"255",9,"LTT9-LTT10",-0.172483607705,-0.155052667705,-0.247516220705,-0.218480814705,-0.088179539705,0.00562058029500001,0.090477345295,0.099439589295,0.088176899295,0.001596667745,-0.025299426255,0.001210014245,-0.072412648755,-0.078942382205,-0.121960583205,3089,"DG_s15",31.296,32.001,34.315,34.318,6,22,10,10,2.314,"Left",6,22,16,16,0,0,16,0,16,0,-16,-16,"Disadvent",-4,12,6,10,22,10
"256",9,"LIP8-LIP9",-0.0354897445,-0.0408419995,0.105729683,0.101358593,0.138909818,0.184721838,0.13942910184,0.08121615184,0.18220601584,0.31053123584,0.168701552165,0.000558352164999998,-0.101132226835,-0.174880291835,0.0104934095,3089,"DG_s15",31.296,32.001,34.315,34.318,6,22,10,10,2.314,"Left",6,22,16,16,0,0,16,0,16,0,-16,-16,"Disadvent",-4,12,6,10,22,10
"257",9,"LAM9-LAM10",0.24536699655,0.164365407,0.267490442,0.2870999375,0.295731284,0.353046748,0.2655347785,0.1750355375,0.182441395,0.1419213985,0.212817163,0.325279104,0.3962946875,0.295511141,0.182041389,3089,"DG_s15",31.296,32.001,34.315,34.318,6,22,10,10,2.314,"Left",6,22,16,16,0,0,16,0,16,0,-16,-16,"Disadvent",-4,12,6,10,22,10
"258",9,"LAM5-LAM6",-0.0358262012,-0.1212149072,-0.1356128177,-0.0756441622,-0.0746475137,0.098743124815,0.187803947315,0.150515193315,0.111560399815,0.0358676813,0.0177009188,-0.0550339062,-0.0603573362,-0.1384634047,-0.1102812947,3089,"DG_s15",31.296,32.001,34.315,34.318,6,22,10,10,2.314,"Left",6,22,16,16,0,0,16,0,16,0,-16,-16,"Disadvent",-4,12,6,10,22,10
"259",9,"LHB6-LHB7",-0.3508838936,-0.3192171856,-0.2504583506,-0.0300593756,0.0174461394,0.0466836254,0.1974089754,0.0001097454,-0.0224574731,-0.0305296416,-0.0103831766,0.1055518139,0.1736015745,0.106415203,-0.046008892,3089,"DG_s15",31.296,32.001,34.315,34.318,6,22,10,10,2.314,"Left",6,22,16,16,0,0,16,0,16,0,-16,-16,"Disadvent",-4,12,6,10,22,10
"260",9,"LHH5-LHH6",0.39718776,0.2982798534,0.2524118084,0.2807802284,0.2871405343,0.4807320809,0.5038478859,0.5101510859,0.414000332,0.3057955965,0.24194638,0.162266155,0.165386745,0.212634368,0.1274247495,3089,"DG_s15",31.296,32.001,34.315,34.318,6,22,10,10,2.314,"Left",6,22,16,16,0,0,16,0,16,0,-16,-16,"Disadvent",-4,12,6,10,22,10
"261",9,"LHB7-LHB8",0.08323499805,0.0942418685,0.0389329045,0.0613219885,-0.0173795665,-0.0551168775,-0.0123256595,-0.0353065995,0.0952450795,0.0678142825,0.1242139865,0.184527639,0.123621457,0.1385909475,0.1479017075,3089,"DG_s15",31.296,32.001,34.315,34.318,6,22,10,10,2.314,"Left",6,22,16,16,0,0,16,0,16,0,-16,-16,"Disadvent",-4,12,6,10,22,10
"262",10,"LTT8-LTT9",0.390699628,0.2628427445,0.14418078015,0.08129903765,0.16147862165,0.16662829865,0.154210218,0.1132298315,0.0564072265,-0.0050736175,0.0667866535,-0.0061050725,-0.0620485545,0.0432210145,0.0266526635,3090,"DG_s15",35.319,36.024,38.569,38.572,3,31,10,10,2.545,"Left",3,31,28,28,0,0,28,0,28,0,-28,-28,"Disadvent",-7,21,3,10,31,10
"263",10,"LIP7-LIP8",-0.220439639,-0.142911639,-0.021564794,-0.0994459525,-0.1002922205,-0.0833505735,-0.13770533575,-0.14514783435,-0.08743160485,-0.13995741685,-0.1939397311,-0.1220848063,-0.1354042688,-0.0391859343,0.0592691847,3090,"DG_s15",35.319,36.024,38.569,38.572,3,31,10,10,2.545,"Left",3,31,28,28,0,0,28,0,28,0,-28,-28,"Disadvent",-7,21,3,10,31,10
"264",10,"LIP5-LIP6",-0.12301351705,0.05458260345,0.02527822845,0.14326514445,0.136748925,0.0142561145,0.1859772845,0.2187277045,0.279389039,0.3165964885,0.0829307275,-0.052705588,-0.1442685215,-0.08420043,-0.151922613,3090,"DG_s15",35.319,36.024,38.569,38.572,3,31,10,10,2.545,"Left",3,31,28,28,0,0,28,0,28,0,-28,-28,"Disadvent",-7,21,3,10,31,10
"265",10,"LIP8-LIP9",-0.0607345122,0.0835379453,0.0859267403,0.1623876273,0.1847727245,0.078163127,0.045816677,-0.103024076,-0.1782570075,-0.29932841,-0.382147682,-0.3554952405,-0.1484239695,0.1110826805,0.0883542475,3090,"DG_s15",35.319,36.024,38.569,38.572,3,31,10,10,2.545,"Left",3,31,28,28,0,0,28,0,28,0,-28,-28,"Disadvent",-7,21,3,10,31,10
"266",10,"LIP4-LIP5",-0.08008980935,0.18439750165,0.19023958415,0.09744551865,-0.03643118335,-0.19632919035,-0.23322297785,-0.12444354685,-0.0391909998,0.00560480269999999,-0.1363999923,-0.0942743183,-0.06306670235,-0.06914712385,0.03823852115,3090,"DG_s15",35.319,36.024,38.569,38.572,3,31,10,10,2.545,"Left",3,31,28,28,0,0,28,0,28,0,-28,-28,"Disadvent",-7,21,3,10,31,10
"267",10,"LHB9-LHB10",0.1175404945,0.091437345,0.07712927,0.169846502,0.1468637645,0.22751612,0.448418655,0.452512089035,0.364694394035,0.286031177035,0.036302551535,-0.043874401155,0.075902167345,0.089961749345,0.137709809345,3090,"DG_s15",35.319,36.024,38.569,38.572,3,31,10,10,2.545,"Left",3,31,28,28,0,0,28,0,28,0,-28,-28,"Disadvent",-7,21,3,10,31,10
"268",10,"LAM5-LAM6",-0.0338029515,-0.00988706,-0.0272291755,-0.0201101795,-0.1673683595,-0.19611788,-0.12223823,-0.1425276105,0.062679062,0.035124738,-0.056444457,-0.0147223345,-0.068463642,-0.095451131,-0.062283222,3090,"DG_s15",35.319,36.024,38.569,38.572,3,31,10,10,2.545,"Left",3,31,28,28,0,0,28,0,28,0,-28,-28,"Disadvent",-7,21,3,10,31,10
"269",10,"LAM3-LAM4",-0.04338950755,-0.04590589205,-0.1778393396,-0.23480915455,-0.24522374,-0.2411747455,0.028158304,0.120197412,0.2116716478,0.3139911103,0.2778694558,0.2446980539,0.2699649531,0.1930490226,0.0390703196,3090,"DG_s15",35.319,36.024,38.569,38.572,3,31,10,10,2.545,"Left",3,31,28,28,0,0,28,0,28,0,-28,-28,"Disadvent",-7,21,3,10,31,10
"270",10,"LIP3-LIP4",0.206634589,0.0809287095,0.1171245815,0.1104640655,0.074601311,0.1823712105,0.1221962285,0.138873398,0.0988830725,0.0502211935,0.00316747100000001,-0.051876760765,0.023894214235,0.074371928735,0.138554467735,3090,"DG_s15",35.319,36.024,38.569,38.572,3,31,10,10,2.545,"Left",3,31,28,28,0,0,28,0,28,0,-28,-28,"Disadvent",-7,21,3,10,31,10
"271",10,"LTT9-LTT10",-0.04397525395,-0.11614298495,-0.13036703195,-0.05972160995,0.00191976855,0.15745083855,0.03018035355,0.07784989155,0.05290223205,-0.03398594595,0.12530782005,-0.00564780095,-0.04440733295,0.03407747505,-0.08664399845,3090,"DG_s15",35.319,36.024,38.569,38.572,3,31,10,10,2.545,"Left",3,31,28,28,0,0,28,0,28,0,-28,-28,"Disadvent",-7,21,3,10,31,10
"272",10,"LIP2-LIP3",0.1754956146,0.2083871261,0.1918547761,0.3355093216,0.3487089166,0.3814009271,0.4532961901,0.43125588775,0.29477927275,0.12946119675,0.11590941325,0.1156124101,0.2949203651,0.3680576141,0.2617892646,3090,"DG_s15",35.319,36.024,38.569,38.572,3,31,10,10,2.545,"Left",3,31,28,28,0,0,28,0,28,0,-28,-28,"Disadvent",-7,21,3,10,31,10
"273",10,"LAM6-LAM7",0.09997495915,0.01080379915,-0.00793170385,0.07325249915,-0.14016632805,0.03758954195,0.08943265995,0.12151097995,0.26479029965,0.12697724715,-0.01657955035,-0.0762281338,-0.12986610125,-0.18830809375,-0.21442168125,3090,"DG_s15",35.319,36.024,38.569,38.572,3,31,10,10,2.545,"Left",3,31,28,28,0,0,28,0,28,0,-28,-28,"Disadvent",-7,21,3,10,31,10
"274",10,"LIP6-LIP7",0.1961715934,0.2007603744,0.1174440459,0.0397487959,0.0388013059,0.1019447434,0.1342061534,0.1368869729,0.0784952534,0.0300368454,0.0430599304,0.1202756959,0.0875408059,-0.0150471586,-0.0717491986,3090,"DG_s15",35.319,36.024,38.569,38.572,3,31,10,10,2.545,"Left",3,31,28,28,0,0,28,0,28,0,-28,-28,"Disadvent",-7,21,3,10,31,10
"275",10,"LAM1-LAM2",-0.068563004,0.030817922,0.254472087,0.4111237295,0.279044234,0.180084356,0.20612223916,0.27621499916,0.41300468466,0.59869854666,0.46229574,0.32828825,0.32002688,0.167952885,0.13162308845,3090,"DG_s15",35.319,36.024,38.569,38.572,3,31,10,10,2.545,"Left",3,31,28,28,0,0,28,0,28,0,-28,-28,"Disadvent",-7,21,3,10,31,10
"276",10,"LAM4-LAM5",0.0343017069,-0.0552171591,-0.1245504191,-0.174020595,-0.21075966,-0.044860285,-0.00410597499999998,0.046376512,0.00117019200000001,-0.00106510899999998,-0.109520829,-0.1225180515,-0.058917751,-0.1438180108,-0.00531334829999999,3090,"DG_s15",35.319,36.024,38.569,38.572,3,31,10,10,2.545,"Left",3,31,28,28,0,0,28,0,28,0,-28,-28,"Disadvent",-7,21,3,10,31,10
"277",10,"LHB8-LHB9",0.14113019289,0.05617569789,0.20703304039,0.2456664741,0.2752264401,0.2584898351,0.2653351976,0.27572918335,0.25207932585,0.1161725584,0.00604128245,-0.01818864155,0.09075619445,0.2032710809,0.22092415685,3090,"DG_s15",35.319,36.024,38.569,38.572,3,31,10,10,2.545,"Left",3,31,28,28,0,0,28,0,28,0,-28,-28,"Disadvent",-7,21,3,10,31,10
"278",10,"LAM9-LAM10",-0.146015134,-0.091970236,-0.0779063825,-0.1076442225,-0.1344187375,-0.2116052595,-0.1353125015,-0.0907106065,-0.0132418385,0.03587373,0.045750166,-0.03811063735,-0.08810423935,-0.11967153735,-0.06480144685,3090,"DG_s15",35.319,36.024,38.569,38.572,3,31,10,10,2.545,"Left",3,31,28,28,0,0,28,0,28,0,-28,-28,"Disadvent",-7,21,3,10,31,10
"279",10,"LAM8-LAM9",0.0812684404705,0.2722679194705,0.2143659994705,0.1939367029705,0.1437043336705,0.0704270731705,0.2480377181705,0.2595017341705,0.2595765884705,0.1862290689705,0.0313397591205,-0.0173678128795,-0.0525406159295,-0.0159713109295,0.1037084644205,3090,"DG_s15",35.319,36.024,38.569,38.572,3,31,10,10,2.545,"Left",3,31,28,28,0,0,28,0,28,0,-28,-28,"Disadvent",-7,21,3,10,31,10
"280",10,"LAM2-LAM3",0.125751099,0.232580087,0.202677957,0.1365130295,0.0601338315,-0.009323447,0.118514836,0.2095301615,0.240003665,0.2026691965,0.1018659335,0.077521603,0.1098272465,0.232957169,0.205373188,3090,"DG_s15",35.319,36.024,38.569,38.572,3,31,10,10,2.545,"Left",3,31,28,28,0,0,28,0,28,0,-28,-28,"Disadvent",-7,21,3,10,31,10
"281",10,"LHB4-LHB5",-0.06148837605,-0.02439381745,-0.092948306,-0.1073345725,-0.0859460925,-0.030317869,0.052718209,0.034812749,0.036526134,-0.050387478,-0.134074526,-0.0864469495,-0.108979266,-0.036189047,0.0216169265,3090,"DG_s15",35.319,36.024,38.569,38.572,3,31,10,10,2.545,"Left",3,31,28,28,0,0,28,0,28,0,-28,-28,"Disadvent",-7,21,3,10,31,10
"282",10,"LHH7-LHH8",-0.42188737135,-0.39541307035,-0.32069998685,-0.23865098435,-0.1135097635,-0.0470889995,-0.0194494495,-0.0601098295,-0.1015348895,-0.1927070595,-0.2563060978,-0.2801435388,-0.4124231138,-0.4117360238,-0.420013952,3090,"DG_s15",35.319,36.024,38.569,38.572,3,31,10,10,2.545,"Left",3,31,28,28,0,0,28,0,28,0,-28,-28,"Disadvent",-7,21,3,10,31,10
"283",10,"LAM7-LAM8",0.016846814,0.030622082,0.002562935,-0.08776242,-0.092237212,-0.123425873,-0.098170313,0.0194979,-0.034871745,-0.116149839,-0.138555729,-0.221429807,-0.083605907,-0.0206660775,-0.067407213,3090,"DG_s15",35.319,36.024,38.569,38.572,3,31,10,10,2.545,"Left",3,31,28,28,0,0,28,0,28,0,-28,-28,"Disadvent",-7,21,3,10,31,10
"284",10,"LIP1-LIP2",-0.23937052655,-0.07045414955,-0.03521505905,-0.06187469105,0.00739212594999999,-0.06583862105,-0.03869128305,0.01380270045,-0.02283845555,-0.04450410555,0.01347825945,-0.06319811705,0.11986200045,0.18897069545,0.10708076695,3090,"DG_s15",35.319,36.024,38.569,38.572,3,31,10,10,2.545,"Left",3,31,28,28,0,0,28,0,28,0,-28,-28,"Disadvent",-7,21,3,10,31,10
"285",10,"LHH5-LHH6",0.08312100345,0.08134157895,0.05837329745,-0.0049671627,-0.0696824944,-0.0506621104,-0.0425408989,0.01975595165,0.11701963665,0.16181181515,0.19095930465,0.24351751925,0.17610503425,0.08907206675,0.10162350525,3090,"DG_s15",35.319,36.024,38.569,38.572,3,31,10,10,2.545,"Left",3,31,28,28,0,0,28,0,28,0,-28,-28,"Disadvent",-7,21,3,10,31,10
