"","trial","electrodes","pre_13","pre_12","pre_11","pre_10","pre_9","pre_8","pre_7","pre_6","pre_5","pre_4","pre_3","pre_2","pre_1","post_1","post_2","post_3","post_4","post_5","post_6","post_7","X","SID","newround_time","choice_time","buttonpress_time","reveal_time","self_payoff","other_payoff","self_foregone","other_foregone","RT","side_chosen","self_var_payoff","other_var_payoff","ineq_var_abs","ineq_choice_abs","ineq_foregone_abs","ineq_foregone","ineq_disadvent","ineq_advent","ineq_disadvent_choice","ineq_advent_choice","ineq_var","ineq_choice","chose_equality","self_diff","other_diff","L_self","R_self","L_other","R_other"
"1",1,"LAM1-LAM2",-0.373294134181818,-0.632501584181818,-0.655691968181818,-0.601657518181818,-0.601638368181818,-0.611885418181818,-0.552293786181818,-0.328934236181818,0.0868082138181818,0.557980813818182,0.959795481818182,1.20170743181818,1.19132018181818,0.844654114318182,0.225802664318182,-0.352444585681818,-0.811041235681818,-1.03352466818182,-1.02047036818182,-0.879082968181818,3081,"DG_s15",-0.702,0.00200000000007,2.082,2.084,10,10,6,6,2.08,"Left",6,6,0,0,0,0,0,0,0,0,0,0,"10-10",4,4,10,6,10,6
"2",1,"LHH5-LHH6",1.20264008232323,0.756705082323232,0.423888782323232,0.351823627323232,0.402624020623232,0.771210020623232,1.29255167062323,1.58295207562323,1.58337327082323,1.26972072082323,0.950791138823232,0.963951088823232,1.26187165032323,1.45275133082323,1.34672334282323,1.03322984782323,0.825566584823232,0.827603869323232,0.779038329323232,0.698562974323232,3081,"DG_s15",-0.702,0.00200000000007,2.082,2.084,10,10,6,6,2.08,"Left",6,6,0,0,0,0,0,0,0,0,0,0,"10-10",4,4,10,6,10,6
"3",1,"LAM6-LAM7",0.423644609459596,0.059541209459596,-0.197625490540404,-0.286718301540404,-0.364845405040404,-0.00747660504040404,0.649307294959596,1.1315081249596,1.4771476334596,1.4746962834596,1.2660992834596,0.996253133459596,0.837250633459596,0.628942983459596,0.294197613459596,0.117468870959596,-0.066742029040404,-0.185766084040404,-0.292273149040404,-0.367624065040404,3081,"DG_s15",-0.702,0.00200000000007,2.082,2.084,10,10,6,6,2.08,"Left",6,6,0,0,0,0,0,0,0,0,0,0,"10-10",4,4,10,6,10,6
"4",1,"LAM7-LAM8",0.397990037277778,0.388993700277778,0.193612570777778,-0.0430984942222222,-0.0755750442222222,-0.114840146772222,-0.0444606172722222,0.176328071227778,0.388693234227778,0.367031639727778,0.315596654727778,0.577402966227778,1.00916270322778,1.28008914777778,1.26025289927778,0.901387299277778,0.376922899277778,-0.0654511507222222,-0.287051667222222,-0.261144065222222,3081,"DG_s15",-0.702,0.00200000000007,2.082,2.084,10,10,6,6,2.08,"Left",6,6,0,0,0,0,0,0,0,0,0,0,"10-10",4,4,10,6,10,6
"5",1,"LAM2-LAM3",0.68223492989899,0.38096417989899,-0.0306145201010101,-0.35458402010101,-0.53824166010101,-0.54796726010101,-0.33038362810101,-0.0678968281010101,0.15090176089899,0.35579398339899,0.41899255139899,0.31028228389899,0.18416824489899,-0.0619884276010101,-0.37786637760101,-0.63301571010101,-0.67119716010101,-0.49487696010101,-0.38129216010101,-0.27821426010101,3081,"DG_s15",-0.702,0.00200000000007,2.082,2.084,10,10,6,6,2.08,"Left",6,6,0,0,0,0,0,0,0,0,0,0,"10-10",4,4,10,6,10,6
"6",1,"LHH6-LHH7",1.87500978360657,1.18250848360657,0.517908483606566,0.236465783606566,0.200042747156566,0.442982137156566,1.02325163715657,1.52211028715657,1.83898260565657,1.92698151565657,1.89851151565657,1.82875396565657,1.54927638065657,1.26340185265657,1.12392025265657,0.933194725656566,0.843994610656566,0.927146514656566,0.666362688656566,0.480509566156566,3081,"DG_s15",-0.702,0.00200000000007,2.082,2.084,10,10,6,6,2.08,"Left",6,6,0,0,0,0,0,0,0,0,0,0,"10-10",4,4,10,6,10,6
"7",1,"LAM3-LAM4",-0.525725603631313,-0.710291100531313,-0.809174671881313,-0.925335431381313,-0.973833131381313,-1.04381893493131,-0.701040663581313,-0.00183351358131312,0.682496686418687,1.05526688686869,0.721498699368687,-0.0614933506313131,-0.712303650631313,-0.861382708131313,-0.657416820631313,-0.405589257631313,-0.352095707631313,-0.553315770131313,-0.627903133131313,-0.382846646131313,3081,"DG_s15",-0.702,0.00200000000007,2.082,2.084,10,10,6,6,2.08,"Left",6,6,0,0,0,0,0,0,0,0,0,0,"10-10",4,4,10,6,10,6
"8",1,"LHH7-LHH8",-0.349381861515303,-0.669932161015303,-0.784651238815303,-1.0711689388153,-1.1619898380303,-0.851628867530303,-0.582308192530303,-0.479249152530303,-0.404448322530303,-0.479302798030303,-0.447726623030303,-0.108697013030303,0.104027791969697,0.186319896969697,0.095295653969697,-0.199272621030303,-0.426960971030303,-0.507144303530303,-0.408064460530303,-0.080395285530303,3081,"DG_s15",-0.702,0.00200000000007,2.082,2.084,10,10,6,6,2.08,"Left",6,6,0,0,0,0,0,0,0,0,0,0,"10-10",4,4,10,6,10,6
"9",1,"LIP5-LIP6",1.62601276984848,1.19988649134848,0.632690806348485,0.131826506348485,-0.159430974151515,-0.100575645651515,0.356962539348485,0.844089489348485,0.856324904848485,0.480643254848485,0.0741713712484848,-0.0465529787515152,0.199070836248485,0.442809116248485,0.412550699848485,0.246622420848485,0.102791570848485,0.0966800523484848,0.0884930523484848,-0.0617519686515152,3081,"DG_s15",-0.702,0.00200000000007,2.082,2.084,10,10,6,6,2.08,"Left",6,6,0,0,0,0,0,0,0,0,0,0,"10-10",4,4,10,6,10,6
"10",1,"LAM4-LAM5",0.390687114262626,-0.249689385737374,-0.732864485737374,-0.918497750737374,-1.03341457373737,-0.685967968737374,0.0503932812626263,0.738437531262626,1.22731338126263,1.19976122626263,0.975538026262626,0.776831526262626,0.667196626262626,0.514574246762626,0.153316066762626,-0.354841333237374,-0.596109553737374,-0.434626624237374,-0.338823244237374,0.0053503057626263,3081,"DG_s15",-0.702,0.00200000000007,2.082,2.084,10,10,6,6,2.08,"Left",6,6,0,0,0,0,0,0,0,0,0,0,"10-10",4,4,10,6,10,6
"11",1,"LIP1-LIP2",0.290545904232323,0.335893824732323,0.600699624732323,0.895054674732323,1.18444496473232,1.18086774323232,0.802633343232323,0.284016725732323,-0.168481764267677,-0.357272534267677,-0.519484609267677,-0.602802382417677,-0.441751007417677,-0.309664720117677,-0.462732645117677,-0.627126204467677,-0.700222889467677,-0.695720867267677,-0.491212977767677,-0.297281427767677,3081,"DG_s15",-0.702,0.00200000000007,2.082,2.084,10,10,6,6,2.08,"Left",6,6,0,0,0,0,0,0,0,0,0,0,"10-10",4,4,10,6,10,6
"12",1,"LHB4-LHB5",-0.17745778429798,-0.55172243429798,-0.88019863429798,-0.92602297979798,-0.75956352479798,-0.47501116879798,0.0334200312020202,0.46292073120202,0.48949616120202,0.19338175520202,-0.24910221979798,-0.35679281979798,-0.0687244047979798,0.20822295070202,0.31578173420202,0.23789243420202,0.13581028420202,0.18133890370202,0.10796122005202,-0.25527307994798,3081,"DG_s15",-0.702,0.00200000000007,2.082,2.084,10,10,6,6,2.08,"Left",6,6,0,0,0,0,0,0,0,0,0,0,"10-10",4,4,10,6,10,6
"13",1,"LAM5-LAM6",0.817196548363636,0.385864748363636,-0.0524506516363636,-0.276328666636364,-0.340484863636364,-0.317090013636364,-0.192271338636364,-0.140974638636364,-0.0986231386363636,0.00149536986363635,0.160710644863636,0.469893894863636,0.701368614863636,0.596320061863636,0.239708861863636,-0.203706238136364,-0.320388743636364,0.0695076508636364,0.690511850863636,1.25508870086364,3081,"DG_s15",-0.702,0.00200000000007,2.082,2.084,10,10,6,6,2.08,"Left",6,6,0,0,0,0,0,0,0,0,0,0,"10-10",4,4,10,6,10,6
"14",1,"LIP2-LIP3",2.49068275050505,2.18494405050505,1.77718170050505,1.41393728050505,1.28055354550505,1.08071514550505,0.86294234550505,0.77134857800505,0.62650791300505,0.579878609005051,0.606284469005051,0.54754821075505,0.53753027375505,0.69989107775505,0.98810336775505,1.36278471350505,1.55869445050505,1.43917722550505,1.29467097550505,1.30914357550505,3081,"DG_s15",-0.702,0.00200000000007,2.082,2.084,10,10,6,6,2.08,"Left",6,6,0,0,0,0,0,0,0,0,0,0,"10-10",4,4,10,6,10,6
"15",1,"LHH4-LHH5",0.925214047111111,0.468959767111111,0.323199867111111,0.517581101111111,0.888206201111111,1.30525208111111,1.43262278111111,1.12201067211111,0.795303622111111,0.360704972111111,-0.0343576778888889,-0.0150018688888889,0.0704276986111111,0.355132048611111,0.629031513611111,0.589482172611111,0.535941855111111,0.321951405111111,-0.0180136098888889,-0.102257518888889,3081,"DG_s15",-0.702,0.00200000000007,2.082,2.084,10,10,6,6,2.08,"Left",6,6,0,0,0,0,0,0,0,0,0,0,"10-10",4,4,10,6,10,6
"16",1,"LHB5-LHB6",0.289210127370707,0.0788283213707071,-0.135309763629293,-0.242203048929293,-0.439348698929293,-0.476644542929293,-0.375850144429293,-0.132983794429293,0.140392355570707,0.267757567620707,0.202527474120707,0.0665285046657071,-0.156202209334293,-0.397336021384293,-0.343530783384293,-0.262629863929293,-0.205481034429293,-0.0696311294292929,-0.0637215333792929,-0.253735468379293,3081,"DG_s15",-0.702,0.00200000000007,2.082,2.084,10,10,6,6,2.08,"Left",6,6,0,0,0,0,0,0,0,0,0,0,"10-10",4,4,10,6,10,6
"17",1,"LHB6-LHB7",-0.556110044123737,-0.583790670273737,-0.407365599773737,-0.730881099773737,-0.859950092773737,-0.726765176873737,-0.692680450373737,-0.716629200373737,-0.797358312373737,-0.928574609873737,-1.01173553892374,-0.929790888923737,-1.01932544892374,-1.19911170142374,-1.11396697737374,-0.797491077373737,-0.435945177373737,-0.382611437373737,-0.649984097373737,-0.964038847373737,3081,"DG_s15",-0.702,0.00200000000007,2.082,2.084,10,10,6,6,2.08,"Left",6,6,0,0,0,0,0,0,0,0,0,0,"10-10",4,4,10,6,10,6
"18",1,"LIP4-LIP5",1.51327028838384,1.12215414988384,0.789624449883838,0.695527149883838,0.699695949883838,0.829482688383838,0.941540238383838,0.844255323383838,0.690875723383838,0.462300523383838,0.279949021383838,0.466905286383838,0.691445086383838,0.811121271883838,0.814165473883838,0.528131347383838,0.617725697383838,1.04211661188384,1.38726696188384,1.61486023838384,3081,"DG_s15",-0.702,0.00200000000007,2.082,2.084,10,10,6,6,2.08,"Left",6,6,0,0,0,0,0,0,0,0,0,0,"10-10",4,4,10,6,10,6
"19",1,"LAM9-LAM10",0.036383562540404,-0.304024037459596,-0.386927270459596,-0.289319959459596,-0.034129199959596,0.345988500040404,0.773529400040404,1.0540428540404,1.0821626040404,1.0431249040404,0.875449604040404,0.460143611540404,0.207387255040404,-0.077019616959596,-0.177229941959596,0.093136350540404,0.103081291040404,0.112536513040404,0.024244738040404,-0.203204281959596,3081,"DG_s15",-0.702,0.00200000000007,2.082,2.084,10,10,6,6,2.08,"Left",6,6,0,0,0,0,0,0,0,0,0,0,"10-10",4,4,10,6,10,6
"20",1,"LHB7-LHB8",0.131236772959596,0.345909616959596,0.432253695959596,0.033724904459596,-0.136297180540404,-0.064233530540404,-0.034620280540404,-0.080596084040404,-0.186431172540404,-0.423233872540404,-0.605960391540404,-0.590266096540404,-0.741006023040404,-0.978510973040404,-0.989036717040404,-0.705875217040404,-0.326044067040404,-0.112077470040404,-0.241999207040404,-0.415362107040404,3081,"DG_s15",-0.702,0.00200000000007,2.082,2.084,10,10,6,6,2.08,"Left",6,6,0,0,0,0,0,0,0,0,0,0,"10-10",4,4,10,6,10,6
"21",1,"LAM8-LAM9",-0.238938462770202,-0.350226752020202,-0.417896452020202,-0.382651247520202,-0.119931047520202,0.290487102479798,0.660262802479798,0.664699197529798,0.274296747529798,0.076478242529798,0.243275592529798,0.414634367979798,0.446221717979798,0.344122632979798,-0.108757417020202,-0.372392287020202,-0.112868804520202,0.294057385479798,0.815054235479798,1.0669700304798,3081,"DG_s15",-0.702,0.00200000000007,2.082,2.084,10,10,6,6,2.08,"Left",6,6,0,0,0,0,0,0,0,0,0,0,"10-10",4,4,10,6,10,6
"22",1,"LIP7-LIP8",0.13813338090404,-0.0711416410959596,0.24210775890404,0.54818313090404,0.64034041090404,0.70761933790404,0.63251283790404,0.61990055790404,0.76409784490404,0.46183763990404,0.0227156899040404,-0.37745436009596,-0.60063172709596,-0.53012478559596,-0.39564603559596,-0.12753238559596,0.21355026440404,0.27857157240404,0.0925992724040404,-0.21964087759596,3081,"DG_s15",-0.702,0.00200000000007,2.082,2.084,10,10,6,6,2.08,"Left",6,6,0,0,0,0,0,0,0,0,0,0,"10-10",4,4,10,6,10,6
"23",1,"LTT8-LTT9",0.000530818686868662,-0.209606585313131,-0.530121801313131,-0.762698596313131,-0.985803785813131,-1.08035583181313,-1.10573295931313,-1.01719646431313,-0.784178224813131,-0.505362274813131,-0.420734098313131,-0.589759751313131,-0.696825321313131,-0.588143971313131,-0.348501904313131,-0.135833951313131,-0.0648166313131313,-0.0741744813131313,-0.0788652313131313,-0.0405162813131312,3081,"DG_s15",-0.702,0.00200000000007,2.082,2.084,10,10,6,6,2.08,"Left",6,6,0,0,0,0,0,0,0,0,0,0,"10-10",4,4,10,6,10,6
"24",1,"LIP6-LIP7",0.93179688989899,0.94463733989899,1.11366723989899,0.97603510489899,0.57471010489899,0.29899095489899,0.0757497213989899,0.24255450639899,0.55108240639899,0.60268304139899,0.54284298989899,0.42586874089899,0.37435424089899,0.33332308389899,0.34269831089899,0.44238080989899,0.61628500989899,0.81806048189899,0.76730395889899,0.41600495889899,3081,"DG_s15",-0.702,0.00200000000007,2.082,2.084,10,10,6,6,2.08,"Left",6,6,0,0,0,0,0,0,0,0,0,0,"10-10",4,4,10,6,10,6
"25",1,"LIP8-LIP9",0.179826427535354,-0.0477455724646464,0.0101893475353536,0.184174034035354,-0.229144165964646,-0.649095650964646,-0.849238832464646,-0.772914062964646,-0.475864362964646,-0.437919347514646,-0.651761016014646,-0.815832916014646,-0.940027416014646,-0.932363181464646,-0.764096106764646,-0.698587105464646,-0.671298790464646,-0.701567205464646,-0.769552730164646,-0.813991681464646,3081,"DG_s15",-0.702,0.00200000000007,2.082,2.084,10,10,6,6,2.08,"Left",6,6,0,0,0,0,0,0,0,0,0,0,"10-10",4,4,10,6,10,6
"26",1,"LTT9-LTT10",0.275564253757071,-0.215646246242929,-0.591892646242929,-0.538382586092929,-0.452107132642929,-0.246285452642929,0.330990597357071,0.781967569157071,1.06291966570707,1.33487393570707,1.39406593570707,1.35218843570707,1.36764028570707,1.20747713570707,0.920025735707071,0.665216785707071,0.527349635707071,0.468185235707071,0.353412635707071,0.591363385707071,3081,"DG_s15",-0.702,0.00200000000007,2.082,2.084,10,10,6,6,2.08,"Left",6,6,0,0,0,0,0,0,0,0,0,0,"10-10",4,4,10,6,10,6
"27",1,"LHB9-LHB10",0.800244766156566,0.487489466156566,0.175634131656566,-0.100170218343434,0.0444753811565657,0.678387731156566,1.25178031565657,1.68610031565657,1.86597591565657,1.54471631565657,0.924654797156566,0.290742747156566,-0.191744252843434,-0.358118094343434,-0.271445730493434,-0.219055545493434,-0.245208345493434,-0.226399180493434,-0.244632425843434,-0.149701490843434,3081,"DG_s15",-0.702,0.00200000000007,2.082,2.084,10,10,6,6,2.08,"Left",6,6,0,0,0,0,0,0,0,0,0,0,"10-10",4,4,10,6,10,6
"28",1,"LHB8-LHB9",-0.661420536489899,-0.571528086489899,-0.691613061489899,-0.688864442489899,-0.424235392489899,-0.059306692489899,0.272355407510101,0.330662255510101,0.130507235510101,-0.176862049489899,-0.347741248249899,-0.352778802749899,-0.313405992749899,-0.259416927749899,-0.190663978989899,-0.134142078989899,-0.126738344339899,-0.176877939339899,-0.268460639239899,-0.361273433004899,3081,"DG_s15",-0.702,0.00200000000007,2.082,2.084,10,10,6,6,2.08,"Left",6,6,0,0,0,0,0,0,0,0,0,0,"10-10",4,4,10,6,10,6
"29",1,"LIP3-LIP4",-1.12462005606061,-1.05515590106061,-0.835691921060606,-0.494241021060606,-0.155438221060606,-0.00975842606060606,-0.116956093460606,-0.435451398460606,-0.780806648460606,-0.792094889510606,-0.580470902110606,-0.442718862110606,-0.259705681610606,0.122340359439394,0.538403359439394,0.874430024439394,0.796935273939394,0.166730523939394,-0.550068076060606,-1.10272482606061,3081,"DG_s15",-0.702,0.00200000000007,2.082,2.084,10,10,6,6,2.08,"Left",6,6,0,0,0,0,0,0,0,0,0,0,"10-10",4,4,10,6,10,6
"30",2,"LIP1-LIP2",-0.988396886363636,-1.09381288636364,-1.03368693636364,-0.961910236363636,-0.970432186363636,-0.809550501863636,-0.436489401863636,0.140392448136364,0.784697648136364,1.02808216363636,0.735778568636364,0.388043757636364,0.367776907636364,0.668120857636364,1.06109245263636,1.04795891913636,0.591379569136364,0.0412924691363636,-0.363800680863636,-0.573382386363636,3082,"DG_s15",3.085,3.791,6.023,6.025,18,18,10,10,2.232,"Right",18,18,0,0,0,0,0,0,0,0,0,0,"Equal",8,8,10,18,10,18
"31",2,"LHH7-LHH8",-0.267195288983838,-0.475238966383838,-0.761845696383838,-0.996774878383838,-1.01650522838384,-0.758226570633838,-0.440517920633838,-0.213380984633838,-0.235822394633838,-0.278816236883838,-0.107280186883838,0.120519077116162,0.345063977116162,0.419529511616162,0.393383811616162,0.450031211616162,0.498741126616162,0.256789321616162,0.0211939666161616,-0.140107583383838,3082,"DG_s15",3.085,3.791,6.023,6.025,18,18,10,10,2.232,"Right",18,18,0,0,0,0,0,0,0,0,0,0,"Equal",8,8,10,18,10,18
"32",2,"LIP4-LIP5",-1.04939586060606,-0.961669560606061,-0.931401060606061,-0.945747860606061,-0.987500330606061,-0.724937741106061,-0.148532241106061,0.239048358893939,0.356647443893939,0.520460404393939,0.580194404393939,0.456061904393939,0.472017219393939,0.387490619393939,0.0624391693939395,-0.106735807106061,-0.275103282106061,-0.583708932106061,-0.846491782106061,-1.03962390560606,3082,"DG_s15",3.085,3.791,6.023,6.025,18,18,10,10,2.232,"Right",18,18,0,0,0,0,0,0,0,0,0,0,"Equal",8,8,10,18,10,18
"33",2,"LHH5-LHH6",0.238148001515152,0.126254401515151,-0.0489327484848485,-0.626326242984848,-0.961365692984849,-1.15065044298485,-1.43513539298485,-1.42921569848485,-1.40536829848485,-1.44713574848485,-1.33894199848485,-1.26445373598485,-1.04553838598485,-0.663812735984848,-0.492998148484848,-0.586382260984848,-0.620505799484848,-0.705457999484848,-0.859822676984848,-0.761436066484849,3082,"DG_s15",3.085,3.791,6.023,6.025,18,18,10,10,2.232,"Right",18,18,0,0,0,0,0,0,0,0,0,0,"Equal",8,8,10,18,10,18
"34",2,"LAM1-LAM2",-0.616329262626263,-0.616596762626263,-0.459644762626263,-0.272062912626263,-0.144537512626263,-0.0717934126262626,0.0459938428737374,0.00956404287373741,0.125580550273737,0.396455600273737,0.477080547273737,0.389992747273737,0.123686839873737,-0.245048360126263,-0.415066262626263,-0.387813612626263,-0.144154442626263,0.399022707373737,0.952548407373737,1.48379700737374,3082,"DG_s15",3.085,3.791,6.023,6.025,18,18,10,10,2.232,"Right",18,18,0,0,0,0,0,0,0,0,0,0,"Equal",8,8,10,18,10,18
"35",2,"LIP7-LIP8",0.0960129333333333,0.219695299833333,0.523789199833333,0.801692249833333,0.896960049333333,0.770618632833333,0.493587832833333,0.201642182833333,0.182105131333333,0.439069181333333,0.665220081333333,0.761660495683333,0.646814147683333,0.447697768183333,0.436276218183333,0.563621353833333,0.594041188833333,0.445226368333333,0.223380818333333,-0.0971446816666666,3082,"DG_s15",3.085,3.791,6.023,6.025,18,18,10,10,2.232,"Right",18,18,0,0,0,0,0,0,0,0,0,0,"Equal",8,8,10,18,10,18
"36",2,"LIP2-LIP3",0.600574180560101,0.134074930560101,-0.140966985039899,-0.100272235039899,0.352051685410101,0.876211435410101,0.983772176010101,0.601141426010101,0.038079476010101,-0.504034973989899,-0.648400714489899,-0.328305664489899,0.050267335510101,0.388723235510101,0.449081861010101,0.290128203510101,0.150221153510101,0.125323953510101,0.341166943510101,0.468799143010101,3082,"DG_s15",3.085,3.791,6.023,6.025,18,18,10,10,2.232,"Right",18,18,0,0,0,0,0,0,0,0,0,0,"Equal",8,8,10,18,10,18
"37",2,"LAM7-LAM8",0.703527339762626,0.227234114762626,0.103643914762626,-0.0189948887373737,-0.00903813873737374,-0.0857260887373737,-0.271940890337374,-0.316875940837374,-0.134553818337374,0.117684206662626,0.314616908262626,0.426236173762626,0.451502651762626,0.327073571762626,0.253865721762626,0.309853396762626,0.404045746262626,0.421931226262626,0.330534976262626,0.214080301262626,3082,"DG_s15",3.085,3.791,6.023,6.025,18,18,10,10,2.232,"Right",18,18,0,0,0,0,0,0,0,0,0,0,"Equal",8,8,10,18,10,18
"38",2,"LAM8-LAM9",1.11423440777273,1.32048140777273,1.50374375777273,1.67110098227273,1.41425407227273,0.702274772272727,0.113096022272727,-0.163945582727273,-0.114829662727273,0.182492407272727,0.407275657272727,0.517578901772727,0.494334191772727,0.274392221772727,0.109352232622727,0.130799718122727,0.272454558122727,0.327762253122727,0.183267892272727,-0.0821298877272727,3082,"DG_s15",3.085,3.791,6.023,6.025,18,18,10,10,2.232,"Right",18,18,0,0,0,0,0,0,0,0,0,0,"Equal",8,8,10,18,10,18
"39",2,"LTT9-LTT10",-0.270622997772727,-0.828716697772727,-0.893508600272727,-0.918043056272727,-0.841996718672727,-0.763008663672727,-0.791140913672727,-0.718285532172727,-0.734961494772727,-0.541298810372727,-0.0615144603727273,0.381849003127273,0.716623962127273,0.680450097727273,0.319663859727273,0.0118765597272726,-0.286331307272727,-0.387745792772727,-0.300884604772727,-0.383644304772727,3082,"DG_s15",3.085,3.791,6.023,6.025,18,18,10,10,2.232,"Right",18,18,0,0,0,0,0,0,0,0,0,0,"Equal",8,8,10,18,10,18
"40",2,"LTT8-LTT9",1.16615497474747,0.865464094747475,0.482255441247475,0.0349490852474748,-0.583826064752525,-0.704269009752525,-0.667177306252525,-0.890451350252525,-0.968294450252525,-1.13631397525253,-1.10840460975253,-0.780885409752525,-0.452612159752525,-0.154410359752525,-0.00236842525252523,0.133698774747475,0.340509274747475,0.291235227247475,0.0695071107474748,-0.163968509252525,3082,"DG_s15",3.085,3.791,6.023,6.025,18,18,10,10,2.232,"Right",18,18,0,0,0,0,0,0,0,0,0,0,"Equal",8,8,10,18,10,18
"41",2,"LHB8-LHB9",-0.0378472114489899,-0.15803515944899,-0.29871375489899,-0.38891798989899,-0.22561945989899,0.10796929010101,0.47223764010101,0.79452213910101,0.71858025410101,0.44410765410101,0.13909505410101,-0.11792654489899,-0.11591828989899,-0.17467263989899,-0.24109498989899,-0.0627524758989899,0.23470527410101,0.48792878310101,0.51359941810101,0.27570600410101,3082,"DG_s15",3.085,3.791,6.023,6.025,18,18,10,10,2.232,"Right",18,18,0,0,0,0,0,0,0,0,0,0,"Equal",8,8,10,18,10,18
"42",2,"LHH4-LHH5",-0.774550974262626,-0.706466576262626,-0.435589276262626,-0.549034761262626,-0.854475411262626,-1.09867901126263,-1.43527037126263,-1.49177132826263,-1.28206673326263,-1.39687898326263,-1.38622051126263,-1.45549169461263,-1.57451907461263,-1.27520510911263,-0.969155421112626,-0.612979595762626,-0.138714010762626,0.128657073737374,-0.0126477762626263,-0.554918726262626,3082,"DG_s15",3.085,3.791,6.023,6.025,18,18,10,10,2.232,"Right",18,18,0,0,0,0,0,0,0,0,0,0,"Equal",8,8,10,18,10,18
"43",2,"LAM5-LAM6",0.628658721237374,0.372895271237374,0.214642921237374,-0.119035778762626,-0.235432776262626,-0.246446476262626,-0.440077276262626,-0.433035476262626,-0.361441226262626,-0.117890915762626,0.332074984237374,0.726643034237374,0.861153641237374,0.643271180737374,0.492451520737374,0.497196270737374,0.654483563737374,0.874834663737374,0.782381862087374,0.496602512087374,3082,"DG_s15",3.085,3.791,6.023,6.025,18,18,10,10,2.232,"Right",18,18,0,0,0,0,0,0,0,0,0,0,"Equal",8,8,10,18,10,18
"44",2,"LHB9-LHB10",-0.535463215477778,-0.520415215277778,-0.383019669277778,-0.213730570777778,-0.384468269277778,-0.617949279277778,-0.789059779277778,-0.816495177777778,-0.646088752777778,-0.235448552777778,0.345615147222222,0.823134647222222,0.969227700022222,0.706325630022222,0.459526830022222,0.421545330022222,0.448978017222222,0.263193387222222,-0.105564562777778,-0.666219812777778,3082,"DG_s15",3.085,3.791,6.023,6.025,18,18,10,10,2.232,"Right",18,18,0,0,0,0,0,0,0,0,0,0,"Equal",8,8,10,18,10,18
"45",2,"LHB4-LHB5",-0.548085265505051,-0.493457399005051,-0.489289513005051,-0.66180663555505,-0.574856681555051,-0.702440768055051,-1.08295986805505,-1.25427910050505,-1.25779180050505,-1.23835220050505,-0.975911394855051,-0.613662894855051,-0.161786844855051,0.377854705144949,0.67447439949495,0.522740920494949,0.0707031704949495,-0.436205229505051,-0.820961879505051,-0.789290546005051,3082,"DG_s15",3.085,3.791,6.023,6.025,18,18,10,10,2.232,"Right",18,18,0,0,0,0,0,0,0,0,0,0,"Equal",8,8,10,18,10,18
"46",2,"LAM6-LAM7",1.14624698232323,0.904841832323232,0.723805182323232,0.225623968823232,-0.310648231176768,-0.464086481176768,-0.762382481176768,-0.968991667676768,-0.809274694676768,-0.602900794676768,-0.371221694676768,-0.186682594676768,-0.165685797676768,-0.240723797676768,-0.330679777676768,-0.469256013676768,-0.572954643676768,-0.579824397676768,-0.606462592676768,-0.674529206676768,3082,"DG_s15",3.085,3.791,6.023,6.025,18,18,10,10,2.232,"Right",18,18,0,0,0,0,0,0,0,0,0,0,"Equal",8,8,10,18,10,18
"47",2,"LHH6-LHH7",-0.202042896767677,-0.187750734267677,-0.417751564267677,-1.03085826426768,-1.48054504026768,-1.48232957961768,-1.41720223961768,-1.40884797461768,-1.31935315711768,-1.19302183026768,-1.10183219026768,-1.06454241526768,-1.06588776876768,-0.932433568767677,-0.691046398767677,-0.671952383767677,-0.786207293267677,-0.928629493267677,-1.15476040976768,-1.19845478476768,3082,"DG_s15",3.085,3.791,6.023,6.025,18,18,10,10,2.232,"Right",18,18,0,0,0,0,0,0,0,0,0,0,"Equal",8,8,10,18,10,18
"48",2,"LAM2-LAM3",-0.800111299646465,-1.03008549964646,-1.18872352964646,-1.53100482964646,-1.63753989464646,-1.63021074464646,-1.79629086464646,-1.86094466464646,-1.77882584414646,-1.57143024414646,-1.37942567164646,-1.36769947864646,-1.16375608914646,-0.894032639146465,-0.748723763146465,-0.747327856146465,-1.14500391614646,-1.53754445214646,-1.55817180064646,-1.31715575064646,3082,"DG_s15",3.085,3.791,6.023,6.025,18,18,10,10,2.232,"Right",18,18,0,0,0,0,0,0,0,0,0,0,"Equal",8,8,10,18,10,18
"49",2,"LIP3-LIP4",-0.392472731747475,-0.534014601747475,-0.689600471247475,-0.567729486747475,-0.222459436747475,0.170704063252525,0.345534891252525,0.0819894662525253,-0.150160427747475,-0.284198721747475,-0.520682762747475,-0.280844156247475,-0.0775099122474747,-0.184382755747475,0.179167219252525,0.516305762752525,0.600544512752525,0.634853155252525,0.291364280252525,-0.205386018747475,3082,"DG_s15",3.085,3.791,6.023,6.025,18,18,10,10,2.232,"Right",18,18,0,0,0,0,0,0,0,0,0,0,"Equal",8,8,10,18,10,18
"50",2,"LAM3-LAM4",-0.0961191732474747,-0.138107844247475,-0.114370645747475,0.0647119042525253,0.167572142752525,0.0624579137525253,-0.154381236247475,-0.197285010747475,-0.154467019347475,-0.177192724347475,-0.136753774347475,-0.103572516547475,0.00409140355252526,0.403945008552525,0.785973608552525,0.782681060252525,0.576472376752525,0.321330375752525,-0.0111196442474747,-0.274809329247475,3082,"DG_s15",3.085,3.791,6.023,6.025,18,18,10,10,2.232,"Right",18,18,0,0,0,0,0,0,0,0,0,0,"Equal",8,8,10,18,10,18
"51",2,"LHB5-LHB6",0.285794895515152,0.477787100515152,0.568658881515151,0.272875466515152,0.0250886215151515,-0.0616708234848485,-0.519081023484849,-0.956332258484848,-1.02239064348485,-1.08163459348485,-0.961262556984849,-0.604233406984849,-0.149089806984848,0.282104493015152,0.573795156515152,0.673669606515152,0.579384106515151,0.290744474015152,-0.160040975984848,-0.412640044484848,3082,"DG_s15",3.085,3.791,6.023,6.025,18,18,10,10,2.232,"Right",18,18,0,0,0,0,0,0,0,0,0,0,"Equal",8,8,10,18,10,18
"52",2,"LIP6-LIP7",-0.225394146378788,-0.404038671378788,-0.535102037878788,-0.591900637878788,-0.572839187878788,-0.523806187878788,-0.557925887878788,-0.545603487878788,-0.318009798878788,0.0413610511212121,0.429053551121212,0.669303001121212,0.591734076621212,0.288112100121212,0.167945465121212,0.182463965121212,0.174134602696212,0.134942479196212,-0.188477285803788,-0.537211635803788,3082,"DG_s15",3.085,3.791,6.023,6.025,18,18,10,10,2.232,"Right",18,18,0,0,0,0,0,0,0,0,0,0,"Equal",8,8,10,18,10,18
"53",2,"LAM4-LAM5",0.0237916757373737,-0.184420260262626,-0.0533997052626263,-0.319147706762626,-0.722879061262626,-0.764376427762626,-0.973488077762626,-1.10604907626263,-1.09798752626263,-1.07851007626263,-0.991535822977626,-0.850175472977626,-0.567442422977626,-0.389071817977626,-0.470089425212626,-0.726591975212626,-0.813714070562626,-0.782894275562626,-0.734555670112626,-0.730304520112626,3082,"DG_s15",3.085,3.791,6.023,6.025,18,18,10,10,2.232,"Right",18,18,0,0,0,0,0,0,0,0,0,0,"Equal",8,8,10,18,10,18
"54",2,"LIP8-LIP9",0.835414145843434,0.746947812843434,0.842368093343434,1.06865231934343,1.12415425434343,1.03025914984343,0.831762919343434,0.450732869343434,0.338382197343434,0.494416773343434,0.474030523343434,0.514043323343434,0.500584454843434,0.669422078843434,1.10961627884343,1.27214141884343,1.24171108184343,1.17925578184343,1.07113138184343,1.03302855684343,3082,"DG_s15",3.085,3.791,6.023,6.025,18,18,10,10,2.232,"Right",18,18,0,0,0,0,0,0,0,0,0,0,"Equal",8,8,10,18,10,18
"55",2,"LIP5-LIP6",0.0561256448030303,0.16594343030303,0.0698085803030303,-0.0220960196969697,-0.0582010696969697,-0.18319754769697,-0.38253909769697,-0.52606584769697,-0.61604358269697,-0.50621435469697,-0.31003765469697,-0.17532510469697,0.0744848303030303,0.26895018030303,0.39340718030303,0.41052660930303,0.00695941930303029,-0.47921263069697,-0.70526120619697,-0.69468443519697,3082,"DG_s15",3.085,3.791,6.023,6.025,18,18,10,10,2.232,"Right",18,18,0,0,0,0,0,0,0,0,0,0,"Equal",8,8,10,18,10,18
"56",2,"LHB6-LHB7",-0.365088870661616,-0.421028915661616,-0.493860167161616,-0.602781242161616,-0.781166055161616,-0.643104446661616,-0.565378981661616,-0.652137182211616,-0.627470983211616,-0.623794571711616,-0.745343366711616,-0.806643351161616,-0.758134116161616,-0.577312641161616,-0.183535846161616,0.332158063838384,0.689130478838384,0.578812523838384,-0.00781422616161609,-0.792667226161616,3082,"DG_s15",3.085,3.791,6.023,6.025,18,18,10,10,2.232,"Right",18,18,0,0,0,0,0,0,0,0,0,0,"Equal",8,8,10,18,10,18
"57",2,"LAM9-LAM10",0.504660599166667,0.365530449166667,0.0528828511666667,-0.0918547723333333,-0.220507081333333,-0.368277150833333,-0.210062852833333,0.0157654371666667,0.0229712905166667,-0.150530889983333,-0.375829889983333,-0.527985979983333,-0.400721392333333,-0.116680992333333,0.135396757666667,0.399659707666667,0.455832851166667,0.353714817166667,0.257482207166667,0.135735207166667,3082,"DG_s15",3.085,3.791,6.023,6.025,18,18,10,10,2.232,"Right",18,18,0,0,0,0,0,0,0,0,0,0,"Equal",8,8,10,18,10,18
"58",2,"LHB7-LHB8",0.198281113707071,0.181575073207071,-0.0420450167929293,-0.0473135942929293,-0.109337379292929,-0.000407779792929275,0.329051070207071,0.389063531707071,0.288924181707071,0.329609192707071,0.204365027707071,-0.0284126337929293,-0.0798135837929293,-0.292173194292929,-0.394054522292929,-0.0799098222929293,0.415439277707071,0.786676927707071,0.832601548207071,0.516228348207071,3082,"DG_s15",3.085,3.791,6.023,6.025,18,18,10,10,2.232,"Right",18,18,0,0,0,0,0,0,0,0,0,0,"Equal",8,8,10,18,10,18
"59",3,"LAM2-LAM3",0.495887032015151,0.176651232015151,-0.0283276329848485,-0.101778948484848,-0.0993681984848486,-0.128842548484849,-0.170421998484849,-0.229838198484849,-0.279278198484848,-0.230107848484849,-0.0937788884848485,0.0321990965151515,0.0345340465151515,0.0401748965151515,0.0761352630151515,0.149070234415151,0.298848814415151,0.291180864415151,0.132089737915151,0.0219761315151515,3083,"DG_s15",7.026,7.731,9.383,9.385,10,26,10,10,1.652,"Right",10,26,16,16,0,0,16,0,16,0,-16,-16,"Disadvent",0,16,10,10,10,26
"60",3,"LHB8-LHB9",-0.409460409949495,-0.756378559949495,-1.08075501994949,-1.1982661949495,-1.0405301049495,-0.866299731949495,-0.794427381949495,-0.329862911949495,0.272001498050505,0.708439925050505,1.02853297505051,0.870396655050505,0.391994933100505,-0.109829706899495,-0.496434456899495,-0.813693556899495,-1.01792048494949,-0.998559184199495,-0.719695159199495,-0.273859309199495,3083,"DG_s15",7.026,7.731,9.383,9.385,10,26,10,10,1.652,"Right",10,26,16,16,0,0,16,0,16,0,-16,-16,"Disadvent",0,16,10,10,10,26
"61",3,"LAM7-LAM8",0.194421227228283,0.264736427228283,0.493590822228283,0.716713993728283,0.748676714328283,0.370812414328283,-0.0990199856717172,-0.320480970671717,-0.262776072171717,-0.130966122171717,-0.0698536221717172,-0.237858972171717,-0.524883157171717,-0.666612257171717,-0.798957907171717,-0.872242957171717,-0.647637625671717,-0.224984325671717,0.335093074328283,0.785476599328283,3083,"DG_s15",7.026,7.731,9.383,9.385,10,26,10,10,1.652,"Right",10,26,16,16,0,0,16,0,16,0,-16,-16,"Disadvent",0,16,10,10,10,26
"62",3,"LAM4-LAM5",-0.14751666613596,-0.28653758759596,-0.47783340959596,-0.38202280959596,-0.34536540959596,-0.20864648409596,0.0934559159040404,0.11226120340404,-0.0251163465959596,-0.14176697209596,-0.42931372209596,-0.38259344959596,-0.0148996995959596,0.22486870040404,0.29485607040404,0.24478913990404,0.0672727968190404,-0.24678105318096,-0.27184687318096,-0.31470020268096,3083,"DG_s15",7.026,7.731,9.383,9.385,10,26,10,10,1.652,"Right",10,26,16,16,0,0,16,0,16,0,-16,-16,"Disadvent",0,16,10,10,10,26
"63",3,"LHB9-LHB10",-0.959834991414141,-0.892684041414141,-0.733396949414141,-0.455247749414141,-0.248953649414141,-0.156933304414141,-0.165543586414141,-0.320174577914141,-0.531947477914141,-0.547552855914141,-0.511193605414141,-0.613698573914141,-0.761100173914141,-0.988337390914141,-1.11917242641414,-1.01028041781414,-0.883440367814141,-0.803529567814141,-0.853982792814141,-0.797097445914141,3083,"DG_s15",7.026,7.731,9.383,9.385,10,26,10,10,1.652,"Right",10,26,16,16,0,0,16,0,16,0,-16,-16,"Disadvent",0,16,10,10,10,26
"64",3,"LHH4-LHH5",-0.106038663015151,-0.150044547515152,0.0111626274848485,0.0922645688348485,0.118937668834848,0.0119098648348485,-0.286856810165152,-0.373419581515152,-0.300149218515152,-0.363402618515152,-0.285192218515152,-0.291046138515151,-0.560205751515152,-0.538281951515151,-0.461520551515151,-0.353314474015151,0.0311561759848485,0.412043975984848,0.765395875984848,0.928529448484849,3083,"DG_s15",7.026,7.731,9.383,9.385,10,26,10,10,1.652,"Right",10,26,16,16,0,0,16,0,16,0,-16,-16,"Disadvent",0,16,10,10,10,26
"65",3,"LHH7-LHH8",-0.0712082109040404,0.37313558909596,0.79839673909596,1.11063688309596,0.95201446859596,0.49568271859596,0.0313088685959596,-0.31787007540404,-0.44166524040404,-0.57134454040404,-0.71326864040404,-0.74703899040404,-0.80763414040404,-0.86473009040404,-0.84625824040404,-0.75277154040404,-0.74725704040404,-0.53931134090404,-0.22138974090404,-0.0458884399040404,3083,"DG_s15",7.026,7.731,9.383,9.385,10,26,10,10,1.652,"Right",10,26,16,16,0,0,16,0,16,0,-16,-16,"Disadvent",0,16,10,10,10,26
"66",3,"LIP4-LIP5",-1.14840100353535,-1.07573025353535,-0.856798047935354,-0.665485612935353,-0.339574512935354,0.0223232370646465,0.489801881464646,0.994177296464646,1.25207529646465,0.971544676464646,0.471388027464647,0.0188280274646465,-0.376649692535354,-0.573573972535353,-0.830254323535353,-1.12379537353535,-1.16224618853535,-0.985338293535353,-0.900728793535354,-0.764595310535354,3083,"DG_s15",7.026,7.731,9.383,9.385,10,26,10,10,1.652,"Right",10,26,16,16,0,0,16,0,16,0,-16,-16,"Disadvent",0,16,10,10,10,26
"67",3,"LAM9-LAM10",-0.0356266834747475,-0.0420247424747475,0.310558257525252,0.556508107525252,0.824764457525252,0.843704877525252,0.663982626025252,0.534758918525252,0.664819068525252,0.808754693525253,0.855940610025252,0.807786517525253,0.552145667525253,0.166595667525252,-0.0443539974747476,-0.131408597474748,-0.228050097474747,-0.125411697474748,-0.0604986474747475,-0.00459124747474748,3083,"DG_s15",7.026,7.731,9.383,9.385,10,26,10,10,1.652,"Right",10,26,16,16,0,0,16,0,16,0,-16,-16,"Disadvent",0,16,10,10,10,26
"68",3,"LAM3-LAM4",1.55582892218182,1.48397842218182,1.62222977218182,1.94870326818182,1.89534946818182,1.77693366818182,1.52618179768182,1.15784982768182,1.04494656018182,0.770701982681818,0.508894953181818,0.493306223181818,0.344787190681818,0.205031568181818,0.138049268181818,0.128930018181818,0.148774818181818,0.108234368181818,0.125454268181818,0.193469623681818,3083,"DG_s15",7.026,7.731,9.383,9.385,10,26,10,10,1.652,"Right",10,26,16,16,0,0,16,0,16,0,-16,-16,"Disadvent",0,16,10,10,10,26
"69",3,"LHB4-LHB5",0.00534521692474749,-0.0493213265752525,0.184015146424747,0.346195185424747,0.454936756474748,0.544345331474748,0.494563139974747,0.376972739474748,0.280425829474747,0.190238004474747,0.207965066374747,0.233946587874747,0.0678044978747475,-0.111206902125253,-0.189157245525253,-0.250356416525252,-0.159325516525253,0.0255183584747475,0.0612689184747475,-0.0978823315252525,3083,"DG_s15",7.026,7.731,9.383,9.385,10,26,10,10,1.652,"Right",10,26,16,16,0,0,16,0,16,0,-16,-16,"Disadvent",0,16,10,10,10,26
"70",3,"LIP7-LIP8",-0.0219590669873737,-0.0987135834873737,-0.258500958737374,-0.238502097837374,-0.173368889837374,-0.274612339837374,-0.212715756837374,-0.0638497327373737,0.0256721092626263,0.278418659262626,0.418401326262626,0.223439805262626,0.0737894712626263,0.105045221262626,0.0231822787626263,-0.0991095002373737,-0.136175566237374,-0.330898616237374,-0.231241943737374,0.134887006262626,3083,"DG_s15",7.026,7.731,9.383,9.385,10,26,10,10,1.652,"Right",10,26,16,16,0,0,16,0,16,0,-16,-16,"Disadvent",0,16,10,10,10,26
"71",3,"LAM1-LAM2",0.0885585672222222,0.123933217222222,0.219163347222222,0.282416372222222,0.287618222222222,0.257459972222222,0.281290622222222,0.341126172222222,0.369918022222222,0.364211322222222,0.227807031222222,-0.0746245687777778,-0.434759218777778,-0.586033053777778,-0.589777192677778,-0.519979277677778,-0.426981677677778,-0.434724492677778,-0.517310912777778,-0.506005571277778,3083,"DG_s15",7.026,7.731,9.383,9.385,10,26,10,10,1.652,"Right",10,26,16,16,0,0,16,0,16,0,-16,-16,"Disadvent",0,16,10,10,10,26
"72",3,"LIP1-LIP2",0.818856479060606,0.749924834560606,0.501376034560606,0.306053934560606,0.024975129560606,0.366587301060606,0.878578551060606,0.980774704060606,1.17620681206061,1.08742791206061,0.929943562060606,1.06875325906061,1.01087329556061,0.854458035060606,0.790337735060606,0.624971049560606,0.607121333060606,0.659324637060606,0.408671712060606,0.187406247560606,3083,"DG_s15",7.026,7.731,9.383,9.385,10,26,10,10,1.652,"Right",10,26,16,16,0,0,16,0,16,0,-16,-16,"Disadvent",0,16,10,10,10,26
"73",3,"LAM6-LAM7",-0.0557819394444444,-0.505030139444444,-0.848878214444444,-0.820648594444444,-0.654141524444444,-0.405701064644444,-0.112057614644444,-0.0697344871444444,-0.243535257144444,-0.375283766944444,-0.655462016944444,-0.652420757444444,-0.374400857444444,-0.296556886444444,-0.213231741444444,-0.0551762334444444,-0.0127027834444444,-0.0175273239444444,-0.0644578689444444,-0.381115013944444,3083,"DG_s15",7.026,7.731,9.383,9.385,10,26,10,10,1.652,"Right",10,26,16,16,0,0,16,0,16,0,-16,-16,"Disadvent",0,16,10,10,10,26
"74",3,"LHB6-LHB7",0.855424111156566,0.960211011156566,0.912769610656566,0.783671285656566,0.421635165156566,-0.0696824348434343,-0.375438734343434,-0.441170034343434,-0.365367184343434,-0.322526884343434,-0.343128034343434,-0.276365484343434,-0.251578034343434,-0.270003734343434,-0.306891584343434,-0.180443734343434,-0.168388134343434,-0.137667734343434,0.115427445656566,0.274534645656566,3083,"DG_s15",7.026,7.731,9.383,9.385,10,26,10,10,1.652,"Right",10,26,16,16,0,0,16,0,16,0,-16,-16,"Disadvent",0,16,10,10,10,26
"75",3,"LTT8-LTT9",-0.325153048818182,-0.507111891818182,-0.298940815818182,0.149857384181818,0.603155884181818,0.677292119181818,0.654371987181818,0.613281287181818,0.491212584531818,0.433094834531818,0.127655890531818,-0.240740609468182,-0.459758106818182,-0.581452431818182,-0.435238603318182,-0.303640138318182,-0.225686388818182,-0.0711663888181818,-0.0610115673181818,-0.129112482318182,3083,"DG_s15",7.026,7.731,9.383,9.385,10,26,10,10,1.652,"Right",10,26,16,16,0,0,16,0,16,0,-16,-16,"Disadvent",0,16,10,10,10,26
"76",3,"LHH5-LHH6",-0.848027498939394,-1.06126994393939,-0.913904093939394,-0.747160173939394,-0.535292537939394,-0.249089587939394,-0.244501675439394,-0.460237795439394,-0.521905181439394,-0.722526231439394,-0.802238138439394,-0.457777683439394,-0.352397247439394,-0.383950697439394,-0.407978402939394,-0.440971120439394,-0.369079156439394,-0.218116705939394,-0.119654545939394,-0.170234160439394,3083,"DG_s15",7.026,7.731,9.383,9.385,10,26,10,10,1.652,"Right",10,26,16,16,0,0,16,0,16,0,-16,-16,"Disadvent",0,16,10,10,10,26
"77",3,"LHB7-LHB8",-0.432403746095455,-0.491043724545455,-0.614416304545455,-0.597780304545454,-0.430244525545455,-0.304130675545455,-0.299728030545455,-0.234947515545455,0.0567285554545455,0.232751355454545,0.381422816954545,0.429375666954545,0.217483558954545,0.000709397454545454,-0.194284059045455,-0.407015574045455,-0.646620616045455,-0.616819225045455,-0.376142628045455,-0.214542938045455,3083,"DG_s15",7.026,7.731,9.383,9.385,10,26,10,10,1.652,"Right",10,26,16,16,0,0,16,0,16,0,-16,-16,"Disadvent",0,16,10,10,10,26
"78",3,"LTT9-LTT10",0.256046700313131,0.0440455663131313,-0.266720633686869,-0.404721113686869,-0.336352218686869,-0.246343018686869,-0.224654118686869,-0.218040328686869,-0.0230969786868687,0.193000307813131,0.238754067813131,0.128001427813131,-0.0818655221868687,-0.204982008686869,-0.107874308686869,0.0132104913131313,0.0854786428131313,0.228587342813131,0.428005932813131,0.582557982813131,3083,"DG_s15",7.026,7.731,9.383,9.385,10,26,10,10,1.652,"Right",10,26,16,16,0,0,16,0,16,0,-16,-16,"Disadvent",0,16,10,10,10,26
"79",3,"LAM8-LAM9",0.0555600578333333,0.194032609133333,0.566739459133333,0.732430195633333,0.643404950633333,0.302773619833333,-0.0407966001666666,-0.133653323166667,-0.0778118731666667,-0.0244497231666667,-0.0328612031666667,-0.0475186191666667,0.118923850833333,0.216175833333333,0.118369533333333,-0.0624871141666666,-0.203448634166667,-0.104711035666667,0.179631664333333,0.320272887833333,3083,"DG_s15",7.026,7.731,9.383,9.385,10,26,10,10,1.652,"Right",10,26,16,16,0,0,16,0,16,0,-16,-16,"Disadvent",0,16,10,10,10,26
"80",3,"LIP5-LIP6",0.634641088479798,0.289697363479798,-0.107846686520202,-0.350335386520202,-0.387087102020202,-0.358660152020202,-0.116234358520202,0.382583191479798,0.986607341479798,1.3268947496798,0.966583856179798,0.338532906179798,-0.288855893820202,-0.540581302020202,-0.271594701520202,0.082333048479798,0.436289748479798,0.641106298479798,0.517106688979798,0.168906038979798,3083,"DG_s15",7.026,7.731,9.383,9.385,10,26,10,10,1.652,"Right",10,26,16,16,0,0,16,0,16,0,-16,-16,"Disadvent",0,16,10,10,10,26
"81",3,"LIP6-LIP7",0.244170622934343,0.0593369024343434,-0.145049497565657,-0.144936971865657,-0.000719765865656585,0.0387477531343434,0.116541712134343,0.411720821434343,0.766610821434343,1.10039062743434,1.01416892843434,0.572785378434343,0.0359256284343434,-0.306012396565657,-0.294835106565657,-0.123183243565657,0.205093256434343,0.495244941434343,0.535394480434343,0.387908817434343,3083,"DG_s15",7.026,7.731,9.383,9.385,10,26,10,10,1.652,"Right",10,26,16,16,0,0,16,0,16,0,-16,-16,"Disadvent",0,16,10,10,10,26
"82",3,"LIP3-LIP4",-0.561460887166667,-0.164082037166667,0.118088712833333,-0.0313726711666666,-0.232155247666667,-0.192160197666667,0.00185420233333333,0.294631156833333,0.277981911633333,-0.104757148366667,-0.697208898366667,-0.998573198366667,-0.960208519166667,-0.774932559166667,-0.329372409166667,0.0233737908333334,0.0386272308333334,-0.230461219166667,-0.595404419166667,-0.852123969166667,3083,"DG_s15",7.026,7.731,9.383,9.385,10,26,10,10,1.652,"Right",10,26,16,16,0,0,16,0,16,0,-16,-16,"Disadvent",0,16,10,10,10,26
"83",3,"LAM5-LAM6",-0.489903642921212,-0.334220747921212,-0.0110034679212121,0.127513423578788,0.276573182878788,0.444085487878788,0.560053987878788,0.633634737878788,0.665195237878788,0.594448637878788,0.312461022878788,0.0375903928787879,-0.135628362121212,-0.358673812121212,-0.510638147121212,-0.526447127121212,-0.547500097121212,-0.555415997121212,-0.555453097121212,-0.610782887121212,3083,"DG_s15",7.026,7.731,9.383,9.385,10,26,10,10,1.652,"Right",10,26,16,16,0,0,16,0,16,0,-16,-16,"Disadvent",0,16,10,10,10,26
"84",3,"LIP2-LIP3",-0.0895958150757576,-0.222247085075758,-0.280560312575758,-0.103287777575758,-0.00339415087575756,-0.104380550875758,-0.202058000875758,-0.250965885875758,-0.420295712575758,-0.478881712575758,-0.400652462575758,-0.396351312575758,-0.410931812575758,-0.342884212575758,-0.198973207075758,-0.0157397070757576,0.281440542924242,0.480218674924242,0.378968419424242,0.208876819424242,3083,"DG_s15",7.026,7.731,9.383,9.385,10,26,10,10,1.652,"Right",10,26,16,16,0,0,16,0,16,0,-16,-16,"Disadvent",0,16,10,10,10,26
"85",3,"LIP8-LIP9",-0.0252669548333334,0.0458326951666667,0.117633736166667,0.164658586166667,0.169862886166667,0.00941563616666663,-0.205754954833333,-0.335456854833333,-0.250686504833333,-0.226954504833333,-0.0354631103333334,0.471814689666667,0.936394589666667,1.29839738966667,1.31883022266667,1.08396152416667,0.748061877166667,0.488298877166667,0.574933637666667,0.876384636166667,3083,"DG_s15",7.026,7.731,9.383,9.385,10,26,10,10,1.652,"Right",10,26,16,16,0,0,16,0,16,0,-16,-16,"Disadvent",0,16,10,10,10,26
"86",3,"LHH6-LHH7",0.610092718969697,0.350277398969697,-0.010329181030303,-0.197399932530303,-0.345157403030303,-0.420969443030303,-0.401901343030303,-0.444628643030303,-0.448680943030303,-0.528529833030303,-0.672309503030303,-0.470662869030303,-0.241520819030303,-0.157238757030303,-0.152999807030303,-0.162550690030303,-0.302511628680303,-0.318997097180303,-0.034294447180303,0.037140796819697,3083,"DG_s15",7.026,7.731,9.383,9.385,10,26,10,10,1.652,"Right",10,26,16,16,0,0,16,0,16,0,-16,-16,"Disadvent",0,16,10,10,10,26
"87",3,"LHB5-LHB6",-0.466179156712121,-0.205288429212121,0.0919067281728788,-0.0418829988271212,-0.517359898827121,-1.07779624882712,-1.42530770621212,-1.52207692121212,-1.39516627571212,-1.12484425661212,-0.918673456612121,-0.751057752612121,-0.736260651612121,-0.825915919212121,-0.577442889212121,-0.253601543212121,-0.138704228212121,-0.210875429712121,-0.449457959712121,-0.953746659712121,3083,"DG_s15",7.026,7.731,9.383,9.385,10,26,10,10,1.652,"Right",10,26,16,16,0,0,16,0,16,0,-16,-16,"Disadvent",0,16,10,10,10,26
"88",4,"LHB9-LHB10",-0.359585034671717,-0.587473174671717,-0.848298491171717,-0.616979777171717,-0.328480223671717,-0.104761983671717,0.123783232828283,-0.00619891717171717,-0.310966234671717,-0.546408282771717,-0.473376862771717,-0.168042062771717,0.125737804728283,0.121476797828283,-0.00185057817171719,-0.248909528171717,-0.554958026671717,-0.469580626171717,-0.508183147671717,-0.823316197671717,3084,"DG_s15",10.386,11.091,13.747,13.749,16,4,10,10,2.656,"Right",16,4,12,12,0,0,0,-12,0,-12,12,12,"Advent",6,-6,10,16,10,4
"89",4,"LHH5-LHH6",0.220319491747475,-0.0558313332525252,-0.417034683252525,-0.717941758252525,-0.615411432752525,-0.320549552752525,-0.155055273752525,0.00937754624747476,0.261891203747475,0.581291173747475,1.15526274474747,1.73615562474747,1.80891917474747,1.45932960374747,1.07376031524747,0.694226115247475,0.407718272547475,0.609324193547475,1.09544448204747,1.51858468204747,3084,"DG_s15",10.386,11.091,13.747,13.749,16,4,10,10,2.656,"Right",16,4,12,12,0,0,0,-12,0,-12,12,12,"Advent",6,-6,10,16,10,4
"90",4,"LHH4-LHH5",-1.27158034191919,-1.20193324191919,-1.21382859191919,-1.31968439191919,-1.21722589191919,-1.14364844191919,-1.20386539191919,-1.23827624191919,-1.09829280941919,-0.663661259419192,0.0713241905808081,0.756263190580808,0.888976858080808,0.470323315580808,-0.0714395541191919,-0.347337254119192,-0.297575554119192,-0.0361286616191919,0.231880058080808,0.215677103080808,3084,"DG_s15",10.386,11.091,13.747,13.749,16,4,10,10,2.656,"Right",16,4,12,12,0,0,0,-12,0,-12,12,12,"Advent",6,-6,10,16,10,4
"91",4,"LAM2-LAM3",-1.06561584928101,-0.79750947828101,-0.75654492828101,-0.98943518910101,-1.35497373910101,-1.39420766810101,-1.23629627460101,-1.12463958460101,-1.06586148460101,-1.12149557660101,-1.11752076960101,-0.96761410960101,-0.79759213360101,-0.80440873360101,-0.98589338410101,-1.22943423410101,-1.39467111010101,-1.37707571010101,-1.18489556260101,-0.91711541260101,3084,"DG_s15",10.386,11.091,13.747,13.749,16,4,10,10,2.656,"Right",16,4,12,12,0,0,0,-12,0,-12,12,12,"Advent",6,-6,10,16,10,4
"92",4,"LAM3-LAM4",1.08707019972727,0.635266349727273,0.0862393497272727,-0.405938600272727,-0.428345567272727,-0.131356417272727,0.142020282727273,0.378403387727273,0.358717277727273,0.208356487727273,-0.00393891227272727,-0.170170217272727,-0.154026867272727,-0.294196177272727,-0.357234577272727,-0.241223927272727,-0.220501902272727,-0.00452439127272727,0.292160458727273,0.399124317727273,3084,"DG_s15",10.386,11.091,13.747,13.749,16,4,10,10,2.656,"Right",16,4,12,12,0,0,0,-12,0,-12,12,12,"Advent",6,-6,10,16,10,4
"93",4,"LAM8-LAM9",-0.445610351919192,-0.441312720919192,-0.520413600919192,-0.259169169919192,-0.0863878499191919,0.0655483190808081,0.293315319080808,0.296043708080808,0.0624050130808081,-0.165212746919192,-0.262815956919192,-0.354124376919192,-0.262320631919192,-0.0878320219191919,-0.0841497284191919,-0.163823908419192,-0.430014358419192,-0.633541034419192,-0.485089767919192,-0.335701211919192,3084,"DG_s15",10.386,11.091,13.747,13.749,16,4,10,10,2.656,"Right",16,4,12,12,0,0,0,-12,0,-12,12,12,"Advent",6,-6,10,16,10,4
"94",4,"LAM4-LAM5",1.03139414177778,0.938630970277778,0.540363760777778,0.219281276277778,0.563189616277778,0.768433955777778,0.760798037277778,0.663655899777778,0.495986585277778,0.219829422277778,0.274841882927778,0.812464682927778,1.19060504742778,1.38893131042778,1.45778222777778,1.28036822777778,0.888628909777778,0.823240188777778,1.16749843877778,1.43855113877778,3084,"DG_s15",10.386,11.091,13.747,13.749,16,4,10,10,2.656,"Right",16,4,12,12,0,0,0,-12,0,-12,12,12,"Advent",6,-6,10,16,10,4
"95",4,"LIP1-LIP2",-0.353806332909091,-0.0492858694090909,0.149530502590909,0.424642821090909,0.785130399590909,1.03962729959091,1.29662447759091,1.37448230909091,1.01469061459091,0.545928044090909,0.387110744090909,0.212937424090909,0.218024878090909,0.292767075590909,0.00719772559090909,0.0645652610909091,-0.000339646909090913,-0.277783673909091,-0.339033623909091,-0.414632082659091,3084,"DG_s15",10.386,11.091,13.747,13.749,16,4,10,10,2.656,"Right",16,4,12,12,0,0,0,-12,0,-12,12,12,"Advent",6,-6,10,16,10,4
"96",4,"LHB8-LHB9",-1.56435073226768,-1.81279637676768,-1.87949647676768,-1.82384947676768,-1.60118592376768,-1.35127857876768,-1.21069183176768,-1.22550638176768,-1.37992463476768,-1.44643461006768,-1.24949815706768,-0.783183007067677,-0.358796557067677,-0.232571926767677,-0.271754576767677,-0.619023177267677,-0.919420412267677,-0.736946812267677,-0.624626814267677,-0.637056243767677,3084,"DG_s15",10.386,11.091,13.747,13.749,16,4,10,10,2.656,"Right",16,4,12,12,0,0,0,-12,0,-12,12,12,"Advent",6,-6,10,16,10,4
"97",4,"LHB4-LHB5",0.217243534222222,0.395252450222222,0.203594288222222,-0.0919278947777778,-0.288493244777778,-0.353813747277778,-0.363059997277778,-0.476013514277778,-0.652591764277778,-0.528673574277778,0.0319601757222222,0.538015475722222,0.843558825722222,0.880167672222222,0.785914772222222,0.659742322222222,0.542252322222222,0.786691072222222,1.13893482222222,1.22791947222222,3084,"DG_s15",10.386,11.091,13.747,13.749,16,4,10,10,2.656,"Right",16,4,12,12,0,0,0,-12,0,-12,12,12,"Advent",6,-6,10,16,10,4
"98",4,"LAM1-LAM2",-1.42428651277273,-1.56391157047273,-1.61191512547273,-1.85114188197273,-1.86285343497273,-1.52512931977273,-1.33261201477273,-1.15810994377273,-1.16192736277273,-1.40848981327273,-1.38478161327273,-0.959712077772727,-0.531767477772727,-0.404282127272727,-0.577325477272727,-0.898181777272727,-1.17058423527273,-1.42829323527273,-1.69348913527273,-1.84873459027273,3084,"DG_s15",10.386,11.091,13.747,13.749,16,4,10,10,2.656,"Right",16,4,12,12,0,0,0,-12,0,-12,12,12,"Advent",6,-6,10,16,10,4
"99",4,"LIP2-LIP3",1.16379986232323,1.14887416532323,0.830934065323232,0.852224585323232,1.10156613532323,1.20894312232323,1.26780738232323,1.22797999732323,1.08383854732323,1.10722922732323,1.24129281732323,1.00858013232323,0.798248774823232,0.733989974823232,0.675435336823232,0.493710886823232,0.259178294323232,-0.109864255676768,-0.116341677676768,0.429400822323232,3084,"DG_s15",10.386,11.091,13.747,13.749,16,4,10,10,2.656,"Right",16,4,12,12,0,0,0,-12,0,-12,12,12,"Advent",6,-6,10,16,10,4
"100",4,"LHB7-LHB8",-0.633347243517677,-0.595832278517677,-0.497448020267677,-0.599281673767677,-0.116046373767677,0.413191407732323,0.663480608232323,0.747518399232323,0.433662440732323,-0.217956089267677,-0.558110145767677,-0.201590321767677,0.267050236732323,0.692818766732323,1.07083047323232,1.02719752323232,0.651702373232323,0.541976173232323,0.499581723232323,0.193223071882323,3084,"DG_s15",10.386,11.091,13.747,13.749,16,4,10,10,2.656,"Right",16,4,12,12,0,0,0,-12,0,-12,12,12,"Advent",6,-6,10,16,10,4
"101",4,"LAM7-LAM8",-0.588800719272727,-0.522346176772727,-0.565587376772727,-0.750327734772727,-0.799193420772727,-0.599013013272727,-0.186943963272727,0.0914589667272727,0.191947347727273,0.231060947727273,0.181497147727273,0.240379917727273,0.151465375727273,-0.179272324272727,-0.296012808772727,-0.238988508772727,-0.168579469772727,-0.204953959772727,-0.382823675272727,-0.532273483772727,3084,"DG_s15",10.386,11.091,13.747,13.749,16,4,10,10,2.656,"Right",16,4,12,12,0,0,0,-12,0,-12,12,12,"Advent",6,-6,10,16,10,4
"102",4,"LIP4-LIP5",0.267303790353535,0.167129435353535,0.175007135353535,0.0634491853535353,0.124971315353535,0.251937250353535,0.343726685353535,0.614213386853535,0.781409456853535,0.851913542853535,0.843489132853535,0.668032581353535,0.619664600353535,0.732142079353535,0.913964634353535,0.939599763853535,0.680430994853535,0.478057826353535,0.402815075553535,0.408110916053535,3084,"DG_s15",10.386,11.091,13.747,13.749,16,4,10,10,2.656,"Right",16,4,12,12,0,0,0,-12,0,-12,12,12,"Advent",6,-6,10,16,10,4
"103",4,"LIP3-LIP4",-0.51595832510101,-0.44602552510101,-0.41582892510101,-0.35074107510101,-0.32433677510101,-0.30322027510101,-0.23875512510101,-0.29471242510101,-0.28475154760101,0.12836065239899,0.56397255239899,0.85288075989899,0.79234453239899,0.31418183239899,-0.28605296760101,-0.63973882510101,-0.55789667510101,-0.34169527360101,-0.0235709436010101,0.46128525639899,3084,"DG_s15",10.386,11.091,13.747,13.749,16,4,10,10,2.656,"Right",16,4,12,12,0,0,0,-12,0,-12,12,12,"Advent",6,-6,10,16,10,4
"104",4,"LIP6-LIP7",-0.241986857070707,-0.109027107070707,-0.0247125070707071,0.0320254929292929,0.0776837254292929,0.176558605929293,0.314708784429293,0.362163684429293,0.375970271929293,0.332723034929293,0.458141136429293,0.754549936429293,0.790189137929293,0.720610444429293,0.598278164429293,0.347673964429293,0.315092042929293,0.367961882929293,0.251732932929293,0.371514563429293,3084,"DG_s15",10.386,11.091,13.747,13.749,16,4,10,10,2.656,"Right",16,4,12,12,0,0,0,-12,0,-12,12,12,"Advent",6,-6,10,16,10,4
"105",4,"LHH7-LHH8",0.259499623984848,0.297354904984848,-0.0526317605151515,-0.361124847515152,-0.0375479225151515,0.166416970984848,0.340452186484848,0.460352729484848,0.214754954484848,-0.0410985600151515,-0.156965005515152,-0.201363491515152,-0.284532491515152,-0.525275827015152,-0.734561281515151,-0.784551106515151,-0.703104296515151,-0.387657112515152,-0.0825376625151515,-0.0877997775151515,3084,"DG_s15",10.386,11.091,13.747,13.749,16,4,10,10,2.656,"Right",16,4,12,12,0,0,0,-12,0,-12,12,12,"Advent",6,-6,10,16,10,4
"106",4,"LHB6-LHB7",-0.946473682545454,-0.680332452545454,-0.664262212545454,-0.874051737545455,-0.721004787545454,-0.444712087545455,-0.190422879545454,-0.0659393875454545,-0.397129987545454,-0.915159087545454,-1.32992298754545,-1.42843379054545,-1.25886669554545,-1.08977849554545,-0.856145445545454,-0.653807609545454,-0.722925447045454,-0.843127787045455,-0.937159372045455,-1.19426097204545,3084,"DG_s15",10.386,11.091,13.747,13.749,16,4,10,10,2.656,"Right",16,4,12,12,0,0,0,-12,0,-12,12,12,"Advent",6,-6,10,16,10,4
"107",4,"LAM9-LAM10",1.34215585909596,1.34455974959596,0.992579699595959,0.85077249959596,1.01536555959596,1.02630680959596,1.06551930959596,1.03792205109596,0.77123279109596,0.80791015109596,0.92569565109596,0.83471562859596,0.939815351095959,0.81053055459596,0.61510475359596,0.65689061759596,0.45640705509596,0.36064007909596,0.47807733009596,0.57702579709596,3084,"DG_s15",10.386,11.091,13.747,13.749,16,4,10,10,2.656,"Right",16,4,12,12,0,0,0,-12,0,-12,12,12,"Advent",6,-6,10,16,10,4
"108",4,"LIP8-LIP9",-0.167442850950505,0.211537829149495,0.439070724949495,0.345015919949495,0.111194469949495,-0.272599365050505,-0.673532665050505,-0.656863920550505,-0.748737473050505,-0.853055348050505,-0.495949723050505,-0.131676642550505,0.146065359949495,0.134691947449495,-0.199169527550505,-0.666620027550505,-0.984217957550505,-0.933165630050505,-0.949588780050505,-0.789237348550505,3084,"DG_s15",10.386,11.091,13.747,13.749,16,4,10,10,2.656,"Right",16,4,12,12,0,0,0,-12,0,-12,12,12,"Advent",6,-6,10,16,10,4
"109",4,"LHH6-LHH7",0.199358166388889,0.241066142888889,-0.0336494171111111,-0.439341467111111,-0.778475422111111,-0.622578928111111,-0.395884578111111,-0.264081593111111,0.0489441068888889,0.274790773888889,0.470965673888889,0.780388238888889,0.827811738888889,0.552949566688889,0.228754096138889,-0.174243650161111,-0.489479240161111,-0.338767849961111,0.0180746205888889,0.435481866888889,3084,"DG_s15",10.386,11.091,13.747,13.749,16,4,10,10,2.656,"Right",16,4,12,12,0,0,0,-12,0,-12,12,12,"Advent",6,-6,10,16,10,4
"110",4,"LTT9-LTT10",1.98793183891919,1.46139639541919,0.446591270419192,-0.305182944580808,0.0306810084191919,0.531935401919192,0.680685004219192,0.631202704219192,0.180852774219192,-0.364313375780808,-0.572705253080808,-0.470146463380808,-0.135036833380808,0.215467016619192,0.574910016619192,0.843734741919192,0.729755641919192,0.552816091919192,0.549009891919192,0.419339141919192,3084,"DG_s15",10.386,11.091,13.747,13.749,16,4,10,10,2.656,"Right",16,4,12,12,0,0,0,-12,0,-12,12,12,"Advent",6,-6,10,16,10,4
"111",4,"LAM5-LAM6",-0.584146946308081,-0.299376331308081,-0.246476581308081,-0.210900156808081,0.179096299191919,0.261004819191919,-0.0266337677580808,-0.296819117758081,-0.616508329758081,-0.584873229758081,-0.192994692808081,0.0143483171919192,0.0253763791919192,-0.425171520808081,-0.917741270808081,-0.961774629808081,-0.999570729808081,-1.04032497980808,-0.958285379808081,-0.960605239308081,3084,"DG_s15",10.386,11.091,13.747,13.749,16,4,10,10,2.656,"Right",16,4,12,12,0,0,0,-12,0,-12,12,12,"Advent",6,-6,10,16,10,4
"112",4,"LIP5-LIP6",0.433790081777778,0.274592657277778,0.141619557277778,0.251209807277778,0.221799403277778,0.217394292777778,0.309125651027778,0.390808270527778,0.412669695527778,0.391772680527778,0.346100522277778,0.229176952777778,0.123915477777778,0.0861811277777778,0.0936183332777777,0.256724878277778,0.421091579477778,0.397958379477778,0.325306023977778,0.241616118977778,3084,"DG_s15",10.386,11.091,13.747,13.749,16,4,10,10,2.656,"Right",16,4,12,12,0,0,0,-12,0,-12,12,12,"Advent",6,-6,10,16,10,4
"113",4,"LHB5-LHB6",-0.14058701429798,-0.0893000307979798,-0.33731588579798,-0.64705668579798,-0.85696103579798,-0.89066947979798,-0.79055697979798,-0.81198632979798,-0.81231159029798,-0.64460926529798,-0.35863911529798,-0.12495921529798,-0.12845340929798,-0.33296288429798,-0.50346286879798,-0.56549271879798,-0.53271708279798,-0.40794312894798,-0.22266584444798,-0.0439112444479798,3084,"DG_s15",10.386,11.091,13.747,13.749,16,4,10,10,2.656,"Right",16,4,12,12,0,0,0,-12,0,-12,12,12,"Advent",6,-6,10,16,10,4
"114",4,"LTT8-LTT9",1.18745803484848,1.33488988484848,1.49204958484848,1.57437968484848,1.59513473484848,1.43570413484848,1.13990745484848,0.853615576348485,0.596599976348485,0.334926876348485,0.149371906348485,0.0984529348484848,0.116549884848485,0.154888884848485,0.202579784848485,0.216503134848485,0.196479234848485,0.162570434848485,0.269670705848485,0.456117305848485,3084,"DG_s15",10.386,11.091,13.747,13.749,16,4,10,10,2.656,"Right",16,4,12,12,0,0,0,-12,0,-12,12,12,"Advent",6,-6,10,16,10,4
"115",4,"LIP7-LIP8",0.141023909758586,0.0885488097585859,0.117792598858586,0.181755453858586,0.105005449358586,0.0359871493585859,0.0417810103585859,-0.0551822446414141,-0.206057910141414,-0.354781210141414,0.0410732358585859,0.915493735858586,1.53381258585859,1.64766738985859,1.20323373985859,0.413303739858586,-0.177146410141414,-0.259357714141414,-0.215487813141414,0.0757230868585859,3084,"DG_s15",10.386,11.091,13.747,13.749,16,4,10,10,2.656,"Right",16,4,12,12,0,0,0,-12,0,-12,12,12,"Advent",6,-6,10,16,10,4
"116",4,"LAM6-LAM7",0.355776641368687,0.261901436368687,-0.0206597136313131,-0.309992663631313,-0.122280865631313,0.180941034368687,0.406499884368687,0.651016034368687,0.767248136868687,0.685582886868687,0.643550736868687,0.814976936868687,0.904025136868687,0.892329686868687,0.929623236868687,0.762281886868687,0.412696716868687,0.319907032868687,0.346984682868687,0.340406557868687,3084,"DG_s15",10.386,11.091,13.747,13.749,16,4,10,10,2.656,"Right",16,4,12,12,0,0,0,-12,0,-12,12,12,"Advent",6,-6,10,16,10,4
"117",5,"LHB8-LHB9",-0.38271980179798,-0.64538290179798,-0.81502423579798,-0.91763106579798,-0.97034270779798,-0.95780420529798,-0.79406087129798,-0.66408469129798,-0.51767147729798,-0.29971367979798,-0.54836171479798,-0.55127016979798,-0.19044761979798,-0.16386621929798,-0.18626798429798,-0.36923898829798,-0.97311268829798,-1.20546091279798,-0.94645436279798,-0.81969555379798,3085,"DG_s15",14.75,15.456,17.897,17.899,10,10,6,6,2.441,"Right",6,6,0,0,0,0,0,0,0,0,0,0,"10-10",4,4,6,10,6,10
"118",5,"LAM4-LAM5",-0.588183996994949,-0.53660674999495,-0.486566849994949,-0.262687991994949,-0.28024450149495,-0.270423632994949,0.0098613020050505,0.19245314400505,0.314765351005051,0.395681690505051,0.274582427505051,0.315519127505051,0.75606737750505,1.05765462250505,1.02146267350505,0.91729967350505,0.458902992005051,0.0740610665050505,0.293944193505051,0.427776393505051,3085,"DG_s15",14.75,15.456,17.897,17.899,10,10,6,6,2.441,"Right",6,6,0,0,0,0,0,0,0,0,0,0,"10-10",4,4,6,10,6,10
"119",5,"LIP1-LIP2",-0.519880004439394,-0.745862004439394,-0.890563595789394,-0.875689135289394,-0.696711585289394,-0.710360609789394,-0.783193852439394,-0.776865617439394,-0.875448310939394,-0.654734886439394,-0.487403852439394,-0.407619637439394,0.101591056060606,0.517058256060606,0.635802306060606,0.526416756060606,0.084395806060606,-0.316772593939394,-0.428809143939394,-0.234157993939394,3085,"DG_s15",14.75,15.456,17.897,17.899,10,10,6,6,2.441,"Right",6,6,0,0,0,0,0,0,0,0,0,0,"10-10",4,4,6,10,6,10
"120",5,"LAM3-LAM4",0.0957014405,0.5399099905,0.5212537545,0.0686264045,-0.3285486585,-0.4042865085,-0.204052713,0.01326405,-0.109505312,-0.480374562,-0.7301886275,-0.5505743405,-0.0414134155,0.3850499845,0.4862654,0.19396473,-0.41699632,-0.58866217,-0.29274362,0.16270695,3085,"DG_s15",14.75,15.456,17.897,17.899,10,10,6,6,2.441,"Right",6,6,0,0,0,0,0,0,0,0,0,0,"10-10",4,4,6,10,6,10
"121",5,"LAM1-LAM2",-0.497157572020202,-0.502859720520202,-0.497443658020202,-0.459695732520202,0.044140067479798,0.740650965979798,1.4788469234798,1.9554269979798,1.7421700979798,1.2844303479798,0.724827197979798,0.194655477979798,-0.117612572020202,-0.325448731020202,-0.323298431020202,-0.100878927020202,-0.146464527020202,-0.333873918020202,-0.606216668020202,-0.935950552020202,3085,"DG_s15",14.75,15.456,17.897,17.899,10,10,6,6,2.441,"Right",6,6,0,0,0,0,0,0,0,0,0,0,"10-10",4,4,6,10,6,10
"122",5,"LIP5-LIP6",-0.610355682318182,-0.855244782318182,-0.925354656818182,-0.791444629068182,-0.742624915068182,-0.612149883568182,-0.473397508568182,-0.394363136318182,-0.413235445318182,-0.573108476818182,-0.637071771818182,-0.512986471818182,-0.0632670768181818,0.523996273181818,0.819869318181818,0.810707918181818,0.550795718181818,0.242111068181818,0.103444668181818,0.164231518181818,3085,"DG_s15",14.75,15.456,17.897,17.899,10,10,6,6,2.441,"Right",6,6,0,0,0,0,0,0,0,0,0,0,"10-10",4,4,6,10,6,10
"123",5,"LAM9-LAM10",0.363190554136364,0.533893513636364,0.271377913636364,-0.0397846775136363,-0.427888491013636,-0.715777391013636,-0.535317086513636,-0.411493845363636,-0.309605661863636,-0.0816586018636364,0.0435860936363637,0.229926393636364,0.502912073636364,0.597408263636364,0.407536771136364,0.0561954711363636,-0.334532528863636,-0.673711478863636,-0.906217636363636,-1.01312693636364,3085,"DG_s15",14.75,15.456,17.897,17.899,10,10,6,6,2.441,"Right",6,6,0,0,0,0,0,0,0,0,0,0,"10-10",4,4,6,10,6,10
"124",5,"LHB9-LHB10",-1.08974084146465,-1.16473036146465,-0.985802893914646,-0.775035498914647,-0.627076783914646,-0.740623317414646,-0.849498486464647,-0.671740731464647,-0.445404381464647,-0.103966597964646,0.414683053535354,0.691402153535354,0.631385203535353,0.435771609035354,0.354522109035354,0.231912109035353,0.137961638035353,-0.0193283224646466,-0.268458194964647,-0.455110694964647,3085,"DG_s15",14.75,15.456,17.897,17.899,10,10,6,6,2.441,"Right",6,6,0,0,0,0,0,0,0,0,0,0,"10-10",4,4,6,10,6,10
"125",5,"LAM8-LAM9",-0.403025526924242,-0.384222021924242,-0.295894604924242,-0.200174704924242,-0.199629088124242,0.0451842818757576,0.216800281875758,0.138969997875758,0.102926007575758,0.213093182575758,0.313571382575758,0.295132181575758,0.225351867575758,0.177510667575758,-0.116093662424242,-0.373634777424242,-0.381968922424242,-0.652465697424242,-0.687272654924242,-0.446605074924242,3085,"DG_s15",14.75,15.456,17.897,17.899,10,10,6,6,2.441,"Right",6,6,0,0,0,0,0,0,0,0,0,0,"10-10",4,4,6,10,6,10
"126",5,"LIP2-LIP3",-1.7124511784899,-1.8827130084899,-2.0570080334899,-2.2503621039899,-2.2213937539899,-2.3584537739899,-2.2869578669899,-1.8471308169899,-1.4236412169899,-0.899944866989899,-0.513256798989899,-0.507961608989899,-0.745540065989899,-0.927298450989899,-1.1797439509899,-1.5443719509899,-1.4126333739899,-1.2414827889899,-1.3468167789899,-1.2329391139899,3085,"DG_s15",14.75,15.456,17.897,17.899,10,10,6,6,2.441,"Right",6,6,0,0,0,0,0,0,0,0,0,0,"10-10",4,4,6,10,6,10
"127",5,"LHH5-LHH6",-0.261166787808081,-0.278330575308081,-0.343356600308081,-0.0812510058080808,-0.00288360580808078,-0.0558455838080808,-0.111841393808081,-0.306953007508081,-0.431111107508081,-0.295423494508081,-0.227867864008081,-0.330452982308081,-0.175225082308081,-0.218560295808081,-0.221179081308081,0.184296900691919,0.223508900691919,0.0901491126919192,0.116428378191919,-0.101020421808081,3085,"DG_s15",14.75,15.456,17.897,17.899,10,10,6,6,2.441,"Right",6,6,0,0,0,0,0,0,0,0,0,0,"10-10",4,4,6,10,6,10
"128",5,"LAM5-LAM6",0.121318275378788,-0.181151674621212,-0.181867092121212,0.362906657878788,0.792014507878788,0.934447626878788,0.812130236878788,0.429554242078788,-0.0789895579212121,-0.0635693194212121,0.224601290578788,0.532522435378788,0.960641735378788,1.21930992787879,1.31926257787879,1.09189974287879,0.621879542878788,0.324017226378788,0.128410476378788,0.200591161378788,3085,"DG_s15",14.75,15.456,17.897,17.899,10,10,6,6,2.441,"Right",6,6,0,0,0,0,0,0,0,0,0,0,"10-10",4,4,6,10,6,10
"129",5,"LHH4-LHH5",0.157366815041414,0.190843930541414,0.270893270041414,0.148186143641414,0.0141629536414141,-0.0441907348585859,0.0212400256414141,0.200648998141414,0.192593048141414,0.0408336866414141,-0.0536749774585858,-0.240042449958586,-0.234775063958586,-0.0754385344585859,-0.155419761358586,-0.189987261358586,-0.194908597358586,-0.351223426858586,-0.460277585858586,-0.285583410258586,3085,"DG_s15",14.75,15.456,17.897,17.899,10,10,6,6,2.441,"Right",6,6,0,0,0,0,0,0,0,0,0,0,"10-10",4,4,6,10,6,10
"130",5,"LIP4-LIP5",0.178509353532323,0.179500672532323,-0.0578632227676768,-0.322423222767677,-0.608396472767677,-0.820304676767677,-0.827176226767677,-0.762651371767677,-0.363714271767677,0.277453678232323,0.747801028232323,0.850711976732323,0.488205976732323,-0.0341613732676768,-0.325502658267677,-0.292375901267677,-0.158918006217677,-0.0826801262176768,0.0395599197823232,0.215647259282323,3085,"DG_s15",14.75,15.456,17.897,17.899,10,10,6,6,2.441,"Right",6,6,0,0,0,0,0,0,0,0,0,0,"10-10",4,4,6,10,6,10
"131",5,"LAM2-LAM3",-0.631609385646465,-0.700141387146465,-0.786255937146465,-0.738898425146465,-0.721389025146465,-0.885068685146465,-0.880377135146465,-0.770916999646465,-0.737647019646465,-0.719619689646465,-0.849130638946465,-0.840570003946465,-0.343593583946465,0.100226036053535,0.118880201853535,-0.152863348146465,-0.532501720646465,-0.808700620646465,-0.734871237146465,-0.527300587146465,3085,"DG_s15",14.75,15.456,17.897,17.899,10,10,6,6,2.441,"Right",6,6,0,0,0,0,0,0,0,0,0,0,"10-10",4,4,6,10,6,10
"132",5,"LHB7-LHB8",-1.4029887259596,-1.6117540679596,-1.2262693429596,-0.465427942959596,-0.168978937959596,-0.248689174459596,-0.878939074459596,-1.6554627744596,-1.9102088819596,-1.9178595636596,-1.8399932896596,-1.3619008396596,-0.930693182159596,-0.708083716959596,-0.824217190959596,-1.2048649909596,-1.8547894909596,-2.0923640154596,-1.7174229654596,-1.5305658839596,3085,"DG_s15",14.75,15.456,17.897,17.899,10,10,6,6,2.441,"Right",6,6,0,0,0,0,0,0,0,0,0,0,"10-10",4,4,6,10,6,10
"133",5,"LAM7-LAM8",0.360266462915859,0.609114712915859,0.626236130085859,0.393703780085859,0.223607102085859,0.231250502085859,0.308353060585859,0.417948975585859,0.392620403585859,0.222576903585859,0.0730350235858586,-0.0315399914141414,0.206576626585859,0.636775126585859,0.914158126585858,0.904842903585859,0.567766435585859,0.200188460085859,0.183708010085859,0.620832233085859,3085,"DG_s15",14.75,15.456,17.897,17.899,10,10,6,6,2.441,"Right",6,6,0,0,0,0,0,0,0,0,0,0,"10-10",4,4,6,10,6,10
"134",5,"LIP7-LIP8",-0.359678114252525,-0.254772999752525,0.0603070162474748,0.283621985247475,0.239402961747475,0.336701818747475,0.496425102747475,0.404288852747475,0.377349626247475,0.421600004747475,0.214757492397475,-0.00634246760252524,-0.126368817602525,-0.220675770402525,-0.158775708052525,0.00153835194747476,0.0272686819474748,-0.229732515252525,-0.579893065252525,-0.854643465252525,3085,"DG_s15",14.75,15.456,17.897,17.899,10,10,6,6,2.441,"Right",6,6,0,0,0,0,0,0,0,0,0,0,"10-10",4,4,6,10,6,10
"135",5,"LTT8-LTT9",0.771131894629293,0.952185804629293,1.16920994292929,1.29268679292929,1.39944169292929,1.47281164292929,1.32179366792929,1.14648348092929,1.12296118092929,0.992250325929293,0.830470551429293,0.842381142429293,0.776513677429293,0.597229585429293,0.485438084929293,0.409029710929293,0.355469734929293,0.471504126929293,0.636698617429293,0.612798437429293,3085,"DG_s15",14.75,15.456,17.897,17.899,10,10,6,6,2.441,"Right",6,6,0,0,0,0,0,0,0,0,0,0,"10-10",4,4,6,10,6,10
"136",5,"LIP3-LIP4",-0.728016299727273,-0.731042833927273,-0.836527040927273,-0.858313590927273,-0.993798335927273,-1.01106485172727,-0.959940337727273,-1.28343303772727,-1.49008794272727,-1.24967860672727,-1.11569301172727,-0.830987661727273,-0.489006261727273,-0.380768997727273,-0.356850897727273,-0.533205404227273,-0.885549454227273,-1.11150655422727,-1.35563595422727,-1.36428995662727,3085,"DG_s15",14.75,15.456,17.897,17.899,10,10,6,6,2.441,"Right",6,6,0,0,0,0,0,0,0,0,0,0,"10-10",4,4,6,10,6,10
"137",5,"LHH7-LHH8",-1.43334912494949,-1.37030304144949,-1.26107800994949,-1.21230402494949,-1.09872416994949,-0.881307353449495,-0.890389494449495,-0.875457279449495,-0.951835484449495,-1.21678013444949,-1.19622347094949,-1.14443632744949,-1.09393618344949,-0.740654033449495,-0.490252387449495,-0.322387093449495,-0.378027137449495,-0.762720837449495,-1.15295808744949,-1.35114582494949,3085,"DG_s15",14.75,15.456,17.897,17.899,10,10,6,6,2.441,"Right",6,6,0,0,0,0,0,0,0,0,0,0,"10-10",4,4,6,10,6,10
"138",5,"LHB6-LHB7",-1.29185916688889,-1.46110076038889,-1.44661636438889,-1.19867436438889,-0.930180549388889,-0.831656026388889,-0.986679295888889,-1.03936882888889,-1.10632225838889,-1.24175458638889,-1.12903055188889,-1.14007380338889,-1.12813851388889,-0.971732363338889,-1.01350237793889,-1.10298449343889,-1.18485326843889,-1.25793531898889,-1.23524752888889,-1.21818781638889,3085,"DG_s15",14.75,15.456,17.897,17.899,10,10,6,6,2.441,"Right",6,6,0,0,0,0,0,0,0,0,0,0,"10-10",4,4,6,10,6,10
"139",5,"LAM6-LAM7",0.14197316480303,0.31372532980303,0.23883325280303,0.28773076025303,0.27694628075303,0.15205644810303,0.12760562510303,0.0439344176530303,0.0287577426530303,0.22873421030303,0.43430914530303,0.62534688780303,1.00545465780303,1.20961270780303,1.28126072280303,1.35319473030303,0.97662017830303,0.42746367830303,0.16943577830303,-0.0233404716969697,3085,"DG_s15",14.75,15.456,17.897,17.899,10,10,6,6,2.441,"Right",6,6,0,0,0,0,0,0,0,0,0,0,"10-10",4,4,6,10,6,10
"140",5,"LHB5-LHB6",0.015241631559596,0.249295121059596,0.192320021059596,0.196526045459596,0.341460995459596,0.426449895959596,0.649915738459596,0.893378278459596,0.875412328459596,0.795379738459596,0.790495835809596,0.551816663809596,0.450446463809596,0.389526972809596,0.443905792959596,0.836299814959596,1.1601788149596,1.3616386559596,1.1096677309596,0.574820430959596,3085,"DG_s15",14.75,15.456,17.897,17.899,10,10,6,6,2.441,"Right",6,6,0,0,0,0,0,0,0,0,0,0,"10-10",4,4,6,10,6,10
"141",5,"LHB4-LHB5",-0.53438199010101,-0.51054597760101,-0.48711964210101,-0.56475687960101,-0.55967550160101,-0.71893743460101,-0.68086720010101,-0.25659573510101,-0.0591272981010101,0.06768018489899,0.17113713989899,-0.00245586010101007,-0.0210198101010101,-0.0203063756010101,-0.11311738560101,0.15114366439899,0.50738046439899,0.85436567989899,0.81580319989899,0.22570304989899,3085,"DG_s15",14.75,15.456,17.897,17.899,10,10,6,6,2.441,"Right",6,6,0,0,0,0,0,0,0,0,0,0,"10-10",4,4,6,10,6,10
"142",5,"LTT9-LTT10",1.14797916112677,0.833819462676768,0.437377996676768,0.368732976676768,0.440499082676768,0.510089482676768,0.405293798676768,0.145916548676768,0.0385145176767677,0.0641710176767677,0.126522246676768,0.576058446676768,1.35972524667677,2.10512614667677,2.50386256767677,2.29002281767677,1.65662283767677,0.994034925176768,0.768256455176768,0.907605255176768,3085,"DG_s15",14.75,15.456,17.897,17.899,10,10,6,6,2.441,"Right",6,6,0,0,0,0,0,0,0,0,0,0,"10-10",4,4,6,10,6,10
"143",5,"LHH6-LHH7",-0.0660554120353535,-0.0437018965353535,-0.00158574653535351,0.270990194964646,0.465543014964646,0.418964566964646,0.208084016964647,-0.157525633035354,-0.564822383035354,-0.512289792535354,-0.399438565535354,-0.391620123535354,-0.180194467035354,-0.120201718885354,0.373342754114646,1.06393231211465,1.25523386261465,1.13405453646465,0.762526036464646,0.258267031464646,3085,"DG_s15",14.75,15.456,17.897,17.899,10,10,6,6,2.441,"Right",6,6,0,0,0,0,0,0,0,0,0,0,"10-10",4,4,6,10,6,10
"144",5,"LIP6-LIP7",-0.265544677691919,-0.418318121191919,-0.386811787691919,-0.314561606191919,-0.398344156191919,-0.430464243191919,-0.256030568191919,0.119717350308081,0.524389250308081,0.480298733308081,0.0555615833080808,-0.222527018691919,-0.207509718691919,0.0724263288080808,0.396329028808081,0.432891180808081,0.317769180808081,0.176909630808081,0.0617340373080808,-0.0337164626919192,3085,"DG_s15",14.75,15.456,17.897,17.899,10,10,6,6,2.441,"Right",6,6,0,0,0,0,0,0,0,0,0,0,"10-10",4,4,6,10,6,10
"145",5,"LIP8-LIP9",-0.724306234141414,-0.805791064141414,-0.594000786141414,-0.295349736141414,-0.175378636641414,-0.122205291641414,-0.232740951041414,-0.508555091041414,-0.447963995541414,-0.204314240541414,-0.290155205141414,-0.403871465141414,-0.605836710141414,-0.767380822141414,-0.529341926141414,-0.139142126141414,0.0915464738585859,-0.0311467941414141,-0.428234344141414,-0.802988244141414,3085,"DG_s15",14.75,15.456,17.897,17.899,10,10,6,6,2.441,"Right",6,6,0,0,0,0,0,0,0,0,0,0,"10-10",4,4,6,10,6,10
"146",6,"LAM8-LAM9",0.252309258025253,0.318481937525253,0.381111457525253,0.555325689025253,0.449733294025253,0.355285876525253,0.507181816525253,0.740362735025253,0.936663785025253,0.929116588525253,0.620827338525253,0.316603788525253,0.134742438525253,0.101518265525253,0.371831265525253,0.800506515525253,1.14608316552525,1.37916955252525,1.53009705252525,1.38531847752525,3086,"DG_s15",18.9,19.605,22.571,22.573,10,10,8,11,2.966,"Right",8,11,3,0,3,3,3,0,0,0,-3,0,"10-10",2,-1,8,10,11,10
"147",6,"LHB9-LHB10",0.0824994579696969,0.256407757969697,0.403109463969697,0.344011053969697,0.220202750469697,0.176558050469697,0.179249042869697,0.240573742869697,0.174809480369697,0.148219371869697,0.261064673469697,0.422867481969697,0.464144461969697,0.250637820469697,-0.069064779530303,-0.194582088030303,-0.247251418030303,-0.205693068030303,-0.000814318030303074,-0.084299568030303,3086,"DG_s15",18.9,19.605,22.571,22.573,10,10,8,11,2.966,"Right",8,11,3,0,3,3,3,0,0,0,-3,0,"10-10",2,-1,8,10,11,10
"148",6,"LHH4-LHH5",-0.596887422631313,-0.274057278631313,-0.187225488981313,-0.582299703481313,-1.09220982748131,-1.27263352748131,-1.17903776063131,-1.23540796063131,-1.29986758663131,-1.23738294363131,-0.842319620131313,-0.241692770131313,-0.114045872131313,-0.290855413631313,-0.659206063631313,-0.903080913631313,-0.583564461631313,-0.263031863131313,-0.323521353131313,-0.174333803131313,3086,"DG_s15",18.9,19.605,22.571,22.573,10,10,8,11,2.966,"Right",8,11,3,0,3,3,3,0,0,0,-3,0,"10-10",2,-1,8,10,11,10
"149",6,"LAM1-LAM2",-0.613756665217172,-0.640258593117172,-0.450905782617172,-0.313795607117172,-0.0505833571171717,0.193018014282828,0.434296753782828,0.559481278282828,0.346840786182828,-0.0698124138171717,-0.492285513817172,-0.794951563817172,-0.921405321717172,-0.836014671717172,-0.643165301717172,-0.555713651717172,-0.650217001717172,-0.681641451717172,-0.691685473217172,-0.461582693217172,3086,"DG_s15",18.9,19.605,22.571,22.573,10,10,8,11,2.966,"Right",8,11,3,0,3,3,3,0,0,0,-3,0,"10-10",2,-1,8,10,11,10
"150",6,"LHB8-LHB9",0.585902647848485,1.07920574784848,1.36222908134848,1.22239586834848,0.969971768348485,0.765822218348485,0.745177176348485,0.815860536348485,0.420981936348485,-0.00297666365151511,-0.121488482101515,0.0525113578984849,0.310506044898485,0.337395444898485,0.0874826718484848,-0.218918828151515,-0.260835756151515,0.00576420884848489,0.503778158848485,1.08421230884848,3086,"DG_s15",18.9,19.605,22.571,22.573,10,10,8,11,2.966,"Right",8,11,3,0,3,3,3,0,0,0,-3,0,"10-10",2,-1,8,10,11,10
"151",6,"LAM3-LAM4",0.569299540838384,0.794577868838384,1.26117758883838,1.44876178883838,1.38305713883838,1.08705261883838,0.562749868838384,0.138701815838384,0.0122043683383838,0.109746182838384,0.0917089828383838,0.0364775858383838,-0.0209937374166162,-0.0609220419166162,0.0882911457383838,0.222920194488384,0.519133165243384,0.894708825243384,1.16694358758838,1.26552228883838,3086,"DG_s15",18.9,19.605,22.571,22.573,10,10,8,11,2.966,"Right",8,11,3,0,3,3,3,0,0,0,-3,0,"10-10",2,-1,8,10,11,10
"152",6,"LIP4-LIP5",-1.02260352139394,-0.958492814393939,-0.809070223893939,-0.542456973893939,-0.461560166893939,-0.436539682393939,-0.507971674393939,-0.546973264393939,-0.474106864393939,-0.511855150893939,-0.679118749393939,-0.821958490893939,-0.909442135893939,-0.783353026193939,-0.718523446193939,-0.602436206193939,-0.455847311193939,-0.440826600893939,-0.277240280893939,-0.217170039393939,3086,"DG_s15",18.9,19.605,22.571,22.573,10,10,8,11,2.966,"Right",8,11,3,0,3,3,3,0,0,0,-3,0,"10-10",2,-1,8,10,11,10
"153",6,"LIP5-LIP6",0.153154766919192,-0.0336095630808081,-0.0294031665808081,0.0650949334191919,0.0970262684191919,0.129318911169192,-0.0651563353308081,-0.269996121130808,-0.202146431130808,0.107183606119192,0.252697941119192,0.136069200419192,0.210272450419192,0.283550100419192,0.427685265419192,0.630708341919192,0.368438231919192,-0.0996628180808081,-0.318919184580808,-0.239426884580808,3086,"DG_s15",18.9,19.605,22.571,22.573,10,10,8,11,2.966,"Right",8,11,3,0,3,3,3,0,0,0,-3,0,"10-10",2,-1,8,10,11,10
"154",6,"LHH5-LHH6",0.888103927626263,1.51816582762626,1.70129067212626,1.55637260712626,1.13122426112626,0.744992511126263,0.712807551626263,0.726848577626263,0.526379073626263,0.556947302626263,0.831554517626263,1.18325389162626,1.32067800662626,1.16739163562626,0.877915285626263,0.725472685626263,1.01903852062626,1.26094871262626,1.27095976262626,1.37108231262626,3086,"DG_s15",18.9,19.605,22.571,22.573,10,10,8,11,2.966,"Right",8,11,3,0,3,3,3,0,0,0,-3,0,"10-10",2,-1,8,10,11,10
"155",6,"LHB4-LHB5",1.34601778043939,1.58968990743939,1.37587612093939,0.944360152439394,0.687483062439394,0.842107835439394,1.11678948543939,1.15350035693939,0.840848446939394,0.523507443439394,0.454121023439394,0.563910340439394,0.655396894939394,0.580897898439394,0.394718868439394,0.340386766439394,0.601015411939394,0.766007107939394,0.711855157939394,0.746750911439394,3086,"DG_s15",18.9,19.605,22.571,22.573,10,10,8,11,2.966,"Right",8,11,3,0,3,3,3,0,0,0,-3,0,"10-10",2,-1,8,10,11,10
"156",6,"LHH7-LHH8",0.881601559388889,0.721515368368889,0.652088400368889,0.763066067368889,0.783848117368889,0.894237158388889,0.959985150388889,0.754355100888889,0.807155913388889,0.993377613388889,1.24886239638889,1.58965775138889,1.62608903888889,1.72925153888889,1.81968323888889,1.82664558888889,1.82951093888889,1.58224518888889,1.18312289588889,0.795601745888889,3086,"DG_s15",18.9,19.605,22.571,22.573,10,10,8,11,2.966,"Right",8,11,3,0,3,3,3,0,0,0,-3,0,"10-10",2,-1,8,10,11,10
"157",6,"LAM5-LAM6",-0.356406057914141,-0.226195195914141,-0.0987529369141414,0.0897501795858586,0.0492043667858586,-0.0170854452141414,0.0792251662358586,-0.0209449853141414,-0.0768104075141414,-0.0818661075141414,-0.228911877964141,-0.137655624914141,-0.00415437491414142,0.0459211375858586,0.0627393875858586,-0.108799928914141,-0.364731128914141,-0.452365291414141,-0.386272741414141,-0.375373341414141,3086,"DG_s15",18.9,19.605,22.571,22.573,10,10,8,11,2.966,"Right",8,11,3,0,3,3,3,0,0,0,-3,0,"10-10",2,-1,8,10,11,10
"158",6,"LAM2-LAM3",-0.866011245969697,-0.966362196469697,-1.0932881464697,-1.2540154669697,-1.4506735319697,-1.4390977969697,-1.1445167147697,-0.820868264769697,-0.553379214769697,-0.416216814769697,-0.365072746969697,-0.387518796969697,-0.460480989469697,-0.598056489469697,-0.760899981969697,-0.837167526469697,-0.895666928469697,-0.966318178469697,-0.899062942469697,-0.748305397969697,3086,"DG_s15",18.9,19.605,22.571,22.573,10,10,8,11,2.966,"Right",8,11,3,0,3,3,3,0,0,0,-3,0,"10-10",2,-1,8,10,11,10
"159",6,"LHB7-LHB8",1.15095752631313,1.39117062631313,1.49467627831313,1.21524215331313,0.741366353313131,0.477688053313131,0.468633476313131,0.502503826313131,0.501331876313131,0.409340576313131,0.343263731313131,0.446178945463131,0.656516555463131,0.859751150463131,1.03867935046313,1.18191158631313,1.21750322631313,1.21047335031313,1.19562255031313,1.11994024031313,3086,"DG_s15",18.9,19.605,22.571,22.573,10,10,8,11,2.966,"Right",8,11,3,0,3,3,3,0,0,0,-3,0,"10-10",2,-1,8,10,11,10
"160",6,"LIP7-LIP8",0.886257907575758,0.677270118075758,0.567309485025758,0.700562524525758,0.971446624525758,1.20180991052576,1.32921756857576,1.56009351857576,1.88827481857576,2.08722183957576,1.83076425957576,1.59682986707576,1.48589186707576,1.35906131007576,1.36656765107576,1.43031039357576,1.36884169357576,1.45791434357576,1.53446935357576,1.12726525357576,3086,"DG_s15",18.9,19.605,22.571,22.573,10,10,8,11,2.966,"Right",8,11,3,0,3,3,3,0,0,0,-3,0,"10-10",2,-1,8,10,11,10
"161",6,"LHB6-LHB7",0.718733159489899,0.796638822989899,0.742403672989899,0.365632627489899,-0.038482772510101,-0.192912201010101,-0.115124751010101,-0.0156656010101009,0.036160948989899,0.077635698989899,0.247582489489899,0.411421389989899,0.567818159489899,0.830162059489899,0.959301218989899,1.1193269184899,1.3701170489899,1.3700852489899,1.1301241889899,0.879487573489899,3086,"DG_s15",18.9,19.605,22.571,22.573,10,10,8,11,2.966,"Right",8,11,3,0,3,3,3,0,0,0,-3,0,"10-10",2,-1,8,10,11,10
"162",6,"LIP3-LIP4",0.315952326888889,-0.109944323111111,-0.307212588611111,0.0277505233888889,0.391127223388889,0.611127814888889,0.568832825388889,0.524801975388889,0.463763025388889,0.317490110888889,0.0735799658888889,-0.134524235111111,-0.181944385111111,-0.130655807611111,0.117798309388889,0.311080760388889,0.280313533388889,0.307089626388889,0.337343851788889,0.104053651788889,3086,"DG_s15",18.9,19.605,22.571,22.573,10,10,8,11,2.966,"Right",8,11,3,0,3,3,3,0,0,0,-3,0,"10-10",2,-1,8,10,11,10
"163",6,"LIP2-LIP3",-0.924468309815152,-0.742230067815152,-0.626462054815152,-0.821636399815152,-0.920484608015152,-0.869835552515152,-0.936607214715152,-0.794422688715152,-0.627775894715152,-0.673480697215152,-0.677024751515152,-0.750916262515152,-0.968508706515152,-1.01034698151515,-0.945849869515152,-0.835239538515152,-0.670543988515152,-0.685926808515152,-0.835724470515152,-1.03691825151515,3086,"DG_s15",18.9,19.605,22.571,22.573,10,10,8,11,2.966,"Right",8,11,3,0,3,3,3,0,0,0,-3,0,"10-10",2,-1,8,10,11,10
"164",6,"LTT9-LTT10",0.606567244802525,0.778490255252525,1.11324010525253,1.25128972525253,1.01514492525253,0.781891500252525,0.531104650252525,0.218837512252525,0.0115933217525253,-0.0168624032474747,-0.0167096032474748,-0.0679130052474747,-0.0336898147474747,-0.00474303474747476,-0.137594434747475,-0.367946444747475,-0.486440690747475,-0.238919570747475,0.300082379252525,0.705677049252525,3086,"DG_s15",18.9,19.605,22.571,22.573,10,10,8,11,2.966,"Right",8,11,3,0,3,3,3,0,0,0,-3,0,"10-10",2,-1,8,10,11,10
"165",6,"LAM4-LAM5",0.783735349930808,0.926006766180808,0.950608716180808,0.875523776080808,0.862418611080808,0.371467161080808,-0.138173338919192,-0.351716541919192,-0.384772541919192,-0.320827141919192,-0.278289891919192,-0.214784046919192,0.0217894855808081,0.263439008080808,0.411177778080808,0.502576568080808,0.523869235580808,0.656311113080808,0.961974793080808,1.27985850808081,3086,"DG_s15",18.9,19.605,22.571,22.573,10,10,8,11,2.966,"Right",8,11,3,0,3,3,3,0,0,0,-3,0,"10-10",2,-1,8,10,11,10
"166",6,"LAM9-LAM10",1.25668575712121,1.94707061212121,2.35597766212121,2.48138221212121,2.07321279062121,1.53730436062121,1.21523896062121,1.08262449862121,1.02825797012121,0.910976650121212,0.599357450121212,0.342068262121212,0.476444054221212,0.605756204221212,0.776690404221212,0.997896304221212,1.25330071212121,1.57135881212121,1.72111911212121,1.59241858462121,3086,"DG_s15",18.9,19.605,22.571,22.573,10,10,8,11,2.966,"Right",8,11,3,0,3,3,3,0,0,0,-3,0,"10-10",2,-1,8,10,11,10
"167",6,"LAM6-LAM7",0.779047644646465,1.26741274464646,1.58537161464646,1.65544476164646,1.71373322664646,1.26467077664646,0.695276276646465,0.589985215046465,0.665666327546465,0.653186177546465,0.895714208596465,0.979244198196465,1.09340649569646,1.41057704569646,1.44870971464646,1.37637653964646,1.26958663464646,1.05228741764646,0.888893967646465,0.877237131496465,3086,"DG_s15",18.9,19.605,22.571,22.573,10,10,8,11,2.966,"Right",8,11,3,0,3,3,3,0,0,0,-3,0,"10-10",2,-1,8,10,11,10
"168",6,"LIP1-LIP2",0.480965008080808,0.192070358080808,-0.0686458919191919,-0.128979841919192,-0.287628998419192,-0.530882998419192,-0.608764563419192,-0.731710488419192,-0.776264806919192,-0.775222906919192,-0.994347291919192,-1.30029711691919,-1.47004194191919,-1.24521972441919,-0.637510624419192,0.00940312558080802,0.330058225580808,0.233867773080808,-0.0572930269191919,-0.328093126919192,3086,"DG_s15",18.9,19.605,22.571,22.573,10,10,8,11,2.966,"Right",8,11,3,0,3,3,3,0,0,0,-3,0,"10-10",2,-1,8,10,11,10
"169",6,"LIP6-LIP7",0.577879302691919,0.389387388191919,0.192381708691919,0.375592728691919,0.380581899191919,0.235934013691919,0.269083507691919,0.372729787691919,0.768283910191919,1.38339906019192,1.52800434919192,1.34324357919192,1.24438557919192,0.990937949191919,0.891582169191919,0.976086039191919,0.718113839191919,0.593668119191919,0.808895419191919,0.937158869191919,3086,"DG_s15",18.9,19.605,22.571,22.573,10,10,8,11,2.966,"Right",8,11,3,0,3,3,3,0,0,0,-3,0,"10-10",2,-1,8,10,11,10
"170",6,"LAM7-LAM8",0.0698091272727273,0.242871946772727,0.529265746772727,0.688682921772727,0.761992269772727,0.595591350272727,0.293395150272727,0.159266075272727,0.0995212272727273,0.0645909272727272,0.234346644772727,0.360100444772727,0.580997694772727,0.922483744772727,1.05241932727273,1.28963417727273,1.52287407727273,1.45009807727273,1.37504577727273,1.27948157727273,3086,"DG_s15",18.9,19.605,22.571,22.573,10,10,8,11,2.966,"Right",8,11,3,0,3,3,3,0,0,0,-3,0,"10-10",2,-1,8,10,11,10
"171",6,"LIP8-LIP9",1.75272419774949,2.06266144494949,1.9631033449495,1.68508694494949,1.45339294494949,1.2777061849495,1.06958632444949,0.725191374449495,0.384805024449495,0.109827784449495,0.232778644449495,0.887773844449495,1.5608791944495,1.86749851444949,1.83224025994949,1.80278680994949,1.68845930994949,1.68521275564949,1.62325001064949,1.47267251064949,3086,"DG_s15",18.9,19.605,22.571,22.573,10,10,8,11,2.966,"Right",8,11,3,0,3,3,3,0,0,0,-3,0,"10-10",2,-1,8,10,11,10
"172",6,"LHH6-LHH7",0.576644532373737,0.752560157373737,0.772027606373737,0.562307916373737,0.341110516373737,0.260243956373737,0.228332552373737,0.181392752373737,0.279472776373737,0.355511461373737,0.511507161373737,0.743537561373737,0.943151437373737,1.23688153737374,1.34655026187374,1.13566938687374,0.890444620373737,0.609861420373737,0.533542545873737,0.852592020873737,3086,"DG_s15",18.9,19.605,22.571,22.573,10,10,8,11,2.966,"Right",8,11,3,0,3,3,3,0,0,0,-3,0,"10-10",2,-1,8,10,11,10
"173",6,"LHB5-LHB6",0.83989372779798,0.99056643129798,1.04681854829798,0.90390723104798,0.65446969104798,0.62695338254798,0.81357104754798,0.89402752979798,0.75554571329798,0.59504339729798,0.62804324729798,0.72223250729798,0.66027716179798,0.79091986779798,0.77640406779798,0.46839451279798,0.68974104829798,0.79259450829798,0.52328620829798,0.65115889629798,3086,"DG_s15",18.9,19.605,22.571,22.573,10,10,8,11,2.966,"Right",8,11,3,0,3,3,3,0,0,0,-3,0,"10-10",2,-1,8,10,11,10
"174",6,"LTT8-LTT9",0.691384935636364,0.472144928136364,0.0269615631363636,-0.200680106363636,-0.0482997608636364,-0.0424213470136364,0.201932467986364,0.581756247986364,0.768691002486364,0.725194829636364,0.474116152636364,0.219753307636364,0.109939407636364,0.119752418636364,0.00524774563636364,-0.0375946248636364,-0.0428811642136364,-0.0337867612136364,0.254160315286364,0.403316480786364,3086,"DG_s15",18.9,19.605,22.571,22.573,10,10,8,11,2.966,"Right",8,11,3,0,3,3,3,0,0,0,-3,0,"10-10",2,-1,8,10,11,10
"175",7,"LHB7-LHB8",0.689529983353535,0.468438890353535,0.244006825353535,0.248644075353535,0.482194720353535,0.563924099853535,0.417691814853535,0.250558985853535,0.0731898108535353,0.173885469353535,0.485911469353535,0.681664548353535,0.793994800353535,0.742724612353535,0.393758612353535,0.0524875123535353,-0.0176549446464647,-0.0401408396464646,-0.00451593964646468,0.0667104103535353,3087,"DG_s15",23.575,24.28,26.332,26.334,28,4,10,10,2.052,"Left",28,4,24,24,0,0,0,-24,0,-24,24,24,"Advent",18,-6,28,10,4,10
"176",7,"LHH7-LHH8",0.528531989676768,0.546392139676768,0.479664122176768,0.361044007176768,0.178245517676768,0.145074217676768,0.129714902676768,-0.0172745323232324,0.0894844076767677,0.268549656176768,0.325830829676768,0.602529527176768,0.971599087176768,1.13206760867677,0.980045085176768,0.840189980076768,0.573140127626768,0.288453557626768,0.229061207626768,0.0866423652267676,3087,"DG_s15",23.575,24.28,26.332,26.334,28,4,10,10,2.052,"Left",28,4,24,24,0,0,0,-24,0,-24,24,24,"Advent",18,-6,28,10,4,10
"177",7,"LHB8-LHB9",0.501937118090909,0.439134028590909,0.758618926590909,1.10235710659091,0.961670456590909,1.04875849659091,0.673158231590909,-0.0447756184090909,-0.447331268409091,-0.657853690909091,-0.537512512859091,-0.336958548859091,-0.388161548859091,-0.476507848859091,-0.558680726909091,-0.624201290909091,-0.553276740909091,-0.487551390909091,-0.635285690909091,-0.737054640909091,3087,"DG_s15",23.575,24.28,26.332,26.334,28,4,10,10,2.052,"Left",28,4,24,24,0,0,0,-24,0,-24,24,24,"Advent",18,-6,28,10,4,10
"178",7,"LHB9-LHB10",0.541283878201515,0.669437729201515,0.536263697701515,0.282228229151515,0.216456383651515,-0.179155266348485,-0.345667292348485,-0.0697041423484848,0.105614935151515,0.154601385151515,0.0682401426515152,-0.186533207348485,-0.353930384848485,-0.246041094848485,-0.0841039607984848,0.00698158420151518,0.0237493842015152,0.0744627727015152,0.00209245365151517,-0.101544391348485,3087,"DG_s15",23.575,24.28,26.332,26.334,28,4,10,10,2.052,"Left",28,4,24,24,0,0,0,-24,0,-24,24,24,"Advent",18,-6,28,10,4,10
"179",7,"LAM4-LAM5",0.618023271242424,0.401610266242424,0.275460084242424,0.614556159242424,0.450503657692424,0.360178363192424,0.541864123192424,0.385265702692424,0.212969337242424,0.0619016367424242,-0.0794013767575757,-0.0550017562575758,0.0930853992424242,0.158977749242424,0.0418261127424243,-0.129385587257576,-0.255034175757576,-0.229951775757576,-0.193359625757576,-0.328531575757576,3087,"DG_s15",23.575,24.28,26.332,26.334,28,4,10,10,2.052,"Left",28,4,24,24,0,0,0,-24,0,-24,24,24,"Advent",18,-6,28,10,4,10
"180",7,"LIP7-LIP8",0.113306678090909,0.242300378090909,0.177573909090909,0.336937431950909,0.601931331950909,0.834305631950909,1.11321453195091,1.15227467609091,0.854886376090909,0.551605176090909,0.277213576090909,0.00416770909090913,0.0720636155909091,0.239674160590909,0.281251712590909,0.330746362590909,0.592135276090909,0.869282031090909,1.15293852909091,1.45497322909091,3087,"DG_s15",23.575,24.28,26.332,26.334,28,4,10,10,2.052,"Left",28,4,24,24,0,0,0,-24,0,-24,24,24,"Advent",18,-6,28,10,4,10
"181",7,"LHH6-LHH7",-0.157052741111111,-0.300430623611111,-0.424274146111111,-0.604139056111111,-0.813805811111111,-0.817272361111111,-0.712843246111111,-0.572960711111111,-0.482302361111111,-0.483549761111111,-0.574129976111111,-0.678430461111111,-0.523016809111111,-0.404502583211111,-0.386287533211111,-0.309072783211111,-0.435066485211111,-0.654319411111111,-0.615259661111111,-0.623399211111111,3087,"DG_s15",23.575,24.28,26.332,26.334,28,4,10,10,2.052,"Left",28,4,24,24,0,0,0,-24,0,-24,24,24,"Advent",18,-6,28,10,4,10
"182",7,"LAM3-LAM4",1.36405241313131,1.59362241313131,1.54898351313131,1.16236095163131,0.554766901631313,-0.0555560358686869,-0.271268335868687,-0.277106974368687,-0.461134774368687,-0.554872386868687,-0.460027136868687,-0.374129836868687,-0.290031686868687,-0.174142427368687,-0.0154361273686869,0.224334522631313,0.452386472631313,0.497504632131313,0.269734332131313,-0.116720467868687,3087,"DG_s15",23.575,24.28,26.332,26.334,28,4,10,10,2.052,"Left",28,4,24,24,0,0,0,-24,0,-24,24,24,"Advent",18,-6,28,10,4,10
"183",7,"LTT9-LTT10",0.40763754409596,0.49780846609596,0.69688818759596,0.91779662359596,0.79991782359596,0.91383958109596,1.20682805959596,1.20274872224596,1.01536387724596,0.72967530724596,0.51810593374596,0.46986227109596,0.62265446319596,0.73000846319596,0.59562953669596,0.45272113669596,0.38038718959596,0.33097230959596,0.36256400959596,0.31764350959596,3087,"DG_s15",23.575,24.28,26.332,26.334,28,4,10,10,2.052,"Left",28,4,24,24,0,0,0,-24,0,-24,24,24,"Advent",18,-6,28,10,4,10
"184",7,"LAM2-LAM3",-0.168899690040404,-0.060311136540404,-0.152973747540404,-0.174445997540404,-0.201520032040404,-0.235126785540404,-0.265095238540404,-0.490648238540404,-0.684663404040404,-0.679195424040404,-0.629193054040404,-0.506935804040404,-0.353912294040404,-0.332556689040404,-0.496408409040404,-0.630656209040404,-0.618261267540404,-0.651899229540404,-0.652218479540404,-0.688810579540404,3087,"DG_s15",23.575,24.28,26.332,26.334,28,4,10,10,2.052,"Left",28,4,24,24,0,0,0,-24,0,-24,24,24,"Advent",18,-6,28,10,4,10
"185",7,"LAM1-LAM2",-0.725078775471717,-0.679662605471717,-0.788469468971717,-0.593656084471717,-0.268699580671717,0.0821356993282829,0.340338597828283,0.0752443278282828,-0.309078372171717,-0.535153093771717,-0.698448223771717,-0.755900253771717,-0.775029253771717,-0.873606232171717,-0.933692067171717,-0.717586005671717,-0.356655105671717,-0.136572491671717,-0.101104791671717,-0.160635584671717,3087,"DG_s15",23.575,24.28,26.332,26.334,28,4,10,10,2.052,"Left",28,4,24,24,0,0,0,-24,0,-24,24,24,"Advent",18,-6,28,10,4,10
"186",7,"LAM7-LAM8",-0.957264806217172,-0.882378836717172,-0.638781996717172,-0.604677973717172,-0.584896199717172,-0.538950499717172,-0.466638444717172,-0.266002154717172,-0.428672808717172,-0.775730708717172,-1.03673310871717,-1.20138102171717,-1.24729577171717,-1.12548734571717,-0.958361645717172,-0.779280865717172,-0.657899508717172,-0.842047584717172,-1.08482403471717,-1.24448951471717,3087,"DG_s15",23.575,24.28,26.332,26.334,28,4,10,10,2.052,"Left",28,4,24,24,0,0,0,-24,0,-24,24,24,"Advent",18,-6,28,10,4,10
"187",7,"LAM8-LAM9",-0.186616574739899,-0.226316258489899,-0.208728068489899,-0.598906068489899,-0.770513592489899,-0.538057792489899,-0.403093047489899,-0.226783229689899,-0.296009181189899,-0.603124531189899,-0.801296831189899,-0.815358127989899,-0.616428977989899,-0.306613727989899,-0.218053132489899,-0.390091403489899,-0.651171653489899,-0.980413703489899,-1.0985797489899,-1.0476335989899,3087,"DG_s15",23.575,24.28,26.332,26.334,28,4,10,10,2.052,"Left",28,4,24,24,0,0,0,-24,0,-24,24,24,"Advent",18,-6,28,10,4,10
"188",7,"LAM9-LAM10",0.35996841469697,0.67355411469697,0.97129821969697,0.96889621969697,0.73726516969697,0.62457596969697,0.42478147769697,0.12945696769697,-0.13877248230303,-0.44950378230303,-0.64959039030303,-0.69628093030303,-0.64052763030303,-0.44705892930303,-0.28332432830303,-0.21453798330303,-0.20994283330303,-0.26390218430303,-0.34387198530303,-0.42880218030303,3087,"DG_s15",23.575,24.28,26.332,26.334,28,4,10,10,2.052,"Left",28,4,24,24,0,0,0,-24,0,-24,24,24,"Advent",18,-6,28,10,4,10
"189",7,"LIP1-LIP2",-0.909595453176768,-0.688125853176768,-0.575392241176768,-0.655247185676768,-0.618518190176768,-0.464712290176768,-0.190043952176768,0.0735019478232324,0.104858582323232,-0.0239259661767677,-0.308442591176768,-0.509893411676768,-0.471150061676768,-0.203656813176768,0.300202161823232,0.640017282323232,0.566017782323232,0.503180432323232,0.426277432323232,0.224604798323232,3087,"DG_s15",23.575,24.28,26.332,26.334,28,4,10,10,2.052,"Left",28,4,24,24,0,0,0,-24,0,-24,24,24,"Advent",18,-6,28,10,4,10
"190",7,"LIP5-LIP6",-0.424868063525253,-0.388342063525253,-0.215486826025253,-0.144937071025253,-0.456093221025253,-0.834845321025253,-1.18788692102525,-1.37429710252525,-1.30177535252525,-1.23682797152525,-0.986543821525253,-0.691330821525253,-0.647110290525253,-0.648176227525253,-0.703787477525253,-0.829276949525253,-0.834854680525253,-0.905210624525253,-1.12790727452525,-1.33407375252525,3087,"DG_s15",23.575,24.28,26.332,26.334,28,4,10,10,2.052,"Left",28,4,24,24,0,0,0,-24,0,-24,24,24,"Advent",18,-6,28,10,4,10
"191",7,"LHH5-LHH6",-0.929400805555555,-0.680636985555556,-0.305637635555556,-0.211867201155556,-0.104234433155556,-0.170689453155556,-0.392422917605556,-0.464536352005556,-0.632998220005556,-0.912277620005556,-0.983085105555556,-0.757236963555556,-0.591263670055556,-0.432285887055556,-0.246578937055556,-0.297649261555556,-0.405217555055556,-0.516805838055556,-0.754605238055556,-0.767970776555556,3087,"DG_s15",23.575,24.28,26.332,26.334,28,4,10,10,2.052,"Left",28,4,24,24,0,0,0,-24,0,-24,24,24,"Advent",18,-6,28,10,4,10
"192",7,"LAM5-LAM6",0.328273178121212,0.368299728121212,0.485647583621212,0.626514653621212,0.816247048621212,0.938052548621212,1.02529729862121,1.10337624562121,0.926126919121212,0.451859019121212,0.121808782621212,0.0728997661212121,0.120273285621212,0.172996085621212,0.143121172121212,0.0861528866212121,-0.0224197278787879,0.124867331597212,0.563576881597212,0.878741321597212,3087,"DG_s15",23.575,24.28,26.332,26.334,28,4,10,10,2.052,"Left",28,4,24,24,0,0,0,-24,0,-24,24,24,"Advent",18,-6,28,10,4,10
"193",7,"LHB6-LHB7",1.09099879691919,0.686577846919192,0.0565354969191919,-0.373581958080808,-0.469315155780808,-0.450668205780808,-0.370892629280808,-0.366137564780808,-0.491320332080808,-0.350193692230808,-0.159760618730808,-0.0996936282308081,-0.0280033027808081,-0.0889732426308081,-0.400393092630808,-0.648828442630808,-0.629320168580808,-0.583060630580808,-0.586189430580808,-0.600117330580808,3087,"DG_s15",23.575,24.28,26.332,26.334,28,4,10,10,2.052,"Left",28,4,24,24,0,0,0,-24,0,-24,24,24,"Advent",18,-6,28,10,4,10
"194",7,"LHH4-LHH5",-0.776329035085858,-0.739492607585859,-0.538987015085859,-0.442962215085859,-0.465270565085859,-0.703952966085859,-1.04176595858586,-1.11610210858586,-1.16474910858586,-1.07104640858586,-0.741398269585859,-0.311145019585859,0.102074330414141,0.330383930414141,0.358822841414141,0.255211841414141,0.152164741414141,0.0847354464141414,0.0262398915641414,0.0902123265641414,3087,"DG_s15",23.575,24.28,26.332,26.334,28,4,10,10,2.052,"Left",28,4,24,24,0,0,0,-24,0,-24,24,24,"Advent",18,-6,28,10,4,10
"195",7,"LAM6-LAM7",0.108634602765152,0.379276762765152,0.711726731515152,1.01901208151515,1.06705790151515,1.07527990151515,1.09545135151515,1.07169917951515,0.860433924515151,0.489181089515151,0.0125818395151515,-0.211300238484848,-0.237994683484849,-0.412940348484849,-0.336433648484848,-0.189984148484848,-0.251510398484848,-0.236902948484848,-0.181738548484848,-0.234400948484849,3087,"DG_s15",23.575,24.28,26.332,26.334,28,4,10,10,2.052,"Left",28,4,24,24,0,0,0,-24,0,-24,24,24,"Advent",18,-6,28,10,4,10
"196",7,"LIP3-LIP4",0.463547097540404,0.917988397540404,0.975530854040404,0.795014554040404,0.631896854040404,0.443238424040404,0.194785417540404,-0.120455732459596,-0.490155282459596,-0.703987252459596,-0.753917495959596,-0.875841495959596,-0.876759645959596,-0.810802845959596,-0.784488795959596,-0.641369445959596,-0.341968991459596,-0.054441941459596,-0.00656622645959595,0.136841527540404,3087,"DG_s15",23.575,24.28,26.332,26.334,28,4,10,10,2.052,"Left",28,4,24,24,0,0,0,-24,0,-24,24,24,"Advent",18,-6,28,10,4,10
