"","trial","time_1","time_2","time_3","time_4","time_5","time_6","time_7","time_8","time_9","time_10","time_11","time_12","time_13","time_14","time_15","time_16","time_17","time_18","time_19","time_20","time_21","time_22","time_23","time_24","time_25","time_26","time_27","time_28","time_29","time_30","time_31","time_32","time_33","time_34","time_35","time_36","time_37","time_38","time_39","time_40","time_41","time_42","time_43","electrodes","X","SID","newround_time","choice_time","buttonpress_time","reveal_time","self_payoff","other_payoff","self_foregone","other_foregone","RT","side_chosen","self_var_payoff","other_var_payoff","ineq_var_abs","ineq_choice_abs","ineq_foregone_abs","ineq_disadvent","ineq_advent","ineq_disadvent_choice","ineq_advent_choice","ineq_choice","chose_equality","self_diff","other_diff","L_self","R_self","L_other","R_other"
"1",3,-0.741953879718621,-0.0487303370495171,0.959337935804049,-0.168653719035911,-0.18830139965926,-0.0663712829154979,-0.000944254775282705,0.226948864281376,-0.206731834513898,0.350556080582314,-0.131060070517245,-0.852989967850047,-0.74923500021676,-0.483291350581813,-0.29982662000114,-0.211303168607262,-0.0661381555103158,-0.738919161150817,-0.291712786934684,-2.35345577637357,-0.571732729858754,-0.846491688624984,-0.455819395917218,-0.708979319868262,-0.0310950644964696,-0.846593430099984,-0.366193798109766,0.886050579801237,-1.35583757937652,0.498460203769571,0.0839416454593729,-0.0393063426948106,-0.17236237825241,1.29883494325319,-0.0769972130388425,0.719808462159057,-0.336076485478045,0.119931870740969,-0.178690141749147,-0.135630652288699,-0.271282279647915,0.527502016679398,-0.335883125853985,"POL LIN9-Ref-POL LIN10-Ref",1487,"DG_s08",5.094,5.766,7.047,7.047,10,10,8,8,1.281,"Left",8,8,0,0,0,0,0,0,0,0,"10-10",2,2,10,8,10,8
"2",3,0.847716324829562,0.383500848064992,-0.780138270511777,-0.451078902382777,0.0133886019361422,0.486517186010845,-1.2911442531925,0.784700861959723,0.627301545464414,-0.247619976935098,-0.519324304266514,-0.580139987312864,-1.10782445075725,1.05476091402212,-0.162737359753526,-0.85042013418545,0.18304293054483,-0.436094614980785,0.225119644183656,0.776457999350619,1.00934428730946,0.227777963978362,-0.0245117207766314,-0.407031591799131,0.454854269475666,0.282279280179084,0.992963092040513,1.48564938063259,0.61056475310889,-0.547696334157752,-1.48008942940309,-0.707796639076318,-1.08628452162683,0.338176450071435,-0.446762411025786,0.558005937998764,1.59036106416544,0.408075298976158,0.368651571610819,0.425438296692932,-0.142167699702014,0.870449085079704,0.403944616865246,"POL LIN4-Ref-POL LIN5-Ref",1487,"DG_s08",5.094,5.766,7.047,7.047,10,10,8,8,1.281,"Left",8,8,0,0,0,0,0,0,0,0,"10-10",2,2,10,8,10,8
"3",3,-0.146201941547314,-1.59026605688994,1.33711878952925,0.399349208908004,-1.15520207152574,0.694192117614556,-0.0892339418587187,0.0726032081682977,-0.831605014984634,0.0407235989944748,0.294992852177393,0.981679573169084,-0.183037334452102,0.170282121808173,0.215950398274783,0.138431657859759,0.159777615346045,0.371472470010643,0.396627691553343,-0.533847862484767,-0.325508567297358,-0.0405168032604402,-0.798752261152772,-0.293202319892048,0.53094489766619,-0.110936481552756,0.979428998615152,0.41665534031228,-0.547010699507411,-0.14260092937372,-0.267929434669346,0.0168759947362127,-0.0152781123298724,-0.669825561638432,-0.587782200452963,-0.195370965353784,-0.599576919579426,-1.00778485081819,-1.36840753818433,0.933687583891932,0.775880069259959,1.47108746248172,-0.306738709841098,"POL LIN1-Ref-POL LIN2-Ref",1487,"DG_s08",5.094,5.766,7.047,7.047,10,10,8,8,1.281,"Left",8,8,0,0,0,0,0,0,0,0,"10-10",2,2,10,8,10,8
"4",3,-0.272374553041455,-0.762705095644189,1.4424109266305,-0.407331277944859,0.132054151294708,-0.440744936885956,0.357312552660195,0.134556957468703,-0.570338488702335,0.0987558100572179,-0.622476742315772,-1.34277280455382,1.52903863060197,0.0499678793243414,0.577966156579241,-0.119297311279959,-0.74999484050091,0.0362966906586326,0.649146552684661,-0.908705070355196,-0.570600166055654,-0.849567523326759,-0.308363410237113,0.268721149876302,-0.02447207058992,0.0692912545022017,-0.197915187795464,0.227639239791805,-0.331171892875339,0.360790158341046,-0.753707166010816,0.37347849510135,-0.531339190390792,0.0506242934514369,0.560779432356754,-1.08059737966767,-0.601384092528617,0.816947444139851,1.04475235003455,0.820165992701,0.94430367638465,-0.133818095202946,0.257293537005689,"POL RIN11-Ref-POL RIN12-Ref",1487,"DG_s08",5.094,5.766,7.047,7.047,10,10,8,8,1.281,"Left",8,8,0,0,0,0,0,0,0,0,"10-10",2,2,10,8,10,8
"5",3,0.0317815049288177,0.565428125895769,-2.08501852382668,1.48780889300209,-1.15210266474401,0.770721196575377,0.363092459185982,-0.665516681741963,-0.0505363570360273,-0.057880371332242,6.57283930622921e-05,-1.15499986532686,-0.69441468234654,0.196799260889277,-0.267635924980546,-0.442228457990012,-0.290243161847163,0.0284590679266161,-0.939349278173315,-0.367369903066521,-0.720694760119971,-0.273219639145729,-0.990123255086675,-0.340595103319132,0.106304274531748,-0.510754731270669,-1.05143097087595,-1.99219403500168,0.60520389071018,-0.270007732009774,0.1643368555511,-0.0330732495916235,0.251400812923001,0.174069547102541,-0.347304117874085,-0.863979383372651,-0.516425456859226,0.37279747308153,-0.0229237898316366,-0.217485260954876,0.331009649738621,0.333510165036052,0.836267274473248,"POL RIN5-Ref-POL RIN6-Ref",1487,"DG_s08",5.094,5.766,7.047,7.047,10,10,8,8,1.281,"Left",8,8,0,0,0,0,0,0,0,0,"10-10",2,2,10,8,10,8
"6",3,0.0992876546286676,-0.152541636994183,-0.243670350296086,0.2969243326616,0.334677321500625,-0.0789849602070802,-0.0916349541766412,-0.648739340355894,-0.418169089934894,-1.72461536818878,-0.512302381999638,-0.68457744216119,-0.375852650420481,-1.10685353385034,-1.80105881243875,0.145839857327204,-0.804255087877897,-0.255716554422547,0.0615321066101653,-1.77113046781371,-0.0936536785241726,0.137856101695169,0.443958905123758,-1.01663526334925,0.409219012032175,0.0202458898678644,0.51347593846776,-0.138706109658306,-0.23388682235172,-0.470459677728941,-0.220119377823493,0.94807801266916,-0.0282693205574218,-0.772381088962192,-1.7291162682054,0.123647991846072,-0.823040342681781,-1.02640951307497,-1.0322685904549,-1.15890511586304,-1.55053714407209,-0.810805385945951,-0.307281907876737,"POL LIN12-Ref-POL LIN13-Ref",1487,"DG_s08",5.094,5.766,7.047,7.047,10,10,8,8,1.281,"Left",8,8,0,0,0,0,0,0,0,0,"10-10",2,2,10,8,10,8
"7",3,-0.235085810869413,-0.266966049188787,0.336526321230917,0.165525538827284,-0.209299840319067,-0.667084866457787,0.58937237732023,-0.281675607105024,-0.828219313473094,-0.298435775962489,0.135281909742454,-1.00852526303105,-1.21923350981088,-0.935586671017148,0.00438649087866416,-0.297350330993125,-1.02214888376553,-0.33542582092297,-0.478567300929132,-0.00734022501596288,0.450466983386665,0.294259912763253,-0.738147732544066,-0.462963089386832,-0.563556253420914,1.52220294407279,0.0429937295673883,0.0889587861464283,-1.05726019917777,0.687289836152339,-0.549716266248109,-1.37029229558975,-1.7403824138784,-0.874467602282349,-1.64678946590116,0.0254978761324014,-0.284918184617289,-0.513887956900317,-0.7889919487817,-0.659264689751954,-1.10979031433056,-0.216059253660942,0.246887183274795,"POL RIN9-Ref-POL RIN10-Ref",1487,"DG_s08",5.094,5.766,7.047,7.047,10,10,8,8,1.281,"Left",8,8,0,0,0,0,0,0,0,0,"10-10",2,2,10,8,10,8
"8",3,0.18617733601269,-0.12777036858438,0.104560937172492,-0.162967904600802,-0.116816156737046,-0.314905784429263,-0.491677988863172,0.764283644120741,-0.899435920805643,0.416992052408646,-0.347642484285855,-0.000668622726367474,1.04584768954892,-0.777307068053787,-0.165309491666891,1.43654066934393,0.710192599429659,-0.674364141791691,-0.996827279224337,0.379336486585074,-0.128927552898659,-1.11383413709869,-0.188212580559814,-0.817893159277484,0.0525942134529052,-0.487013395671971,-0.50508066256367,-0.575876505421626,0.765839713668529,-0.362017299881336,-0.113281719518574,-0.216154484403111,0.737569037427065,1.08023109796583,0.970235942927051,-0.138456182968463,0.716983071412334,0.514135689837607,0.671056695068337,0.440945860425973,-0.458783362859181,-0.499713995031436,0.346636209021467,"POL RIN4-Ref-POL RIN5-Ref",1487,"DG_s08",5.094,5.766,7.047,7.047,10,10,8,8,1.281,"Left",8,8,0,0,0,0,0,0,0,0,"10-10",2,2,10,8,10,8
"9",3,0.331516989299323,-1.32110190894441,1.26524638266225,-0.275661463017165,-0.451747669231195,0.500729377731952,0.32566844938052,1.19276811554031,0.52384757484426,0.292622785184303,-0.9564587953565,0.526850039118662,0.680446656425499,-0.54397118647851,-0.914087613849415,0.873912099093349,-0.0298851965267608,-0.736562229318953,-0.00195977064225028,-1.06287695257246,0.968545732342167,-0.04998826420755,0.484041867157951,1.14049067022788,-1.05383829819619,-0.655649729470898,-0.217512597053934,1.0600090482889,0.449174028458242,0.661551617283689,0.697475817409642,0.696790297033519,1.67960738783195,1.48193809263026,0.485820386454047,0.359580320247807,1.58986900104793,0.233890980064833,0.440510706385735,1.72472844183834,0.682113627947794,0.505041964594385,0.222756207503083,"POL LIN10-Ref-POL LIN11-Ref",1487,"DG_s08",5.094,5.766,7.047,7.047,10,10,8,8,1.281,"Left",8,8,0,0,0,0,0,0,0,0,"10-10",2,2,10,8,10,8
"10",3,-0.0807626676035711,0.954921474475094,-0.523755365127459,-0.350403441744064,0.666880868564715,0.271917540667165,0.294318477356331,0.0421947371843543,1.48818037831111,-0.0859991404020137,-0.399545148996816,0.949529928278301,0.402805346709694,0.440346411963974,-0.272994664137433,0.780389861050072,-0.387171398057942,0.783866702675037,1.56329552962875,-0.462097766176004,0.579269475382735,0.419403238118731,0.359049559899467,-0.375404342222214,0.889783413158261,1.38772626227127,0.0234059549676933,-0.25064420101442,-0.195751904669911,0.960626339069093,-0.00221903366769549,1.46835049443511,0.813486950736749,0.998851294397258,1.1238037343654,-0.296066496938774,-0.356563380363262,1.07979611354748,-0.101677118107103,0.431600738064149,-0.0755414178735561,0.684454613979431,0.766204494357669,"POL LIN3-Ref-POL LIN4-Ref",1487,"DG_s08",5.094,5.766,7.047,7.047,10,10,8,8,1.281,"Left",8,8,0,0,0,0,0,0,0,0,"10-10",2,2,10,8,10,8
"11",3,-0.752968924836448,1.04063301382116,-0.482698978211746,0.195034889227031,-0.912254944094936,-0.913585832253339,-1.27105923131675,0.588707056035346,-1.01320268036773,-1.55971702692644,-0.931248867436112,1.02195998298918,1.2958565477317,-0.862209711438264,0.100085894951132,-0.356134778589808,-1.00466279676267,-0.0035773795259697,0.0873455090985717,-0.61312279573508,-0.323362357355582,0.0828345561250208,-0.114966078389099,0.339817296582301,0.33554179978215,-1.24425411678805,-1.31114038978031,-0.0497207872976326,-0.885339166132034,-0.394221441295743,1.06081455202368,-0.024705623895199,-0.997430774317413,0.536610397374095,-1.00029605511178,-1.02319248521203,0.0335501821174717,0.194734695170764,0.268914660848163,0.369064491820794,-0.541881155798042,0.646243026925034,0.154530859165316,"POL RAM7-Ref-POL RAM8-Ref",1487,"DG_s08",5.094,5.766,7.047,7.047,10,10,8,8,1.281,"Left",8,8,0,0,0,0,0,0,0,0,"10-10",2,2,10,8,10,8
"12",3,0.0948705909531942,0.225809906412906,0.340821096662792,-0.661501594028892,0.859029876046857,-0.725640148099595,0.0540196023415191,0.933215005717688,-0.971239447943073,-1.51114365183665,-0.12977347255753,-0.0694490282873845,0.123516299115283,0.302068740414317,-0.370471795782936,-0.269254415714216,-0.268253414629631,-0.896808477260654,-1.42778515882563,-2.03275955293693,-0.951327391020411,-0.742530197586342,-0.219303319332327,0.3329783272452,0.595337569628074,-0.332723649986419,-0.018941991525161,-0.0673033977218966,-1.96396884009698,-0.0051692690488121,-0.27652978584507,-0.232133373875927,0.512477685974299,0.457930225448333,-0.0236872900318708,0.0501115235636922,0.252385970163393,0.999462554244332,-0.826452830739019,0.441091465400724,-1.2284687281219,-1.01777321051068,0.926601985643027,"POL RIN3-Ref-POL RIN4-Ref",1487,"DG_s08",5.094,5.766,7.047,7.047,10,10,8,8,1.281,"Left",8,8,0,0,0,0,0,0,0,0,"10-10",2,2,10,8,10,8
"13",3,-0.391624687490008,0.376445279343488,0.233509759713286,-0.218330351566766,-0.292530851312885,-1.4907657393312,-0.474103582686105,0.0005787476714878,-1.30044934586584,-0.51656189537762,-0.612873210355347,0.871949722532536,0.669852256313635,0.056641859639293,-0.587060878485657,-0.357390469365333,0.647497968381271,-0.728215093971203,-0.413441219811069,-0.0811091164921138,-1.05683769035621,-0.356579475853886,-0.871597305059519,0.946936197773593,-1.3589158043658,0.000263591824314124,-1.41554502348342,0.450212134826334,0.133936816871441,0.0252493282041897,-1.09914753646668,-0.97072380297712,-0.151064731824304,-0.385054076527008,0.789927556584054,0.0474233654806284,0.517845361274166,-0.286998294899195,-0.343336619471427,-1.03654306104653,0.676937680503229,-0.302607073668867,-0.832376591906238,"POL LAM9-Ref-POL LAM10-Ref",1487,"DG_s08",5.094,5.766,7.047,7.047,10,10,8,8,1.281,"Left",8,8,0,0,0,0,0,0,0,0,"10-10",2,2,10,8,10,8
"14",3,-0.242453166770168,-0.258245876868958,0.567057334841643,-0.0663582912025173,-1.86932005359211,-1.51689028250814,0.341979573616182,-0.465879713593713,0.78627656613965,-0.206568179190924,-0.906700732628615,-0.232773571297936,-0.856507624008367,-0.898692202197678,-1.70037130081408,0.153118671543242,-0.272285765907774,-1.64822650650858,-0.57516915916861,-0.147313417850905,-1.54540242087281,-0.510186752546204,-0.830317647454074,0.265063483264866,0.672202160720361,0.427761249557511,0.105768221107611,0.402139028697918,0.347465180317569,0.413785201875802,0.584813250435993,1.28232748601244,-0.734868561075773,-1.92225419140557,0.327682552821392,-0.815905261448583,-0.0347718016713885,-0.344897993930168,-1.32668904683622,0.208248187469656,-1.76976374927594,-0.917062803791512,-0.972454111857449,"POL RIN12-Ref-POL RIN13-Ref",1487,"DG_s08",5.094,5.766,7.047,7.047,10,10,8,8,1.281,"Left",8,8,0,0,0,0,0,0,0,0,"10-10",2,2,10,8,10,8
"15",3,-0.419826797395229,0.528545299486816,0.12303959625412,-0.231758098345706,0.0352972250798929,0.459520531969322,-0.173204172332472,0.418500976868467,-0.331375535347612,-0.643035847317617,-0.773549406285951,0.026718066089126,0.291030071947662,-0.525565808683038,-0.168343548038066,-0.179612080888497,0.357903261383306,-0.426450730772521,0.224464720387106,0.301909622231726,-0.165739167954445,0.0698600172867958,-0.438336051346771,-0.311666954886825,0.34640234166558,0.410813005418756,0.0106652721088882,-0.352900508339309,-0.380072178710395,-0.497257427419116,0.65485278549628,0.970663620887482,0.358216171327971,0.375490065554679,-0.443151469961638,0.0460091336363999,0.521436385480415,0.448828984375103,-0.494543568117927,-1.27536038221517,-0.238073037781911,0.522886712058061,0.672267043127754,"POL LIN2-Ref-POL LIN3-Ref",1487,"DG_s08",5.094,5.766,7.047,7.047,10,10,8,8,1.281,"Left",8,8,0,0,0,0,0,0,0,0,"10-10",2,2,10,8,10,8
"16",3,0.798050483363202,-0.20012662140102,-0.497170830812436,-0.100753031149745,-1.6993569036864,-1.41006903616558,-0.990107349839525,-1.82741312672973,-0.655883800669358,-0.430452555526555,-1.09988178739042,-0.778056312321302,0.681950205544401,-2.24834628346503,-1.58222667835013,-0.369338571217329,-0.827076582662736,-0.257278353049344,-0.389551512747297,-1.45135719650932,-1.88290938933909,0.34206100669202,-0.724168327089382,0.122857919097956,0.464868860830177,-0.376396283261289,-0.386075415180742,-0.290869263527433,0.0431266893898719,-0.544807354793093,1.05586056226424,-0.587848127500374,-0.50804308536698,0.197809327181868,-0.497824293842036,-0.704634870651114,0.415555430565346,-0.502452447360045,-1.17058297329945,0.0840587993046942,0.169670160509921,-0.128723567536787,0.289796971983467,"POL RAM8-Ref-POL RAM9-Ref",1487,"DG_s08",5.094,5.766,7.047,7.047,10,10,8,8,1.281,"Left",8,8,0,0,0,0,0,0,0,0,"10-10",2,2,10,8,10,8
"17",3,0.306916364826603,-0.854373298815271,0.952349610643941,-0.404892676655273,1.77374119185068,1.4651610634689,-0.888589188145557,-0.232364761582934,0.235267944318879,0.218952047631145,1.25805220544105,0.108636912892334,0.486988452495158,0.630586819021657,0.880601972115238,1.24978182706986,1.4423822818007,0.259258900140763,0.223702817567989,0.00373436819781903,0.0520529454686267,0.250570294858543,0.788713912214539,0.973084139473924,0.245625245523908,0.524152356854,0.712018881587394,0.613298945434783,0.914776511644655,1.65703489486651,0.941447844713198,-0.772393187422401,0.824449497682713,0.476682810752471,1.00915344515089,1.42253675591608,0.199384321665142,0.241265240452865,-0.242814875707533,0.871398237868652,1.75650543274429,-0.361587317334395,-0.51957301557216,"POL RIN1-Ref-POL RIN2-Ref",1487,"DG_s08",5.094,5.766,7.047,7.047,10,10,8,8,1.281,"Left",8,8,0,0,0,0,0,0,0,0,"10-10",2,2,10,8,10,8
"18",3,0.236966041268483,-0.837464077344071,0.854611269293652,-0.254113233218064,0.47278568541997,-0.399373028090712,0.371039397055421,0.771403730844662,1.14669825914774,-1.20154731795402,-0.299877937572044,0.388989842825416,1.26497331835549,0.461221753948025,-0.549209129740178,-0.886015761712696,0.547885096798615,-0.561261971154671,-0.0145871706076135,-0.688228371435976,0.221896109580837,0.325272354709702,0.191145927424152,1.27618613854672,-0.944050581350155,1.03754483167938,0.112834754859574,-0.228280468138365,0.963074321404021,-0.0965656753478878,0.404138915224805,0.752999262829662,-0.509961626925918,1.398589844332,-0.680414793532543,-1.0975697124267,0.476921506137459,0.593327834570738,-0.599928248573054,-0.778641277532656,0.16129296427447,0.081079102853105,0.91166574436105,"POL RIN10-Ref-POL RIN11-Ref",1487,"DG_s08",5.094,5.766,7.047,7.047,10,10,8,8,1.281,"Left",8,8,0,0,0,0,0,0,0,0,"10-10",2,2,10,8,10,8
"19",3,-0.577774100191206,1.21346480244715,-0.365046219827744,-0.270644482428195,-1.57499910540536,-0.930886726199209,0.116363088084404,0.365840283447951,-0.232864365382259,-0.184640021118786,0.626232279772251,0.472585099275905,0.244481534260628,-0.367709699143267,-0.845894752507506,-1.13570829571143,0.248530867973374,-2.11893569009027,-0.208711042088984,-0.0505309179111895,-1.20369607885446,-0.741243490220093,-0.694038965747443,0.953510777346222,-1.64345902138148,-0.42117535663191,0.112414000903668,-0.978131902138253,0.42514180779295,-0.946493603513726,-0.224905538507147,-0.71552098387509,-1.2063995478551,-0.558157805252574,-0.424467978532703,-1.11045428210688,-0.930695562729966,0.24669229418831,-0.478482394015452,-0.90001441251441,0.217715582344692,0.930112527113975,-0.220820512607355,"POL LAM8-Ref-POL LAM9-Ref",1487,"DG_s08",5.094,5.766,7.047,7.047,10,10,8,8,1.281,"Left",8,8,0,0,0,0,0,0,0,0,"10-10",2,2,10,8,10,8
"20",3,0.00202798768662138,-0.251969424895207,0.417808721250033,-0.167867284041447,-0.553264031205559,-0.883481844017187,-0.15410697120123,0.716597016221031,-2.43674964030292,0.173926396774118,0.17921967302816,-0.502161172096056,-0.411244278331152,-0.0203305105691092,-0.52669600869645,-0.801643640509123,-0.193864964730314,-1.93536914565328,0.260741583772732,-0.348551627583865,-0.577376703942901,0.191196370919175,0.458876183175663,-0.283792107484992,0.0221554659876637,-0.584569996967639,-0.121949859566699,0.31496782514906,0.526423820301387,0.30002568559365,0.47841558754228,0.242885026962636,0.49891118125732,-0.506039760432188,-0.34322519161223,-0.410015588267191,-0.506039760432188,-1.16311321273385,-0.873257783789904,1.29129396098413,0.803732763585797,0.112362389343098,0.274305341627272,"POL RIN2-Ref-POL RIN3-Ref",1487,"DG_s08",5.094,5.766,7.047,7.047,10,10,8,8,1.281,"Left",8,8,0,0,0,0,0,0,0,0,"10-10",2,2,10,8,10,8
"21",3,-0.0840399856682224,-0.995446151972965,0.60107553519459,0.478410602446599,0.58013786397971,-1.92395335399939,-1.03433681101175,0.496425877928169,-0.0824223499178087,-1.44031520818478,-0.625388306966878,-0.418799512936136,0.134164718270301,-0.91054624903922,-0.992961580663488,-0.267530405114155,-0.70467901106079,-1.24855036316298,-0.00486695372887347,-0.681046215547656,-0.734191166815677,-0.22466176683888,0.846434486999848,-0.174219233412784,-0.840004527462943,-0.390844325205226,-0.0443334629061312,1.01667577556094,-0.838619602652416,-0.01111858295969,0.332809087058419,0.965996387987173,-0.527418807955441,0.100714961276362,0.0749467463531328,-0.805356229252724,0.874029682241757,-1.41266815762783,-0.214320638581341,0.799467272166039,-1.01958511726199,-0.0982667957425569,0.320673565040098,"POL LIN11-Ref-POL LIN12-Ref",1487,"DG_s08",5.094,5.766,7.047,7.047,10,10,8,8,1.281,"Left",8,8,0,0,0,0,0,0,0,0,"10-10",2,2,10,8,10,8
"22",4,-0.346979601295618,0.747126216528969,0.59054036770865,-0.990686982941999,-0.0971387411575746,-0.935018723715212,0.00403329153706622,-0.115712630573872,-0.571045523117935,-1.59981159481258,0.71832122413202,-0.664282795513789,0.178874127711989,-1.7790317328071,-0.91997130738479,0.225133969611887,0.202658584429077,-0.611914809996473,-0.123946492303018,-0.860365624539736,-0.776010423066422,-0.366314167446661,-0.845418738695095,-0.826032492366771,0.366798135405923,0.00286644647003254,0.89343550155509,-0.509122747036283,-0.918328783120284,0.123778062439797,1.19680955281705,0.19387877633255,0.784201104318161,-0.731872109157766,0.0241676925970671,-0.428805339078649,0.203455007394501,0.0599437788218822,-0.759460268325479,-0.386440147576684,-1.04221936972804,-0.173847279612977,-1.04095539673518,"POL LIN10-Ref-POL LIN11-Ref",1488,"DG_s08",8.047,8.719,10.454,10.469,10,10,28,4,1.735,"Right",28,4,24,0,24,0,-24,0,0,24,"10-10",-18,6,28,10,4,10
"23",4,0.42979761656346,-1.09601224324957,0.378612418987519,0.28760220769859,-0.136584817487254,1.05969623736552,0.730039129668492,0.484471470027908,0.0303393524554632,-0.22206649545035,0.323295365801131,0.107822012436126,0.350758558609209,0.693772144967468,0.350313883585206,0.0608214261548503,0.187437326809742,1.07112526471275,-0.391967478799228,0.269089356018936,0.654216542110093,-0.272013580236833,-0.222171614760864,-0.90435156063086,0.908034410588209,-0.754604383919902,-1.00193937542859,0.34499211276395,0.23250490244769,-0.494259744268234,0.372221881804923,-1.37106242827152,-0.225752262049185,-0.610155718655562,1.5941629425509,-0.0578828987772115,0.902792113082331,1.21957361469251,0.159625322985244,-0.120550011802784,0.0539458153393859,-0.0914430952695131,-1.13063497908872,"POL LIN2-Ref-POL LIN3-Ref",1488,"DG_s08",8.047,8.719,10.454,10.469,10,10,28,4,1.735,"Right",28,4,24,0,24,0,-24,0,0,24,"10-10",-18,6,28,10,4,10
"24",4,0.211168196081581,0.311291351370517,-0.224305749456108,-0.298153797995989,-0.0984377906364422,-0.219334053571413,0.0983100179119443,-0.486424487188516,-1.69792494771952,0.933289431247331,0.0881335693335996,-0.620357713806828,0.4891654507486,-0.604906885741977,-0.447230511645696,-0.134760973566396,-1.66143413097936,0.586432649261824,-0.961312525525447,-1.03307448531031,0.676919845142409,-0.924993873344391,-1.36191218386519,-0.561979748482243,-0.145017015380572,-0.249118108585143,-0.143311564256974,-0.319798290104418,-0.784918849596401,-0.24692725452089,-0.0986950694852522,-1.22260537310678,-0.499880814677983,-0.0868010786891147,-0.156242049395152,-0.230793893588204,-0.470842036483718,0.383581234620798,0.12312674071492,0.263520291764563,-0.118510133602915,0.323441344189127,0.216924216961287,"POL LAM9-Ref-POL LAM10-Ref",1488,"DG_s08",8.047,8.719,10.454,10.469,10,10,28,4,1.735,"Right",28,4,24,0,24,0,-24,0,0,24,"10-10",-18,6,28,10,4,10
"25",4,-1.1935833907052,0.600695317923228,-0.00461587014252718,0.5975039429245,1.14419556949134,1.87277283368582,-1.10857598097207,0.816793286564203,-0.38787315770188,-0.288591463068384,0.854618851505847,-0.367545264450608,1.08590305361088,1.27024594489185,-0.0237981869074302,0.487632487511553,-1.07802784673457,0.624579642772791,0.479541778522297,1.55288819924612,-1.42892849971592,0.664330420608435,0.0300870697547295,0.725224880447897,1.20685609209067,0.150717266645952,-0.766952894708081,0.65469603550903,-0.0338399224897743,0.0365783971070135,-0.144685293543472,-0.132797858466135,0.41327370436153,-1.40598744774803,0.198575703378796,0.867028218126814,0.21163071908044,1.3886381452149,0.148820060143806,0.200626817852663,1.01325854263446,0.61292588261219,0.237556318975496,"POL LIN3-Ref-POL LIN4-Ref",1488,"DG_s08",8.047,8.719,10.454,10.469,10,10,28,4,1.735,"Right",28,4,24,0,24,0,-24,0,0,24,"10-10",-18,6,28,10,4,10
"26",4,-0.524175832380033,-0.295846389037034,1.12197997046872,-0.301957749051649,-0.933776273461773,-0.230828022392574,0.969211991737462,-0.269323455954462,0.669903696881291,0.296278265347552,0.709657675003712,0.305920935178162,1.35258275668742,-1.33534531166725,0.545390281801124,0.201934793836671,-0.0810452213853936,0.499759885102017,-0.0430944347440978,-0.152199887801988,-0.37454663727162,1.62810550467928,0.00600668655975922,0.518824833166427,0.472157607167659,-0.262425177798641,-1.13067719983671,0.55981654772209,-0.210576550281323,0.144675387375339,0.456728178602797,0.332188797611167,0.679210675705933,-0.819596435778206,0.686318721232678,-0.592826998755168,0.449992530092,-0.256397468888035,-0.0746912951640202,-0.158431296517838,0.897567261435543,-0.378295760276233,-0.568859606784511,"POL RIN5-Ref-POL RIN6-Ref",1488,"DG_s08",8.047,8.719,10.454,10.469,10,10,28,4,1.735,"Right",28,4,24,0,24,0,-24,0,0,24,"10-10",-18,6,28,10,4,10
"27",4,0.0505912428687874,0.322543520216338,0.00973514002536713,-0.382869903110493,-0.178867522066837,0.0826590412751069,-0.0851589165192752,0.0771702416523776,-0.0310623221013413,-0.112657113052343,0.0285005864484364,0.336830004036488,0.120841087605393,-0.637734027586229,-0.57020082901909,-0.127684560332348,0.35598315033472,-0.92487314869638,-0.617800578332462,-0.384314077023377,-0.121808543286002,-0.78002651800115,0.39300144413989,-0.0754727501039256,-0.302071224793646,-0.670742406889805,-0.925183370507461,-0.722666863174442,-0.373503484668595,-0.306295330674375,-1.1519143812307,-1.19411585420236,-0.74655739876464,-0.77663320314087,-0.186768615413164,-0.991951423849319,-0.327829990659379,-0.583009586983112,-0.285514646271644,0.637073383574645,-1.34000016771628,-0.653293980282575,0.201959318023754,"POL LIN4-Ref-POL LIN5-Ref",1488,"DG_s08",8.047,8.719,10.454,10.469,10,10,28,4,1.735,"Right",28,4,24,0,24,0,-24,0,0,24,"10-10",-18,6,28,10,4,10
"28",4,-0.312705417207699,-0.447485569677236,0.878418161366409,-0.118227174481475,0.796821372644324,-0.882432468774377,0.19847199187237,0.375604750847916,-0.294920306978928,-0.439739455547233,0.366012959681609,0.256280045586887,0.906788431245984,-0.939023412434391,0.611725005087019,0.43649375985945,-0.647217274542701,0.312166689692475,-0.559885224558362,-0.945797598409854,-0.501839774152015,0.424445421343276,-0.744645071427977,-1.07917753325294,0.0377779935602809,0.5680271498213,-0.725596876457282,0.637708673022108,0.183589408905211,0.763936528181741,1.36429483909572,0.803099272000784,0.772361580148456,0.572848840100514,-0.0304919016598628,-0.5983956738548,-1.09014155354486,0.508232912307037,-0.646880219557416,-0.390127786151554,-0.440995837561208,0.0437081203632945,-0.361317160501918,"POL LIN9-Ref-POL LIN10-Ref",1488,"DG_s08",8.047,8.719,10.454,10.469,10,10,28,4,1.735,"Right",28,4,24,0,24,0,-24,0,0,24,"10-10",-18,6,28,10,4,10
"29",4,-0.471718051393495,-0.310284982546896,0.159316603489243,0.622686430451147,-0.794144051069676,0.282418481542231,0.173496155643655,0.341492078915616,-0.175496958969554,-0.527581134905482,0.135474276311021,0.959621930306811,0.412073513087706,-0.647525984249267,-0.0614839711741602,-0.330188208570504,-0.416397026500306,0.81013053491096,-1.08552044218656,-0.615971168664405,0.277254290278754,0.493768816126945,-0.14247007514408,-0.357299843552711,-0.594630499089181,-0.451288625592507,1.2341393618958,-0.331871852372544,0.270726731935169,-0.17492067311583,0.370959517313942,-0.459199833036092,0.248152199307204,-0.605947361924676,0.172936885730508,0.130764151437863,0.698252955654952,-0.120542698645517,1.40338814244423,-1.22793712885192,0.562114515646582,0.393238585587178,-0.229380052823138,"POL RIN4-Ref-POL RIN5-Ref",1488,"DG_s08",8.047,8.719,10.454,10.469,10,10,28,4,1.735,"Right",28,4,24,0,24,0,-24,0,0,24,"10-10",-18,6,28,10,4,10
"30",4,0.459771118964267,-0.0777350514417878,-0.512305459580404,0.130269392057925,-1.52167716509645,0.00620726356180645,0.0810101847279241,-1.15342827594446,-1.37211792474845,-0.320942450503099,-0.76258626940786,-1.35444386695595,0.633192494664613,-0.287412052315334,-0.652966320897559,0.0658239088892167,-0.840071503477532,0.171392798191508,0.170267064335455,-0.47222208042571,0.683717431821146,-0.184708279595317,-0.39695373242465,-0.187619266789575,1.0094251033544,0.187865009106654,-0.0924834579424649,-0.688078149067404,-0.238206211060472,0.132109934700826,0.23203948055785,1.1907032422808,-1.12593834614779,0.284539690541052,0.0464653627898057,1.19640939185766,0.405396001492738,0.10109794291031,-0.156203861448595,0.139106464990662,0.235713642277241,-0.636979748710005,-0.260070354979483,"POL RIN2-Ref-POL RIN3-Ref",1488,"DG_s08",8.047,8.719,10.454,10.469,10,10,28,4,1.735,"Right",28,4,24,0,24,0,-24,0,0,24,"10-10",-18,6,28,10,4,10
"31",4,-1.21039796742983,0.874838558962749,0.335706656008822,-0.000147247541740114,-1.41856606186225,-0.35077087275114,0.489994609848953,-0.357038739221363,0.192445859574044,-0.242879543975949,0.123437145031284,0.307100870402285,0.198196121714121,-0.269180647999558,-0.887785762182242,-0.863379998443328,-0.160141332998225,0.204491421045775,-0.982395391610313,-1.5296740948441,0.615367371298067,0.0147753242483049,-1.30285858256644,-0.957572222194898,-0.207820461604169,0.228039060755822,0.29277701327142,-0.779164148499297,-0.264839060972385,-0.464543977819917,-0.815291090766479,-1.26534480646494,-0.347893871165318,0.71449989661335,-2.11233949874311,0.110324128090646,-1.25689064983161,0.474815827828642,0.206243048715516,-0.9084879506317,0.128415335367162,-1.37298925320997,-0.754068794664728,"POL RIN12-Ref-POL RIN13-Ref",1488,"DG_s08",8.047,8.719,10.454,10.469,10,10,28,4,1.735,"Right",28,4,24,0,24,0,-24,0,0,24,"10-10",-18,6,28,10,4,10
"32",4,0.345456412041295,-0.665133792099122,-0.181886029575129,0.501563409632956,-0.643756923965142,0.437916665728438,0.256348115087057,-0.771402266179932,-0.0935282452402886,-0.646130398028754,0.580343839382009,-0.476563398459528,0.739965919066468,-0.386084180551086,-0.222260240039385,0.025945528671143,-0.683924489741527,0.289888042524177,0.0929806926696646,0.363681399631615,-0.113897313500145,-0.898443767515139,0.549406025292921,-1.33157273657388,-0.880967248287555,-1.28557827220179,1.69120855315962,-1.11813024072993,-0.867156167334533,-0.276300353967974,0.164644492858361,0.436418419972481,-0.0446053040390453,-0.136843558926754,-1.11135560100966,-1.42129471264892,0.529156999442845,-0.0545870401752229,1.25392070766599,-1.16429816434781,1.06140098443211,-0.302158101383188,0.304905191504195,"POL RIN3-Ref-POL RIN4-Ref",1488,"DG_s08",8.047,8.719,10.454,10.469,10,10,28,4,1.735,"Right",28,4,24,0,24,0,-24,0,0,24,"10-10",-18,6,28,10,4,10
"33",4,-0.080143945220261,-0.492066655312261,-0.177548004970621,0.749758605503142,-0.715275319271369,0.21775551472822,-0.284309284670208,-1.20404418473904,-0.0729246280590334,0.152810296207921,-0.460850173672288,-1.00415187552246,-0.0815897650036335,0.171862681248569,0.906780036513824,-0.083751600811103,-0.206486604996864,-1.67324134521295,0.997535133781383,0.287078105972374,0.183311184437942,1.03052856135617,-0.210581102767245,0.352758601506041,-1.02745603538999,0.771524881985097,0.204022444817036,-0.341536154576947,0.294207120173441,-0.463820723195819,-0.975131742885573,-0.159480687456782,0.448556928496433,0.815008036194198,0.00513003688444402,1.24469794040152,-0.151343378536203,0.745895596035355,-0.523448911528729,-0.411205392680376,-0.29821134350261,0.432116797835811,0.344020750027886,"POL LAM8-Ref-POL LAM9-Ref",1488,"DG_s08",8.047,8.719,10.454,10.469,10,10,28,4,1.735,"Right",28,4,24,0,24,0,-24,0,0,24,"10-10",-18,6,28,10,4,10
"34",4,-1.08853859669962,-0.0413810140946871,1.01929465411416,0.110624956680155,1.20176443532014,1.1941647284644,0.684196456542536,-0.00792622840786938,1.21374968699222,1.20809350718932,1.34972712577931,1.31214956010573,-0.204802940910099,2.10827346496822,-1.41986040408067,0.879357217680704,-0.0255382802013107,0.622708176101236,-0.422056989664526,1.42586890919388,-0.392822752407637,-0.13769496071346,-0.0169983443198074,0.362439566328637,0.465583802454771,-0.255530556904061,0.178103835384211,-1.2291125216259,0.536505462571449,-0.0162194357683116,0.172149023899267,0.362879916298091,1.19800195828495,0.494172783326377,-0.630626772533417,0.505849447782546,0.733073835678112,1.00454719582638,-0.0980494540159436,0.430690357173028,0.68559018499114,-0.189187446465214,1.14932990014723,"POL RIN9-Ref-POL RIN10-Ref",1488,"DG_s08",8.047,8.719,10.454,10.469,10,10,28,4,1.735,"Right",28,4,24,0,24,0,-24,0,0,24,"10-10",-18,6,28,10,4,10
"35",4,0.638131990975367,0.17188162127916,-0.490039915817133,-0.319973696437394,0.231850667341002,0.728808115873832,0.763870885220727,0.527773055313825,-0.605853548286552,0.122307947205661,0.590795759814273,-0.0946442899874909,-0.087688982515238,0.601854996308248,-1.75520474568246,0.80804802517866,0.0869790679423943,0.439490882690468,1.05348968520937,0.75172612662691,0.430505178157007,0.582779684826037,-0.248637785056317,0.315863541334375,0.890664464595337,0.97133536061606,1.07486219454752,1.02274233658163,0.747103059874771,0.607946575990361,-0.378510617882339,-0.456030056982242,1.15015352703871,1.16722862342595,0.664700036939486,1.43085743237437,-0.715925394719022,0.742703509027273,1.0174832370666,1.26208230861529,1.15497699247809,2.16117642829197,-0.448880713808572,"POL RAM8-Ref-POL RAM9-Ref",1488,"DG_s08",8.047,8.719,10.454,10.469,10,10,28,4,1.735,"Right",28,4,24,0,24,0,-24,0,0,24,"10-10",-18,6,28,10,4,10
"36",4,-0.969146879099668,1.04774972480381,-0.00369981376527129,-0.074903031938867,-0.216630272575153,-0.262878244387255,-0.186062973954069,-0.189463657367401,-0.55111755510876,-1.24604998766176,-0.0515896885545906,0.327534640538832,0.128416091528823,0.285655360081178,1.31538157065727,-1.37875006004432,0.21382829998833,0.342389701486662,0.195793972442258,0.104809211860108,-0.0464095703219214,0.652452406291693,-1.09029490401989,0.0725306050146068,-0.426898301599304,-0.278362214404301,-0.00586548867776893,-1.06166751683466,0.741822781307508,0.761467090384123,-0.805323303731861,-0.112083388901899,-0.694063502363741,-0.851441532957182,-0.762659363863936,-0.289207053840006,-1.55460275427581,-0.348376350587329,-0.175929765848097,-1.3795731460045,-0.144406579763877,-0.463381229987074,-0.58580311309665,"POL LIN12-Ref-POL LIN13-Ref",1488,"DG_s08",8.047,8.719,10.454,10.469,10,10,28,4,1.735,"Right",28,4,24,0,24,0,-24,0,0,24,"10-10",-18,6,28,10,4,10
"37",4,0.585888896164255,0.669508500462317,0.913962504450671,-2.16935990107724,-1.94417684306975,-1.8352534095859,0.828873966776862,-0.563975561901483,0.012988771098895,0.181565169251098,-0.387638038092343,-1.18295783080591,0.00185187943926479,0.0863990712855056,-1.34362695444078,0.133508705598236,-1.46097031028044,-0.772231248717268,0.0153948961644721,-1.75567410722066,0.542463889408606,-0.551245185445947,-2.43208812591016,-1.36805366695525,-0.274330947755758,0.294694421333794,-1.6745023001361,0.199947055614678,-1.1032486720553,-1.58125822593469,0.789696622314975,-0.946975406336127,0.750911151227847,-0.5820168441127,-0.471457666429578,-2.14729880820679,0.255409366396937,-1.12114587416769,-1.64884601077766,-0.852201886494661,-0.0743967235444369,-1.17491860968159,-1.3178849814603,"POL RIN11-Ref-POL RIN12-Ref",1488,"DG_s08",8.047,8.719,10.454,10.469,10,10,28,4,1.735,"Right",28,4,24,0,24,0,-24,0,0,24,"10-10",-18,6,28,10,4,10
"38",4,0.899746190154327,-0.510098982250516,-1.59128470154704,1.20163749364323,0.0832649621922352,1.11487520073331,0.374139039281509,1.2951089842285,0.817828742543829,-0.585539097270778,0.495812955293515,0.381127282131023,0.168447391750493,1.56773073539748,1.03774342721289,0.558270388218114,0.174742798686748,0.41273252202678,1.76615569975802,0.998040446220643,1.10729973393595,0.74994522288162,-0.391230719817725,0.726570302254228,0.781751504938826,1.15249487702966,1.91343664796564,0.284459231510133,1.71557311125515,0.395731598382646,0.692059653581525,0.708495883056917,1.32465296918246,1.20074996338429,1.01776915223442,0.441832248136739,0.0867275174017896,1.09762320465028,1.25518059636769,0.924720336566214,1.58366597681551,1.7580516540545,0.4313463079456,"POL RAM7-Ref-POL RAM8-Ref",1488,"DG_s08",8.047,8.719,10.454,10.469,10,10,28,4,1.735,"Right",28,4,24,0,24,0,-24,0,0,24,"10-10",-18,6,28,10,4,10
"39",4,0.860295618979991,-0.330193491207834,-0.317802949821984,-0.212299177950174,1.33162156940658,-0.70030412333193,1.1749002924966,-0.118100236564975,0.33239300393921,0.363937491221289,0.00839801678320962,0.317704132921551,0.893896781092267,2.60948086282445,-0.168546984985673,0.514916319596403,-0.260208767326609,0.140025966929595,1.09471701423404,0.915315264418372,0.721143630845682,-0.424240438834014,-0.0503298500051179,0.0679577660337949,-0.303208105314811,0.547445800776949,0.613304473062641,1.70457648697712,0.222128325588701,0.188571521501916,0.918589889026529,-1.07802974063634,-0.234051645277349,0.578518951833303,0.0162933108365642,-0.468378366634552,0.422905641936901,0.782445331031057,-0.519425417795156,-0.378627994232259,1.07762544536296,-0.797100555577293,0.825993479528761,"POL RIN10-Ref-POL RIN11-Ref",1488,"DG_s08",8.047,8.719,10.454,10.469,10,10,28,4,1.735,"Right",28,4,24,0,24,0,-24,0,0,24,"10-10",-18,6,28,10,4,10
"40",4,0.999021041039716,-0.886759824874769,0.202109371235144,-0.314370587400091,-0.128431522738846,0.773734992695742,0.370089279837471,1.13528653785192,-0.756772138287691,0.408542985018464,0.455746533111995,1.12951924831648,-0.378736129746353,0.112801781985164,-0.681899167007851,-0.137198015951029,0.850400725115943,0.446246601370091,-0.00376725732075478,-0.0201923613427684,0.653977202862052,-0.367765281383646,-0.463566001191077,-0.967530335910221,-0.285992833441049,0.572416602598957,-0.885440479248964,0.371542416445803,-0.490292674162935,-0.36992190368171,-0.0645790223959,0.670759231911962,-1.191435985572,1.61032693411685,0.511662054005359,-0.351400525696485,1.33304433456472,0.158377350630445,-0.535713742140841,-0.124846932621566,-1.15711770967943,-0.972784430326403,0.620393341673584,"POL LIN1-Ref-POL LIN2-Ref",1488,"DG_s08",8.047,8.719,10.454,10.469,10,10,28,4,1.735,"Right",28,4,24,0,24,0,-24,0,0,24,"10-10",-18,6,28,10,4,10
"41",4,0.37739883971781,-0.0800461616439017,-0.399284596928255,0.101931918854346,0.102712376241968,0.0555903471885211,-0.896138597453234,-0.658514199742434,0.740072353717248,-0.385639235890543,0.00493386942791485,-0.251880613694054,-0.269473545765499,0.330929631497423,0.608595238271323,0.318621207076156,-0.18737545869986,0.62223775970969,0.185906730951647,0.596765260720373,0.561003903623841,0.729373960086826,-1.0929732309171,0.297015232213645,-1.02005416940979,-0.580482928608755,1.26098510375091,-1.39208538259075,-0.0485170013344272,0.41902193591416,-0.834767885878362,-1.61535937719493,0.21191166820696,0.106838661827174,-0.358721432138153,0.261111424837625,-0.284883999075001,-0.772201046455761,-1.24426525751446,1.17013114710632,-0.226166667840267,-0.574276463531387,0.301501844021306,"POL RIN1-Ref-POL RIN2-Ref",1488,"DG_s08",8.047,8.719,10.454,10.469,10,10,28,4,1.735,"Right",28,4,24,0,24,0,-24,0,0,24,"10-10",-18,6,28,10,4,10
"42",4,0.11247442133403,-0.113619238820374,-0.30060162264612,0.301746440132464,0.215205605165664,-0.532936895479259,0.233614864230786,-0.143426053945644,-1.54568887085985,-0.252772198684959,-0.200986026948268,-0.499342936915659,0.627062722289794,-0.523714573736946,1.46687443450744,0.325668451626096,0.400105878045317,-1.28524281787244,0.197251205814823,0.0978928902264449,-0.981733997746479,-0.0431383976298938,-0.68476758994672,0.012124535396115,-0.248725554929422,-1.70101644679527,1.00878677706556,0.189033465379223,0.641456646235228,0.134163683376126,0.663530201732554,-0.686116511014569,-0.614376759491341,-1.03852609884016,0.472708307249024,0.142960757801057,0.544569415356082,-0.571061853416452,-0.0712531808754564,0.634333640031436,-0.31282449306345,-0.2892522135756,0.761286705882368,"POL LIN11-Ref-POL LIN12-Ref",1488,"DG_s08",8.047,8.719,10.454,10.469,10,10,28,4,1.735,"Right",28,4,24,0,24,0,-24,0,0,24,"10-10",-18,6,28,10,4,10
"43",5,-0.170150246176125,0.21369970571321,-0.228516713854267,0.184967254317184,0.365105296268126,-0.524974749730661,-1.56590686098615,0.0954832351322716,-0.0471581706953121,-0.114843520548833,0.151856131603884,-0.555981667310343,-0.321928220481758,-2.42771086097553,0.239697322277225,-1.46416817591816,0.00722151280937045,-0.374167517110098,0.0455413078362676,-0.356025557186104,0.165428696727467,0.504283286973155,-0.813098527170851,0.477673767291502,1.21687234332303,-1.02433438352432,0.40134620458263,0.158353820795911,0.420922724733224,-0.676334154358698,-1.38469437737673,0.652391652344452,-1.18379090723941,-0.535173515632517,-1.05521767217501,0.715740923004662,0.582172213930422,-0.764419297934369,0.269236121452993,0.487742331196151,-0.376293136802525,0.989393830684479,-0.0668442912227647,"POL RIN11-Ref-POL RIN12-Ref",1489,"DG_s08",11.469,12.141,13.125,13.141,10,10,22,6,0.984,"Left",22,6,16,0,16,0,-16,0,0,16,"10-10",-12,4,10,22,10,6
"44",5,-0.289460284266648,0.168742352182282,0.132637347540166,-0.0119194154558007,0.145646105711852,0.517925426721805,-1.93380319846658,-1.17633778278271,0.128184225956939,-0.21544655514865,0.746393673563238,0.284099384973819,-0.717548184504234,0.242172841402985,0.557829008938858,-0.0791483321147171,0.0787994697914494,-0.0832387156908094,0.918456755314588,1.08610203124534,0.798096615420294,0.118500457779664,0.13562125238469,0.807491456039059,-0.136346766651088,0.0735156065276032,0.0796290355613682,-0.420843632197212,-0.0935877792916848,-0.331907787116065,0.145568478014251,0.896003448562538,0.75695875495092,-0.61571800061231,-0.870918589754838,0.255301673178819,1.97117774377157,1.72157720375766,-0.953832072964676,-0.416884852881966,0.266301438185963,0.883239986350383,1.43272786391734,"POL LIN12-Ref-POL LIN13-Ref",1489,"DG_s08",11.469,12.141,13.125,13.141,10,10,22,6,0.984,"Left",22,6,16,0,16,0,-16,0,0,16,"10-10",-12,4,10,22,10,6
"45",5,0.609141734300088,0.0263108757013857,-0.26235006443981,-0.373102545561665,0.523312989251668,0.27357144002608,-0.213209309485908,0.750865634260921,0.866992058484193,-0.206387278534747,-0.170998908430678,0.0478131283609908,1.06310968207314,-0.680490309183532,-0.113626170244266,0.732011294764654,0.692247414493393,-0.00721920494476391,1.0154189725665,-1.13395352234143,-0.708699927820774,0.592618482564805,-0.449916801365538,0.258221383494545,0.675014737746515,0.222301051909886,0.737910207541909,1.72220424866551,0.0877328978167702,0.774087318291913,0.728887727686667,1.25994347834273,0.295383181473209,-0.372908682705181,0.6343869368379,-0.670894313815175,-0.705296393371637,0.348792758729378,0.0863342961901865,0.34852359783683,1.02065602974007,0.370028371157197,0.253939986240783,"POL LIN3-Ref-POL LIN4-Ref",1489,"DG_s08",11.469,12.141,13.125,13.141,10,10,22,6,0.984,"Left",22,6,16,0,16,0,-16,0,0,16,"10-10",-12,4,10,22,10,6
"46",5,0.27831037093086,0.116404140066837,-0.819775064684134,0.425060553686437,-0.719708849898427,-0.477156377369924,0.226313595497157,-0.364136556903618,-0.795738651454121,-0.251967711437534,0.536460813789933,0.264725323082175,0.484591535246115,0.374306004036708,-1.70925331986233,-0.623868097171192,-0.787640663694218,-0.320977908138069,-0.22710992304718,-0.183974151218375,-0.184985679235003,-1.30745381673622,0.170412931430223,-0.128753458541002,-0.806433249435476,-0.365745029932479,-1.7645988551795,0.219967461627882,-0.110237286026172,0.686520118029476,-0.297233113673686,0.940369853626384,0.345303799309671,0.178464377221096,1.20030486292444,-0.413860155961703,0.16800073951384,-1.70461702059025,-0.440333957314359,-1.50999668064408,-0.057029474578439,-0.245662649306944,-0.62676802467266,"POL RAM7-Ref-POL RAM8-Ref",1489,"DG_s08",11.469,12.141,13.125,13.141,10,10,22,6,0.984,"Left",22,6,16,0,16,0,-16,0,0,16,"10-10",-12,4,10,22,10,6
"47",5,0.24561993045835,-0.160773142019395,0.278236581642348,-0.363083370081303,0.0425606708622399,0.479629399063389,-0.53219330132633,-0.144106873128001,0.700371268046351,0.676852697989037,1.18380376204491,0.0124204617254327,0.356326094752191,0.216140064160329,-0.687246481139637,0.433739821722928,1.22756357651246,0.908189080983532,-0.466316497766012,1.18919527502038,0.635973003578716,0.383581816009822,0.60658782520154,0.283418730108767,-0.176408818681289,-1.59423054734223,0.124506045816076,0.253012807228112,0.204034567075428,0.464650202756904,0.299703770339809,-0.1585119966328,-0.0963457381662316,1.5975852888249,-0.528540062950319,0.534091082095713,0.358866854111805,1.15640135542339,1.26100275650899,-0.598761441833119,0.0998802580444664,1.19760935620581,0.230427751210841,"POL LIN9-Ref-POL LIN10-Ref",1489,"DG_s08",11.469,12.141,13.125,13.141,10,10,22,6,0.984,"Left",22,6,16,0,16,0,-16,0,0,16,"10-10",-12,4,10,22,10,6
"48",5,0.100612775386181,-0.527200886660471,0.661793947972648,-0.23520583669836,0.116225822921082,1.73296026003201,0.976236683816504,-0.227463192783308,0.943155176932697,0.845373910689875,0.422615306173403,0.70657927395313,0.0869989035516596,0.812972104541735,0.188029270662961,-0.581320872725227,0.794380495835726,0.768723294937248,0.584639286393374,1.22690919898274,0.854275030739393,0.61565049655905,0.861745354104558,1.59145260874683,1.35420304485945,-0.502486055382906,-0.147129959715202,-1.31793634240535,0.21108126593006,0.593020287831605,-0.117024033357456,0.383316617270541,0.770472056676998,0.0863169935478432,1.12520197478876,0.0278217983838802,0.234790555374361,1.54764129334644,-1.38817246134104,1.27539263232523,0.589219447071949,2.28531007863397,0.655101790694225,"POL RIN2-Ref-POL RIN3-Ref",1489,"DG_s08",11.469,12.141,13.125,13.141,10,10,22,6,0.984,"Left",22,6,16,0,16,0,-16,0,0,16,"10-10",-12,4,10,22,10,6
"49",5,0.566572282006035,0.101871779744122,-0.227024148456962,-0.441419913293194,-0.602264006338695,0.866170282774732,0.483644770925221,0.0795814726553785,0.116337907385586,-0.0100172548924156,1.59936842430985,0.750760358771767,-0.0933062133322453,-0.2887590122059,-0.277120760508205,-0.0301289336694399,0.904736679803054,-0.0849170541460489,-0.685407496578555,0.749294799154295,0.600158820359527,1.37583826226081,0.234550483133869,1.67895940161532,0.329079543666206,0.636601453408775,-0.725100396890961,-0.464240405087291,1.62633079138574,0.233486522645564,1.73659901105878,-0.448488449139103,1.47767320999989,0.16450534918574,0.17593304802375,0.657288858562795,0.375964833869874,-0.142476230964572,1.2132609286403,0.47332582020488,-0.631840563011151,0.667951645517718,-0.462612931667682,"POL RIN1-Ref-POL RIN2-Ref",1489,"DG_s08",11.469,12.141,13.125,13.141,10,10,22,6,0.984,"Left",22,6,16,0,16,0,-16,0,0,16,"10-10",-12,4,10,22,10,6
"50",5,0.452981877932817,-0.498275764558093,-0.169758889470835,0.215052776096111,-0.711445031581798,0.545517263284324,0.105051880881783,-0.601042429382546,0.216829439572283,-0.857337301967597,0.0248340094783679,-1.35691603682805,-0.726528942965486,-1.4809211603691,0.322649283783367,-0.730111410636459,-0.155869423985176,0.00227201181744796,0.281371223730531,-0.391955095201923,0.883847244451999,-1.13555408841882,-1.593063590141,0.067456002462152,0.235313361794433,-0.485724555933785,-0.0170217513129185,-0.0103160526597028,-0.198446612633123,0.741076134554318,-0.684297187629833,-0.232471798649491,-0.028854900169891,-0.875537382766158,-2.20481861402465,-0.163604395281528,-0.0385356044542213,-0.499806804005481,-0.11120679475158,-0.277832693347088,-1.11933481079211,-0.693639629921653,-0.212810899067868,"POL LAM9-Ref-POL LAM10-Ref",1489,"DG_s08",11.469,12.141,13.125,13.141,10,10,22,6,0.984,"Left",22,6,16,0,16,0,-16,0,0,16,"10-10",-12,4,10,22,10,6
"51",5,0.245083137942748,-0.00532958699829233,0.047328820633358,-0.287082371577814,-0.0565194282104255,0.162469735804853,-0.691632690950729,0.0995169744175248,0.588930395068171,0.380984601085882,-0.454749780696086,-0.447212105376675,-0.69561937428814,-0.418237286903935,-0.373329494060479,-0.300161830376643,-0.392512515038416,-0.23002015532228,-0.67949852752767,0.469136686705932,0.487848889129579,0.716840676132458,-0.769463998215746,-0.571373215164271,-0.458716217768419,-1.31743422274894,-0.579845324549134,-0.254203186387171,1.21450373333703,2.05112272578739,-0.286175820448057,0.582592539739044,0.131933419671037,0.178788111371952,-0.0635892886653568,-0.902800786715955,-1.02615452638088,-0.700943167243978,-0.0314075549782875,-0.125271948015886,0.139044426260283,-0.98880817818736,-1.64332590646863,"POL RAM8-Ref-POL RAM9-Ref",1489,"DG_s08",11.469,12.141,13.125,13.141,10,10,22,6,0.984,"Left",22,6,16,0,16,0,-16,0,0,16,"10-10",-12,4,10,22,10,6
"52",5,-0.70885906645504,2.11494493769892,-0.77825403562577,-0.627831835618113,1.09582198248042,-1.23436915072484,0.92928633518954,0.424900863977642,0.398482882364123,1.86778835685236,0.264787812009772,0.888861051715406,0.951761187466003,-0.0608394331717244,-1.37710168546293,0.366982993276967,0.9677733805197,0.720990237667539,0.0115009103200845,0.806668388768566,1.33382267385037,-0.40084832383537,1.74718965721523,-0.00597074632156502,0.740574807529131,0.941807562510431,0.976873642321807,1.04369972147038,0.579970312507124,0.586003609101293,0.623960833554444,1.06068176756273,0.971096072797331,0.055074556162384,0.943248245421556,0.884713078154978,0.677082745470472,0.332624720038536,0.647813793989605,1.63546476048855,0.516121640532212,0.257603306580529,0.401647502296222,"POL RIN9-Ref-POL RIN10-Ref",1489,"DG_s08",11.469,12.141,13.125,13.141,10,10,22,6,0.984,"Left",22,6,16,0,16,0,-16,0,0,16,"10-10",-12,4,10,22,10,6
"53",5,-0.01936333167402,-0.0698991484764275,0.627406463959666,-0.538143983809219,0.212994569861695,1.322878874299,0.568734640668177,0.733970708286653,-1.03623222567145,-0.119017651938163,-0.274414562080499,-0.15341112557313,-0.130970434724103,0.513575628304779,-0.945388213305961,-0.259782509687358,1.12264566096595,0.960003358449699,-0.356883561445779,-0.237398684323385,-1.67113821949737,0.63932903394281,0.390632996527352,-0.756825248555274,0.820841809159578,-0.829458067452599,-0.613806559852125,0.289779714991628,-0.217694082197131,0.84917254878374,0.813726426720316,2.0885838727245,-0.247252884438676,-0.211609323434587,-0.176819303699063,1.5769440122995,0.675859189286685,0.859297073079568,-1.15731306656219,1.04026656375099,0.538553126603974,0.710589672651888,0.488481721642006,"POL LIN1-Ref-POL LIN2-Ref",1489,"DG_s08",11.469,12.141,13.125,13.141,10,10,22,6,0.984,"Left",22,6,16,0,16,0,-16,0,0,16,"10-10",-12,4,10,22,10,6
"54",5,-0.930055189483689,0.0658537507589267,-0.662032133686151,1.52623357241091,0.533385580907657,0.896490233779666,0.352069258257365,-0.283211363894428,1.49743538220616,0.0613051296116853,-0.706741013968867,1.25439130723781,0.761393276957492,1.10521054680911,0.241393953057353,0.0460561659965193,1.62653301444252,0.854893508420532,0.833086391850968,0.91112353284322,0.750169104867104,0.546411843413109,-0.434798632636036,-0.871027816854517,0.0626971824813802,-0.127738137867017,-0.139743207144986,0.993779443175283,1.54138501069664,1.09084011763941,0.425555939040978,-0.164538405642273,0.298786399898982,0.993197782101092,0.00537881833727782,-0.420310862240547,0.000119711899038588,1.0759541436646,1.11283541256195,0.73489723027397,0.433064446912342,0.882568467418337,1.28409552488606,"POL LIN10-Ref-POL LIN11-Ref",1489,"DG_s08",11.469,12.141,13.125,13.141,10,10,22,6,0.984,"Left",22,6,16,0,16,0,-16,0,0,16,"10-10",-12,4,10,22,10,6
"55",5,-0.0783945395271113,-0.298509888413712,-0.0783945395271113,0.455298967467934,-0.210816329464953,0.70142698433697,-0.251370880428477,0.0567388421156165,-0.0936104944017946,0.324138788325996,-0.401467344477116,-0.150700984994986,0.299980442182569,-2.63029676077538,0.0625726506256608,0.0906284344182078,-0.206785226971984,-0.0126799237559667,0.596291755518517,-1.12334539169163,-0.370445781506542,-0.272473834492792,-0.294894384986155,-0.766688412523985,0.0933459721912295,-0.889356347826467,-1.24833908285172,0.607300923580861,-0.857112410349001,0.10156011482579,-0.590136739156509,-0.235609026405777,0.388278535358529,-0.608539556130631,0.510020249567738,0.648332960014797,-0.0249127652590042,-0.914404440140463,-0.672087282279906,-0.148699321929071,1.26079443817898,-0.659750921629586,0.865317365780214,"POL LIN2-Ref-POL LIN3-Ref",1489,"DG_s08",11.469,12.141,13.125,13.141,10,10,22,6,0.984,"Left",22,6,16,0,16,0,-16,0,0,16,"10-10",-12,4,10,22,10,6
"56",5,0.511157179672164,0.600032338024763,-0.641986903977153,-0.469202613719775,1.30752042102636,0.587683717618408,0.0752208669295609,0.82310303510625,0.653416526870178,0.827821976623973,1.41703063761368,0.31333047933805,1.241693016124,1.42140285019586,0.563071950530199,1.1989769097918,1.35225855906139,-0.475754107139389,1.14046382537132,0.440717365938502,1.06939831269649,1.67466393151281,1.87126488684913,1.14168718683143,1.21098865267355,1.09212892649969,0.906836088737621,2.20365325804075,1.26181488944706,1.99040925053396,0.2261867659491,0.496410652998488,1.66572714979357,0.240097783275007,-0.306748987145962,0.679296653480869,1.39019744947248,0.0911941465075139,-0.100398441714373,1.58082306301698,0.927081678196879,1.31616967362371,-0.126650270944953,"POL RIN10-Ref-POL RIN11-Ref",1489,"DG_s08",11.469,12.141,13.125,13.141,10,10,22,6,0.984,"Left",22,6,16,0,16,0,-16,0,0,16,"10-10",-12,4,10,22,10,6
"57",5,-0.154357269536943,1.19462728680742,-1.58921856393018,0.548948546659711,1.48282076388045,0.358035232346429,1.14907294707976,-0.35348369227074,0.50902687973322,0.506147733261552,0.625282511906421,-0.285316431340816,1.4129658233746,-0.100213114698765,1.25832990293935,0.186062236755112,1.64182209638926,1.08966646799826,0.619823693992096,0.440467446904375,0.630933903837784,0.142024393034882,-0.040198364173951,0.26239860079103,0.232011938228893,0.507085508515831,0.565624840022252,-0.101136708383227,0.389973814181722,0.944904494407513,0.611949799019038,0.330976751434651,-0.359284581379112,0.993716441020227,0.975464627903213,0.256453436774722,0.915176278828602,1.26951662570318,1.3370650220554,0.737259454224939,0.153680986826315,0.392079186223659,0.686751568476554,"POL LIN4-Ref-POL LIN5-Ref",1489,"DG_s08",11.469,12.141,13.125,13.141,10,10,22,6,0.984,"Left",22,6,16,0,16,0,-16,0,0,16,"10-10",-12,4,10,22,10,6
"58",5,0.159828134924011,-0.951924947305157,-0.713339834546,1.50543664692715,0.641017745759832,1.39834141281875,0.765761506248363,-1.03456377688218,0.501690814188858,0.0656690007530916,0.571823318045968,1.43453827171687,0.434588495861836,1.83711884148054,0.639333326238459,0.345404093426051,0.0821812798537218,1.2001950085473,1.89611156946257,0.812789841659103,-0.254211326942271,1.00521801086207,-0.368540900718258,-0.018047059293206,-0.561042886019862,-0.564275931855265,-1.57458072057562,0.702637696597191,0.221435037622713,0.0901817363419264,-0.499846873801379,-0.191809210468878,-0.176781867677873,0.172134170140461,-0.441479179490671,0.241873574711987,1.51568591194188,2.13502358421397,-0.466364697262899,0.129366780668372,0.38591150528073,0.367146082982715,-0.143236993787976,"POL LIN11-Ref-POL LIN12-Ref",1489,"DG_s08",11.469,12.141,13.125,13.141,10,10,22,6,0.984,"Left",22,6,16,0,16,0,-16,0,0,16,"10-10",-12,4,10,22,10,6
"59",5,0.237663275978325,0.322264459737741,-0.897301958759654,0.337374223043588,-0.537750349766337,0.976765099433127,-0.0830335271843854,0.650093072629716,-0.103127419207389,-0.321770638160477,-0.401851922360202,0.120225359014164,-0.0412166763169417,-0.954735781742809,-0.105711490205659,-0.0780781832412538,0.296687539222157,-1.36495227095325,-1.24405371256692,0.154768267041041,0.151781686432414,2.24646264856611,-0.00703761605474051,0.160732659672035,-0.0289015439682063,-0.455021018145847,0.412790885460106,0.0331987669981737,-0.0376825641283189,0.370855633691408,0.250021285089831,0.00200289627990924,-0.011143268143782,0.349985743388839,0.362119033635226,0.79564307559654,0.664688064340254,-0.884777193135898,0.0570929463166543,-1.16255118736298,-0.247575874263489,-1.62466117093767,0.491920361303166,"POL RIN5-Ref-POL RIN6-Ref",1489,"DG_s08",11.469,12.141,13.125,13.141,10,10,22,6,0.984,"Left",22,6,16,0,16,0,-16,0,0,16,"10-10",-12,4,10,22,10,6
"60",5,0.0385376069236942,0.499578746727574,-0.0817705988256314,-0.456345754825636,-1.30761055239801,-0.323927513493501,-0.348650371186829,0.177127438877766,-1.19414792716222,-0.316072434275181,0.322720987814565,-1.63154636637417,0.743850104844375,0.841005581101688,0.0260488192935373,-0.619135519852669,-0.596048875401419,1.79135905556387,0.523978255482974,1.55442255737093,0.498929581275786,1.66356989478197,0.217146613599887,0.303407820135186,0.300628376630264,0.882792655941844,0.918786800213245,-0.876210720207538,0.402944215892814,0.134023534151079,-0.554401387919768,0.395355985754145,0.423418942007296,-0.994567984685548,0.280169536761035,-0.369394055661023,-0.482516441326443,1.9055210999734,0.680913274186308,0.577975779677923,-0.369206508773752,-0.500530173456902,-0.573885853241742,"POL RIN3-Ref-POL RIN4-Ref",1489,"DG_s08",11.469,12.141,13.125,13.141,10,10,22,6,0.984,"Left",22,6,16,0,16,0,-16,0,0,16,"10-10",-12,4,10,22,10,6
"61",5,0.0676759214640437,-0.181472567105479,-0.411425412086412,0.525222057727848,-1.35669886452653,-0.560285958286618,-0.693136062726101,1.2405410573314,-0.159813634167192,0.376963158611476,0.0286650205295969,-0.0530578857662123,-0.818727389781856,-0.223158628291175,0.687484226220011,-0.554496719480897,0.876513378715728,2.36084421964332,0.306847569590164,0.898968927930518,0.610616512054994,0.174699737968687,0.765533261980306,1.58212115282195,0.995524420676839,0.54702581978342,0.495755319236975,-2.27377462849648,0.152072612710517,0.671513627114565,-0.810799359413294,-0.132101434753344,-0.0733073021482786,-0.05053561754166,0.581420969844578,0.601307282650661,0.0280830330259008,1.01851708166898,-0.408155666693689,-0.416089166705112,0.913423804790589,-1.43025477588144,-0.459581086406153,"POL RIN4-Ref-POL RIN5-Ref",1489,"DG_s08",11.469,12.141,13.125,13.141,10,10,22,6,0.984,"Left",22,6,16,0,16,0,-16,0,0,16,"10-10",-12,4,10,22,10,6
"62",5,0.892726140633541,-0.526410449299446,-0.683972234606398,0.317656543272303,0.610169229179246,-0.734143017434774,0.51658425788287,-0.0916756649445527,0.068892779124277,-0.413719230517526,-1.00898310117912,-0.303553314149879,-0.642673273071615,0.634421201255725,-0.910651783275632,0.572679017420187,0.3135279337775,0.4534821387219,0.456990117804746,0.53403355162445,-0.758362924522879,0.348870107189138,-1.53672625250936,0.529081768714252,0.456330731834018,-0.383717222592638,0.145896557417896,-0.566411288237985,0.381740625593276,-0.109301386518062,-1.26080882026366,-0.802738927126506,-0.710231091491308,-0.0639317571816358,-0.341412300077608,1.06085370442444,0.0922135136610951,0.41706549445914,0.227963725665822,-0.047831784388896,-0.241154491844474,0.756833755295802,-1.28504384079868,"POL RIN12-Ref-POL RIN13-Ref",1489,"DG_s08",11.469,12.141,13.125,13.141,10,10,22,6,0.984,"Left",22,6,16,0,16,0,-16,0,0,16,"10-10",-12,4,10,22,10,6
"63",5,0.601169703763673,-0.464644917252169,-0.428589152451236,0.292064365939732,0.447518790947337,-0.995581516430033,0.804864650711303,0.0538002822204078,-0.360900165771127,-0.0583564443586722,0.0102946170051768,-0.659132149105076,0.832322599017838,-0.99882846775239,-1.08897653448957,-0.635151674734484,-0.481591257192247,-0.901461754449995,0.162574247934425,-1.06501185388096,-0.15252914407551,-0.722777250911461,-0.32177002933455,-0.354977481565809,0.666513469670783,0.160548567663995,-0.357828682584957,-0.527936892688254,0.561734959925358,0.148575259718233,-0.29861963367377,1.05808751854177,0.692078038914807,0.0719639165251522,-0.232145630068576,-0.421373640660528,0.80446782530927,0.463367577695944,-0.40376975473021,-2.06656836040003,-0.623911703490102,-0.337852307428829,-0.260369267486051,"POL LAM8-Ref-POL LAM9-Ref",1489,"DG_s08",11.469,12.141,13.125,13.141,10,10,22,6,0.984,"Left",22,6,16,0,16,0,-16,0,0,16,"10-10",-12,4,10,22,10,6
"64",7,-0.0421607111419064,-0.509565473378486,0.396730516857855,0.154995667662537,0.126931736848555,0.305479657001662,1.43971023596451,0.52298218384723,0.882898839492476,0.40641812230198,0.855951368270843,-0.595604516723141,1.76180494595879,0.564261678005429,1.55591877146111,0.479310124570012,0.33670935865454,-0.350839189756014,-0.0491123010095289,0.316915244030385,2.23025065043504,0.564987865151555,0.265372747984626,1.92934633631846,-0.996920481141645,2.0303814088157,0.035231149017434,0.155117196495403,0.977579212327824,0.207921076194036,1.69530180042777,1.23652888950151,1.40071954377643,0.0576781268629805,0.15970018927684,1.15087277484274,0.500954674182733,-0.0882966452255751,-0.517748533948667,0.640466086985678,0.558514303136678,1.3492716335537,-0.0396917748562333,"POL RIN2-Ref-POL RIN3-Ref",1491,"DG_s08",17.813,18.485,19.547,19.547,28,4,10,10,1.062,"Left",28,4,24,24,0,0,-24,0,-24,24,"Advent",18,-6,28,10,4,10
"65",7,-0.752322512701485,0.217907662352862,0.529313214591414,0.0051016357572089,0.424219802497999,1.20359126584257,-1.34631089205578,-0.199370437743644,0.840769881249217,0.070094066331559,0.506571729719417,-0.571187008637726,-0.670345767007141,-0.187025893494668,-0.689247433629633,-1.08392453277947,-0.133057176599708,-0.455145929608064,0.878513883352295,0.94440528493648,0.166003402950219,0.0612108616676759,-1.70201727930477,0.330101314077652,-0.200002216221012,-0.87917544334461,-0.656439137684111,-0.797411606070507,-0.319102740408196,-0.776048505895272,-1.44426270722688,-0.252771214470759,-0.377322606861771,-0.658080882739379,-1.59033533799356,0.538850737389935,0.216149216735474,-0.836634871582231,0.232184110388781,-1.39236281257151,-0.357153437458867,-0.0758805204767001,-0.835122975058062,"POL LIN1-Ref-POL LIN2-Ref",1491,"DG_s08",17.813,18.485,19.547,19.547,28,4,10,10,1.062,"Left",28,4,24,24,0,0,-24,0,-24,24,"Advent",18,-6,28,10,4,10
"66",7,0.146969833433813,1.32439745815361,-1.74211301390742,0.270745722319996,0.502625526597956,-0.0410861753529193,0.358101559239612,-0.119780984215183,-0.200539094537605,0.560575563403671,0.530864325032233,1.08494754681877,1.49000422492615,0.252635452535808,-0.105216832258305,0.100723260379359,0.413023990460049,-1.42270763077342,-0.158208403478483,-0.449833463805956,-0.0763967369729286,0.511207302161491,0.109518363129187,-0.803431301362078,0.50221972917304,-1.14232713314061,0.615458301976481,0.0218421602772785,0.429332869597727,0.105203906284745,-0.703546403721056,-0.734422238296366,-0.142388055195717,0.480036033313224,0.121661254137824,0.206608099753545,-0.0113887598088964,-1.29490734500524,-0.961407835350021,0.160322536389385,-0.238854670755922,-0.240006160911251,-0.325550143204673,"POL LAM8-Ref-POL LAM9-Ref",1491,"DG_s08",17.813,18.485,19.547,19.547,28,4,10,10,1.062,"Left",28,4,24,24,0,0,-24,0,-24,24,"Advent",18,-6,28,10,4,10
"67",7,-0.720869073721665,0.687195859811206,-0.533390905475913,0.567064119386371,-0.399945151003898,-0.30390159522772,-0.620958162831403,-0.0079903112991242,-0.208938035217332,-0.73591947148603,0.750909946534056,0.440583912428715,0.548374963791994,-0.0561543277052681,0.459974064549994,0.0570622405514172,0.909091606678968,1.06391639207463,1.20343339831751,0.382878746918061,0.292694637769521,-0.445080485031419,-0.49467906155929,-0.545692227085733,-0.351253809201342,0.0475273221178143,0.205641316054644,0.064277446995304,1.50257869871366,0.737470956848878,0.346778857190641,1.0534495840961,-0.127223402171349,-0.734758630390884,-0.723032612586606,0.40442038335146,0.343056659864585,-0.190367960158871,0.71887507131501,-0.111513993265426,-0.0595936275137103,-0.716935807215838,-0.409164368046877,"POL RIN9-Ref-POL RIN10-Ref",1491,"DG_s08",17.813,18.485,19.547,19.547,28,4,10,10,1.062,"Left",28,4,24,24,0,0,-24,0,-24,24,"Advent",18,-6,28,10,4,10
"68",7,-0.162827068441313,-0.0567707124622991,-1.006710832223,1.22630861312661,-0.662362712658509,-0.824779312231727,-0.40348391081991,-1.39357437607488,-1.38631553093373,-0.472989494430242,-0.56719587049613,-1.32388522401519,-0.551842647933869,-1.03692766995506,-0.255231782480476,1.19980816647568,-0.8155488692047,-0.87753280879754,-1.1193386010185,-0.149912878572366,-0.573592797992759,-0.794388536724221,-1.80291551285768,-1.67804255272089,-0.905909811156628,0.596378096843204,-0.687521618572138,0.12850606273534,0.415059665253935,-1.44247184819848,-0.574339289517421,0.199981602990336,-0.192729517351476,-0.0935318371714065,-0.804897060437116,0.316514271667019,-0.285873415588544,0.429941439073157,-2.10513135530478,-0.413755120712305,0.499754617765566,0.611852589787341,-1.14967301091191,"POL RIN11-Ref-POL RIN12-Ref",1491,"DG_s08",17.813,18.485,19.547,19.547,28,4,10,10,1.062,"Left",28,4,24,24,0,0,-24,0,-24,24,"Advent",18,-6,28,10,4,10
"69",7,0.340222314528571,-0.603129864194602,-0.100813256765814,0.363720806431846,0.80637306930961,-1.03451536136081,-0.134990599597838,-0.084848959050976,0.625779584553155,0.343751891579425,0.799601967131805,0.152444558221294,0.792650038768409,0.241756688329366,-0.991021343393027,-0.552290773442234,0.697255010307772,1.1502134408869,0.386518068625447,0.77435651421409,0.812333036093414,-0.132405915802762,1.71905736425006,0.331439602224096,-0.599926386499142,-0.375861700498685,-0.995278548907044,0.155683654617168,0.212526555027139,-0.0328191177400146,-0.370503464534766,0.190023081485051,-0.714928287406495,0.584155642231942,0.203148842799048,0.903928124752022,-0.264957653168159,0.497239273465119,0.719539198003345,-0.072776766468162,-0.490459822048261,1.13340153330995,0.365683556150306,"POL LIN12-Ref-POL LIN13-Ref",1491,"DG_s08",17.813,18.485,19.547,19.547,28,4,10,10,1.062,"Left",28,4,24,24,0,0,-24,0,-24,24,"Advent",18,-6,28,10,4,10
"70",7,0.0553726994706456,0.889562602940412,-0.693705674187919,-0.251229628223138,0.324256835495831,0.961602183285451,0.593738825109289,0.718864874797574,0.930378342833919,-0.067580838514572,1.55963870270296,-0.280883499991336,-0.653515815707667,0.0809695466617546,0.484075156699938,-0.420854277535096,0.507946905571359,-0.317400498206249,-0.508664081816107,-0.34074786220324,0.591815227389517,0.496098815681374,0.984371069902856,-0.55758536951087,-0.777399080152,0.772385298862978,0.942125000314045,-0.438484345230364,1.0201130340255,0.23628715877113,-0.0214257950744368,0.443000427300715,1.199751782078,0.0752368547073381,0.911763892546138,-0.70587851912992,0.0732681017051444,0.454973293337705,0.850058605311772,-0.370779217025051,1.88355125452189,1.32855441244276,1.25931978197805,"POL LIN2-Ref-POL LIN3-Ref",1491,"DG_s08",17.813,18.485,19.547,19.547,28,4,10,10,1.062,"Left",28,4,24,24,0,0,-24,0,-24,24,"Advent",18,-6,28,10,4,10
"71",7,0.287404351554672,0.338525992056617,0.232728355207978,-0.858658698819267,-0.335334095935314,0.057282599292855,-0.422336918422068,0.592501666732031,0.12374744269404,-0.0630016554703023,1.16246073338495,0.664884628000871,0.819507373767947,0.744071040689074,1.16909872630989,0.431640397950925,0.242253626553016,0.150730925726661,-1.4959399207481,-0.143910709814345,0.424777615169945,-0.220975882566713,0.188997352676463,0.929494678576114,-0.548424370777405,0.763576131469387,0.412981658937874,0.86542002121963,0.793980462172056,-0.41624760703883,-0.123261292122803,-0.247252904650391,0.501939091887482,-0.526540399265422,0.574101538135712,0.458417317904563,1.37157595606799,0.0899145732875455,-0.458714067600656,0.510396445087448,0.0588382292397285,0.294747710174825,0.245706950840568,"POL LAM9-Ref-POL LAM10-Ref",1491,"DG_s08",17.813,18.485,19.547,19.547,28,4,10,10,1.062,"Left",28,4,24,24,0,0,-24,0,-24,24,"Advent",18,-6,28,10,4,10
"72",7,-0.364860097574148,0.0786877604256828,0.89113694850223,-0.604964611353764,-1.01793336217284,1.12628204374874,-0.180074045067876,1.12349510655422,-0.374342861960526,0.392558901392137,-0.258194800899737,0.654539189106715,0.0913785300919996,0.676916541537804,0.373648271279004,0.25246819479629,0.499114783241362,1.01039782868187,-0.333602451237531,1.13156267344563,0.0865135520998008,0.99022623088542,0.342463648784849,-0.464294679862073,-0.95484432672172,-1.2123087352184,-0.0973413494725226,0.77479126493344,0.149589394690165,0.0780296109632885,1.11226903205667,0.265764780636239,0.0410471593845982,0.855560937855932,0.505183970116383,-0.488669274748999,-0.437415227599429,-0.63275767421693,0.344839123140701,-0.224118001912615,-0.569118749553965,0.714962197696639,0.110586417501885,"POL RIN5-Ref-POL RIN6-Ref",1491,"DG_s08",17.813,18.485,19.547,19.547,28,4,10,10,1.062,"Left",28,4,24,24,0,0,-24,0,-24,24,"Advent",18,-6,28,10,4,10
"73",7,0.0627326997161823,0.867689059460488,-0.45832661979475,-0.472095139381919,0.928146305921357,-0.867753850134765,-0.409226316209903,-0.99849733891379,-0.323584164282784,-1.89457514693087,0.0391545835675728,-0.0207121504129311,0.345219639643809,0.0910836896832317,-0.955839212212804,-0.560353525476315,-0.333262526415137,0.0406426790802747,0.775107394309367,1.16003440532423,-1.34788465654393,0.266508667418126,0.922860926412215,-0.290285269469761,-0.131986226639597,-0.297021924468283,0.0698284614812614,-1.04605205895755,-0.592137463190979,0.0420976300388745,-1.09440609820471,-0.627600347811766,-0.619874582714586,0.00879004603661038,0.313028683053019,-0.101243575049456,0.409939000353378,-0.709050813166895,-0.681206586958194,0.749973763008195,-0.256751834307111,-0.77391865699559,0.993831981604461,"POL RAM8-Ref-POL RAM9-Ref",1491,"DG_s08",17.813,18.485,19.547,19.547,28,4,10,10,1.062,"Left",28,4,24,24,0,0,-24,0,-24,24,"Advent",18,-6,28,10,4,10
"74",7,0.327055536991354,-0.111291646327275,-0.186485765167046,-0.0292781254970325,-0.99618720772279,-1.62012269336081,0.161630620562879,-0.0970931441780629,-0.553306743932398,-0.624260625341713,0.342601135450562,-1.09490972519238,-0.815612654277883,0.341796785962048,0.251110221551534,-1.29610155735741,-1.66359979698509,-0.548286178215156,-0.763693725941608,-0.706400283407856,-0.994201380200256,-0.529377674253655,0.0413777255226302,-0.504617318105627,-2.12970544055533,-1.45871518617365,-2.18453554532677,-1.58132848847729,-0.941893432742923,-1.07641356717036,-0.57082006866973,-1.42747790640257,-1.20818475162887,-0.654711759814098,-1.00483450429958,-1.47780084708677,-0.872139859868417,-0.849756196556353,0.72557037659433,-1.33972227748646,-0.665343682387925,-1.57346778685243,-0.824470276835591,"POL LIN9-Ref-POL LIN10-Ref",1491,"DG_s08",17.813,18.485,19.547,19.547,28,4,10,10,1.062,"Left",28,4,24,24,0,0,-24,0,-24,24,"Advent",18,-6,28,10,4,10
"75",7,-0.601977855266363,-1.259713482916,0.708220782516328,1.15347055566604,0.764401444666195,0.490156115924428,0.521489451620568,0.178562594817531,1.68509359209656,1.55797861142217,1.82807731571836,0.778940148817147,1.47822012427576,0.318644913654995,1.59805825985534,-0.0236722222247567,-0.373503902074629,0.478834469504207,0.854424382922981,0.380320524743388,1.54637151291662,0.474039708071748,-0.272771794846255,0.909900527713154,-0.581434463966256,0.685211189314302,0.424783551048938,1.00784050887225,0.801805164188495,0.957563166472178,0.548126618326655,0.733378182889954,-0.294599992853574,-0.889181504315844,1.0099994230002,0.0898712419474461,-0.310627004285925,-0.450363097182596,1.46545727804692,0.254457655172517,0.635233823373444,1.03610407499393,0.763651273636156,"POL RIN3-Ref-POL RIN4-Ref",1491,"DG_s08",17.813,18.485,19.547,19.547,28,4,10,10,1.062,"Left",28,4,24,24,0,0,-24,0,-24,24,"Advent",18,-6,28,10,4,10
"76",7,-0.290279151405276,-0.157998658765671,0.354099093177693,0.0941787169932553,0.899784747167574,-0.34118023148985,0.229843623424655,0.515701261997278,0.439094140525081,-0.120601268414404,0.382278225430868,0.14989438679853,0.48236627022867,-0.39131946368584,-0.013911912352083,-0.401010966195024,0.441502521031658,0.783496632822272,1.08453337365552,0.688814942970709,0.813383732266803,-1.02886237656811,0.510038397690435,0.476817618030638,0.646833022644305,-0.423608389057109,1.11612026154223,0.364594126809933,0.892063146050201,-0.53171571432736,-1.13936809181379,0.0706512783558511,0.841795347649777,-0.297000433867432,0.630811815579195,-0.0753777953939294,-0.274831575585734,0.306783892030377,0.51291609751805,-0.860663630244532,0.796119341587963,1.03611415613784,0.183996404406305,"POL LIN3-Ref-POL LIN4-Ref",1491,"DG_s08",17.813,18.485,19.547,19.547,28,4,10,10,1.062,"Left",28,4,24,24,0,0,-24,0,-24,24,"Advent",18,-6,28,10,4,10
"77",7,-0.0554605936028496,0.892593244043185,-1.05831485859166,0.221182208151329,0.218151223059349,0.281061039150656,0.365331361488774,-1.84756590409321,0.501814315269529,-0.317109058529892,1.16190756815532,0.16448513458371,-0.563811182289509,0.790094492366201,0.522558219569556,-0.741572872280125,0.168213015453971,0.474289258056722,0.018070909981267,-0.224557397758976,0.988400681330573,0.345364134948812,0.249628312125146,-0.652731930159358,-1.02528560902356,-0.352328727794115,-0.0865848494350523,-0.560176901319222,-1.44383179866758,1.04010225232739,-0.554655181273018,-0.630235802798606,0.521668719652418,1.19454880134134,0.295811352548666,0.883451541052941,0.896827233655193,-0.746190228519795,0.792874073512794,-1.15014733315383,0.127477896715082,-1.46119112081995,0.694833794853412,"POL LIN10-Ref-POL LIN11-Ref",1491,"DG_s08",17.813,18.485,19.547,19.547,28,4,10,10,1.062,"Left",28,4,24,24,0,0,-24,0,-24,24,"Advent",18,-6,28,10,4,10
"78",7,-0.0703301553652929,-0.396786585096682,-0.135625431037141,0.602742171499116,0.601462899088412,0.341680371783924,0.397931616620664,0.169588027370277,1.17695815583167,0.783440668647713,1.33171147500895,0.646379900519873,0.38816475917232,0.202342517625469,0.343246759278248,0.0953199615192704,0.225912455960558,1.07838084045577,0.620133301924164,-1.32709345703387,-0.429444549895198,-0.599468392788975,-0.987735326304431,-0.164346358934582,-0.0738867684801399,-0.945384081445412,0.434392651529114,-1.43809895443484,-0.429344863905981,-0.395725781679784,0.443970107059811,-0.619701004037706,0.291282110025364,-0.725140571131932,-0.327999575528576,-0.259174856051438,-0.706134849612808,-0.511463921609511,0.671922058654501,-0.475676927280194,0.197933831229387,0.0468571194598302,-0.466758598189183,"POL RIN4-Ref-POL RIN5-Ref",1491,"DG_s08",17.813,18.485,19.547,19.547,28,4,10,10,1.062,"Left",28,4,24,24,0,0,-24,0,-24,24,"Advent",18,-6,28,10,4,10
"79",7,-0.516093732108556,-0.540326546719747,-0.0165619280236147,1.07298220685192,-0.824092593568376,-0.641183824435124,-1.79333789606249,-0.918508541110817,-0.0845291192961839,-0.621694097953415,-0.0833436338088678,-0.763393554729545,-1.12682806105179,0.190887253844699,-0.0273395535174443,0.529969052001136,-1.06040305672834,-0.618672502316722,-0.026443751511207,0.669467209055433,-0.742688358551221,-0.168324338746651,-1.11988020277591,0.0715084377559565,-0.608350302321511,-0.546674474250904,-1.31635550700796,-0.576737032498903,-0.708581349482238,-0.310091103695168,-0.686722338078369,-1.02316306796895,-0.124370293621296,-0.656618043711622,0.122653188904927,0.79532606979328,-2.40254527567751,-1.05589224313003,0.240029027097064,-0.695424580409117,-0.350852295826546,-0.044638392700985,0.0222301200659323,"POL RIN10-Ref-POL RIN11-Ref",1491,"DG_s08",17.813,18.485,19.547,19.547,28,4,10,10,1.062,"Left",28,4,24,24,0,0,-24,0,-24,24,"Advent",18,-6,28,10,4,10
"80",7,-0.179403588925911,0.143808909750347,-0.22046963760359,0.256064316779154,0.913063455688547,0.17377032831761,0.831669095030846,-0.469532865001718,-1.25307012719663,-0.301451252284706,1.99582091946188,0.238992190076905,0.107968941288741,-0.277636806286061,-0.475629179824125,0.331783839678881,-0.107732024116613,0.936033012040422,1.04455668195659,1.16875983736203,-1.39794088280376,0.4482205527512,-0.504998148956572,0.367507183020102,-1.28025626750079,-1.11799864629996,0.469621829753246,0.442919286385469,-0.223201947607164,0.203412257644279,0.732401332515118,-0.310421376194341,0.611153097765898,-0.0129155446059419,0.399225741308424,-0.132774282313421,0.487780948536647,0.938059829073524,-0.844104824279344,-0.0828259352260292,-0.324579646974008,-0.387255410252096,1.368468872621,"POL RAM7-Ref-POL RAM8-Ref",1491,"DG_s08",17.813,18.485,19.547,19.547,28,4,10,10,1.062,"Left",28,4,24,24,0,0,-24,0,-24,24,"Advent",18,-6,28,10,4,10
"81",7,-0.0562449154949234,0.405186425162383,-0.810452008957322,0.461510499289862,-0.263991411269481,1.28568788332253,1.03244613235585,0.383054689564505,0.709518681485472,1.02986419352956,0.762668698289547,1.55902499680625,0.103051856928281,0.905740887051623,1.65430161167921,-0.390389531682025,2.14849219659583,1.14707778432704,1.76364846518993,1.39664722512858,1.95571378158637,-0.148121205817872,1.81639248951889,1.09875782731864,0.357080777777175,1.09839212974646,0.98546014701544,0.908575105022393,0.377173555200992,1.42609997638101,0.446713991093092,1.15733712843713,1.25130471457582,0.659938203157432,0.78092182127362,2.37659934822676,1.84806759799864,2.09058669125665,0.0956219004244971,1.62983763788145,0.827376061859157,1.92392703529329,0.361033897151782,"POL LIN11-Ref-POL LIN12-Ref",1491,"DG_s08",17.813,18.485,19.547,19.547,28,4,10,10,1.062,"Left",28,4,24,24,0,0,-24,0,-24,24,"Advent",18,-6,28,10,4,10
"82",7,-0.187795179460633,-0.847299917703288,0.471505781978313,0.563589315185607,-0.729524377731264,-1.91140773598448,-0.623155747324307,-0.690987045730755,-1.83017758143742,-0.289032328853593,0.51821112843335,-0.195710326026617,0.137945007323483,-0.531901308251375,-0.556926407211577,0.439496303183537,1.233580878105,-0.873878828656747,0.299251737564707,-0.0433696014445979,-1.03693664153763,0.285612612066725,-0.640032500335462,1.17087633999975,0.145222511901154,0.0362270758914813,-0.0220998307914693,-1.52881726651152,-1.46034730991341,0.0846135173067157,-0.994108636134752,-0.938464459933676,-0.845911187763306,-0.972942597791699,0.378070287271301,-0.291118963561008,0.279597425243511,-0.295693856198858,0.511507578796504,-1.34532725432247,-0.771055718175867,0.451311911874892,-1.21857343430385,"POL RIN1-Ref-POL RIN2-Ref",1491,"DG_s08",17.813,18.485,19.547,19.547,28,4,10,10,1.062,"Left",28,4,24,24,0,0,-24,0,-24,24,"Advent",18,-6,28,10,4,10
"83",7,0.0480262046596853,0.492677577549437,-0.571204945502732,0.0305011632936103,0.728187552230792,0.234654542998798,0.486660640535683,0.193816531949484,-0.311445461913674,-1.13443710889589,1.84374644131976,-0.912787887574226,0.886863603390406,-0.928174965364181,0.480967911835027,0.700903293717396,-0.269594000131359,-0.312242168900446,0.0811507165088972,0.977223192216307,0.218729837536288,0.0364707690258004,-0.460146897657174,-1.47233707887033,-0.143809569445017,0.423521357111639,0.33996124210187,1.91182115449584,0.546217922239695,-0.23734223018607,0.279382028194419,-0.501254496899229,0.233962395005312,0.102873354508544,-0.866447870172864,-0.837821418256451,-0.638104051162419,0.814766671862138,1.1918499874788,0.468693738754459,-0.208071255331463,1.9339890249521,0.0937984023607594,"POL RIN12-Ref-POL RIN13-Ref",1491,"DG_s08",17.813,18.485,19.547,19.547,28,4,10,10,1.062,"Left",28,4,24,24,0,0,-24,0,-24,24,"Advent",18,-6,28,10,4,10
"84",7,-1.54514265795692,-0.00433163631820266,0.0866897042245636,1.46278459005056,-0.0153697445694319,0.217113196232483,-1.46770357481332,-1.15127504317185,-1.41028170709148,0.945218684831961,0.538171831447321,-0.539625599746665,-0.509333703896131,-0.280330760818028,0.44648981908876,-1.3732560933172,0.729835112656543,-0.385366759192461,0.146102746460598,-0.0536380832003063,1.12108036788862,-0.794919193009512,-1.49610380001504,-0.353256000722701,0.378545461631005,-1.14954838581632,-1.19439834324243,0.377955087590314,-0.630449732890851,-0.585326975051014,0.29405919988769,0.100680496938912,0.243227479475563,-0.583969201590553,0.0407018699769839,-0.697183314839144,-0.597821678361245,-0.48746734693131,-0.223419668946168,-0.986837052296048,-0.262245190815421,-1.07928677315254,-0.509123847646891,"POL LIN4-Ref-POL LIN5-Ref",1491,"DG_s08",17.813,18.485,19.547,19.547,28,4,10,10,1.062,"Left",28,4,24,24,0,0,-24,0,-24,24,"Advent",18,-6,28,10,4,10
"85",9,0.46854925368494,0.833481826939898,0.30647806365375,-1.60850914427859,0.329522498159776,0.30750319688052,-0.81394394130891,1.01293931857482,-0.400956074674943,0.0818296604313127,-0.665191313123927,-0.465678008272378,0.406024127963651,-0.709954227784862,-0.985208047364871,1.35651746515104,0.640194861018842,0.508369638031761,-0.145211574926596,0.561417249111709,-0.269048345532322,-0.299043692105816,0.450439626633176,1.05837882021686,0.574427042585411,0.0682448765823747,-0.800759031870045,-1.3869478157266,-1.10823952331545,0.254309694380476,-1.51077574409215,1.38411535320435,0.983520312719635,0.579216088690967,0.0806973547620369,-0.256729627430991,0.202167765472006,0.395392630398469,-0.0993087010757074,0.322447499547694,-0.114473847093084,0.912986764545738,0.661312081807527,"POL RIN11-Ref-POL RIN12-Ref",1493,"DG_s08",24.219,24.891,26.235,26.235,13,7,10,10,1.344,"Left",13,7,6,6,0,0,-6,0,-6,6,"Advent",3,-3,13,10,7,10
"86",9,-0.0688171880175834,0.660530744610949,-0.60288156580862,0.0111680092152548,-0.232664078798404,0.551912026435497,-0.642087275323519,0.0199389316166294,-0.175625115457519,-1.2220172315513,-0.740343080428897,-1.68031315593117,-0.277807229608904,0.929223143222309,-0.300806201205007,0.684594970531673,-0.0263061330550411,1.22159512481215,0.805760612088455,-1.09586284991845,0.650888290311046,0.480448246865206,-0.16816603251179,-0.00499767943046736,-0.226234848942594,-0.583417315629607,0.747420174583755,-0.0382627741939516,0.174103983575749,0.390036734918456,-1.26050810103144,0.30468404083046,0.339122244757274,-1.46505572318652,-0.358450824173402,-1.13429782419125,0.244919865118563,-0.200522050258609,1.23380249851039,-0.571968972746594,-0.0161790926644287,0.273305842971528,0.159965912872269,"POL LIN11-Ref-POL LIN12-Ref",1493,"DG_s08",24.219,24.891,26.235,26.235,13,7,10,10,1.344,"Left",13,7,6,6,0,0,-6,0,-6,6,"Advent",3,-3,13,10,7,10
"87",9,0.100451744748484,-0.0831333425172427,0.906716130660889,-0.924034532892131,0.501896096993509,0.125228535965952,0.828222779688384,-0.30779524081231,0.0293762038035381,0.0394780567681887,-0.24315647989054,0.249526608150104,0.133515800907749,0.0997780605124783,0.379552613484921,0.453565059955429,0.971857464682463,1.07629129907873,0.852417778253296,0.00565774900889915,2.07548170819548,1.94427821726142,0.758125706310894,0.666464914043143,0.0298280178445682,0.567641839785244,0.301091828043827,0.773145358021003,0.36937576578792,0.60429963338511,0.723682630230818,0.352071676457768,1.49263551149992,0.413772518216827,-0.410055908043707,-0.0944922846874894,1.44001628091197,0.661033156938808,1.25303820690677,-0.0103580178899696,0.492062210967223,0.390446151374723,0.464251121859617,"POL LIN10-Ref-POL LIN11-Ref",1493,"DG_s08",24.219,24.891,26.235,26.235,13,7,10,10,1.344,"Left",13,7,6,6,0,0,-6,0,-6,6,"Advent",3,-3,13,10,7,10
"88",9,0.394015724314277,0.160454278333018,-0.559527605511846,0.00505760286455081,0.767246342180953,-0.0416624032062487,1.16673526311898,0.471952516065516,-0.287590831844735,0.335827496019373,0.585677675618127,-0.425346176951957,1.1450628386027,-0.182616944717569,0.720145982341026,0.624925108185343,1.7752857284948,0.717355632273617,1.27576548254889,0.174793443945128,-0.422934307145486,-0.366675768971693,-0.568300157417011,0.742018100097019,0.77974354144001,0.78234856303906,-0.0588360042493418,1.24687378709252,1.45578207135792,1.04894651335647,0.164073965874878,-0.14098290940269,1.33627496196389,1.62802418399661,0.867740302448175,0.0138195429066341,1.24604014153353,0.0310452613074192,1.65271855393424,0.0133850751228266,1.06032407297002,-0.553253577248863,0.478342314164287,"POL LIN4-Ref-POL LIN5-Ref",1493,"DG_s08",24.219,24.891,26.235,26.235,13,7,10,10,1.344,"Left",13,7,6,6,0,0,-6,0,-6,6,"Advent",3,-3,13,10,7,10
"89",9,1.13206624948717,-0.589417701403019,-0.156133202123346,-0.3865153459608,0.164908624513231,-0.127803122443499,0.142937725326463,0.370011999269706,0.0756091161699843,0.752809236719465,1.81972944819279,1.07841809947684,0.631072811141699,0.67689221050613,0.556145803049148,1.31615303800059,1.01452423052729,1.15806902498993,1.18781750039071,1.49477151027338,1.61737383236572,-0.361711261442171,0.392206850550462,0.964860796279626,0.968751730847182,0.74027450182098,0.342102998148266,0.847452906658294,1.58145289660975,1.29980341836276,1.07134415087079,0.586077046027205,0.498072935763018,-0.0664315229033758,0.79188425610066,0.395623848463083,-0.0950636254804622,0.160992659890632,1.21689045746019,0.127979266515126,0.438086258248626,0.479567811630585,1.96411504928282,"POL RAM8-Ref-POL RAM9-Ref",1493,"DG_s08",24.219,24.891,26.235,26.235,13,7,10,10,1.344,"Left",13,7,6,6,0,0,-6,0,-6,6,"Advent",3,-3,13,10,7,10
"90",9,1.32796260775539,0.328471237069354,-0.456916354914357,-1.19951748991039,-1.15224621724239,0.440870744451737,-0.0456225310493461,-0.381441550553143,-0.499158660112657,0.57897373326773,-0.459225715172603,0.323618681404815,-1.21984216580083,0.0151745500117011,0.705341396581652,0.0467169096634428,-0.0895708295579731,-0.28911390726023,0.571442839731745,-1.45616769904433,-1.43661922680599,0.464637464068186,1.23057157107657,-1.82968363648684,0.868319797497767,0.0991677060183487,-1.35108187564706,-0.924918638739928,-0.0172323553896812,0.00698200013312311,-0.000276980789141845,0.391247833784222,-0.213497548593549,0.109479120006445,-0.455495429179143,-0.505208965379188,-0.0909943173428269,0.065314265465624,-0.0468170114352935,-0.30853775567834,-0.818655356975888,0.876098683279229,-0.463924136514198,"POL RIN10-Ref-POL RIN11-Ref",1493,"DG_s08",24.219,24.891,26.235,26.235,13,7,10,10,1.344,"Left",13,7,6,6,0,0,-6,0,-6,6,"Advent",3,-3,13,10,7,10
"91",9,0.280856843546748,-0.0761706641215305,0.195277093191978,-0.399963272617196,-1.0508845310668,-0.0243156769322641,0.422440937350187,0.580004436877998,-1.31784763032663,0.801341214743697,0.43023503170592,-0.0870909513368558,0.325415883454632,0.191938431657035,1.31862103859161,1.47304806406577,0.379973196925032,0.178070190923724,0.472293935199229,-0.185514633582552,0.20006812098414,0.365900502001416,-0.0774409237545903,0.843208996548606,-1.0542797809831,0.93180338599431,-0.283350816531299,-0.158963714378802,-1.310696229169,0.217815254854445,-0.918542348412501,1.31100487336701,-0.525928331543043,-0.874474641689722,0.455472081584071,0.829713005597748,-0.242993965745371,0.758296974433843,0.820338503754289,0.281415989712252,0.628569223277321,-0.0585544009362198,-0.82774097975259,"POL RIN12-Ref-POL RIN13-Ref",1493,"DG_s08",24.219,24.891,26.235,26.235,13,7,10,10,1.344,"Left",13,7,6,6,0,0,-6,0,-6,6,"Advent",3,-3,13,10,7,10
"92",9,1.23040532077451,-0.0128915295985133,-1.40786716345067,0.190353372274672,0.631575957419077,-1.03470384062129,-0.28920195401948,-0.0759828222082497,-0.336413497686873,0.00313546609561044,-0.791019378616122,-0.716540339255124,-0.136240376560152,-0.538999582456637,-0.342342707755952,0.478363564799707,-1.48794553255459,-0.0952200334512008,-0.614726529436922,0.252501664047177,-0.266212965383008,0.584459255364964,-0.596026030829117,-0.410916159948206,-0.314761772303834,-0.80598727991245,0.771293520887119,0.337881600343781,-0.290507711194304,-1.49220431788341,0.161509228845699,-0.818765875956786,-0.124056859230279,-0.958017482032991,-0.475179258674652,0.0138283494851734,-0.244186039967624,0.472952079055163,0.0214748001275114,-0.341998735859979,-0.379746622393247,0.0908945586751688,0.46556311137581,"POL RIN3-Ref-POL RIN4-Ref",1493,"DG_s08",24.219,24.891,26.235,26.235,13,7,10,10,1.344,"Left",13,7,6,6,0,0,-6,0,-6,6,"Advent",3,-3,13,10,7,10
"93",9,-1.20463682145911,0.678066026328975,0.762741057220305,-0.236170262090166,-0.784178884075252,0.41470726580037,-0.306483362608546,-0.680183144100015,1.00036062301972,-1.44402723192084,0.0781547404966956,0.922110447358276,0.244867697947334,-0.128759515063221,-1.45163925827763,-0.348165818963047,0.0488144867815987,1.37647781634092,-1.26937056563963,0.943865160036171,-0.498266048833282,0.662103830038235,-0.49286820926663,-0.836638331191128,0.0774050684430931,0.346367296966535,-0.125768600605374,0.494077270762532,0.193346246152443,-1.0758183053802,0.750797117610346,-0.12806850962285,-0.6844448652558,1.1515127359321,0.545273741082428,-0.890060551177177,0.292252316783243,-0.0619194969373709,-0.560204354065827,-0.0685506297842662,0.128035684711655,0.261641337886779,-0.960498048444097,"POL LIN3-Ref-POL LIN4-Ref",1493,"DG_s08",24.219,24.891,26.235,26.235,13,7,10,10,1.344,"Left",13,7,6,6,0,0,-6,0,-6,6,"Advent",3,-3,13,10,7,10
"94",9,0.646580516630448,-1.24795975739148,-0.298881636349838,0.900260877110866,0.724642746254142,-0.0366656488370103,0.237888022969227,0.253238272702513,0.317618103799758,0.0782673991402347,-0.298998458779878,0.28177991211326,0.347866508849319,-0.17791719657363,-0.189368200032934,-0.103201309871382,-1.48057846013197,0.649978451691996,0.470094022644057,-0.339865482255584,0.254431319566086,0.849704033112204,0.711534488279023,-0.604023425477778,0.370670031238746,-0.997358102457867,0.902371510204661,0.604203896787681,0.583453162691089,-0.090957574060774,0.160512349188602,0.434912299967099,1.13650600730675,-0.311400533867976,0.236025268117643,-0.786574829978825,-0.922541548256129,0.487271272374848,0.0208085135573928,0.478075190726063,1.122012492617,-0.114843391029286,-0.00139150375506003,"POL RIN5-Ref-POL RIN6-Ref",1493,"DG_s08",24.219,24.891,26.235,26.235,13,7,10,10,1.344,"Left",13,7,6,6,0,0,-6,0,-6,6,"Advent",3,-3,13,10,7,10
"95",9,0.265861836697274,0.281859025047889,0.484034315295978,-1.03175517704114,-0.728951369244673,-0.682531244063333,-1.19441409829519,-0.0539629876140015,-0.073826284594106,-1.10924517878204,-1.82964610598089,-2.03473884231031,0.437481114141584,-0.10840323650508,-1.65132807017516,0.0132463836760133,-0.99821505150403,0.279136288529974,0.0680462509624422,-1.55724133028858,-2.04162899823892,0.563931828190464,-2.64510076739538,-0.891947251311949,-0.97696456805917,-1.72465119929733,-0.135089933208777,-1.11734935768006,-0.208880597458144,-0.93637288791906,-0.891430084226726,-0.00403565220380386,-0.754822769896601,-0.73916054793339,-1.65637672022896,-0.86663519113128,-1.68965058092502,-0.726805026957281,-1.08895247551428,-1.58349782231719,-1.62485604309472,-0.66905663461549,-1.48007079327495,"POL LIN12-Ref-POL LIN13-Ref",1493,"DG_s08",24.219,24.891,26.235,26.235,13,7,10,10,1.344,"Left",13,7,6,6,0,0,-6,0,-6,6,"Advent",3,-3,13,10,7,10
"96",9,0.110776065428182,-0.436007594016881,0.0949633175341766,0.230268211054522,-0.196366578561355,0.223173976352819,-0.762632335586758,-1.33378876776784,-0.572208376622508,-0.00506003725232151,-0.849335160904835,0.0741929927755622,-1.1967433419127,0.639513714690118,0.508833913944218,0.0760163320165312,-0.0244533755479979,0.758045361132665,0.616053851946144,-0.920253856824312,-0.114067282686592,-0.388355981194183,0.565339270706025,-0.302465646689975,0.659362652427785,0.797672382996626,-0.563921568745949,-0.362919429756996,-1.01445189970475,-0.63751739287032,-0.600968272143726,0.315083434950389,-1.36009695827859,0.309249485693943,-0.286196784277381,0.27488212243684,0.0190662583313297,0.032686388012662,0.298086541591152,0.0718583218678677,-0.300472805494589,0.0417343192802893,-0.200761604614452,"POL LIN1-Ref-POL LIN2-Ref",1493,"DG_s08",24.219,24.891,26.235,26.235,13,7,10,10,1.344,"Left",13,7,6,6,0,0,-6,0,-6,6,"Advent",3,-3,13,10,7,10
"97",9,-1.0266569838408,0.778490091848602,-0.0353392520830362,0.283506144075234,0.0153831449828874,1.85136637205269,1.12844455161863,0.531389451911059,-1.32014967668399,0.08566790316672,0.58009662888834,1.45710837905339,0.465294331965285,0.469260005016995,-0.49838083367412,0.204912096644556,-0.0935714871836839,1.71505178809638,-0.39416453710237,0.069081058265605,0.481172932201985,0.464293497853386,0.470670540009482,-0.359655001574207,0.661765430582417,0.395413866187636,0.0594957237706546,0.0319774499753342,-0.430928468817862,0.517139047038972,0.429799026086536,0.666957290132741,0.329171419944518,1.35197457636761,0.962252995231372,-0.236840544119211,-0.0608757156186979,0.0110598997506264,1.50570810386687,0.788616607150448,0.403870513472667,0.605099766153117,-0.107418125714098,"POL LIN2-Ref-POL LIN3-Ref",1493,"DG_s08",24.219,24.891,26.235,26.235,13,7,10,10,1.344,"Left",13,7,6,6,0,0,-6,0,-6,6,"Advent",3,-3,13,10,7,10
"98",9,1.0453852041397,-0.975838186837109,-0.0963125406292598,0.026765523326671,0.539561444430111,-1.25091921473812,-1.33903758992434,-0.633521006789505,0.548211309585452,-0.197932914051038,0.208243719573252,-0.474137203697054,0.796898432203492,-0.403782163219867,-0.0488123781759449,1.27667894368971,0.617028034772747,-0.797540888065103,0.242810539297207,0.603078823583907,1.50602722556217,-0.263140894841841,-0.285339305825382,-0.360438849701399,0.0516455590597595,1.08908567963428,-1.24761830223497,-1.50369191899213,-0.463197583658668,1.43140724086154,-0.859647451439916,-0.670585903028372,0.0654899619228437,-0.727329810050232,0.338035993966334,-0.428015785182095,-0.118077136559623,0.661742402883233,-0.517712905310926,0.571756152141757,1.48526929417834,0.450067776389798,1.27234420557116,"POL RAM7-Ref-POL RAM8-Ref",1493,"DG_s08",24.219,24.891,26.235,26.235,13,7,10,10,1.344,"Left",13,7,6,6,0,0,-6,0,-6,6,"Advent",3,-3,13,10,7,10
"99",9,0.388249235543834,-1.20713763494822,0.422791803487977,0.396096595916411,0.592709312791665,-0.419273529668453,0.917468220789239,0.221681772277976,1.365256370245,0.386143608916436,-0.0912532431930297,0.177533869966612,0.2842815250845,-0.736175211401119,-0.591937727222386,0.884862360558537,-0.42728080479024,-0.471375061803162,-1.22285366938055,-0.555098459084272,-0.590135402041125,0.181868183734069,0.867631078307289,0.367615606797231,0.770944184650248,-0.293792635783109,0.645321873721402,0.784364770556689,0.602542355712083,-0.0294519712070644,-0.130691425011911,-0.306888604887936,-1.26390793052477,0.15923719031482,-0.396299603554147,1.13571118529245,-0.201995703142862,1.03341478225957,0.510018671844933,0.753552899536534,-0.736987889219109,-0.523481768500011,1.40279406225308,"POL RIN4-Ref-POL RIN5-Ref",1493,"DG_s08",24.219,24.891,26.235,26.235,13,7,10,10,1.344,"Left",13,7,6,6,0,0,-6,0,-6,6,"Advent",3,-3,13,10,7,10
"100",9,0.520801056617968,0.302285977420241,-1.16552963333352,0.342442599295314,-0.67617737215903,-0.654283569968386,0.690130547569442,-1.55530966036375,0.00389961128704108,0.0718332090570417,-0.589250869052166,0.370935846355241,-1.0821199895877,0.562005651847144,1.47092475136948,0.729641565029226,-0.0206640293706686,-0.129389972607008,-0.536030128370679,0.735127426467306,-0.116122931403457,-0.328609509418872,0.134595468028172,-0.859100628054741,0.205647005124998,-0.797577242876109,0.31695239237947,-1.14433995120026,0.518587175648279,0.399725504993177,0.64071313204958,1.00412834706217,0.218282611386072,-0.908007353587652,-1.06048066842204,-0.120038969375468,0.4369532242993,-0.284605048490053,0.310625315718567,0.630383214429622,-0.0366537104750155,-0.590418616017351,0.526027507583819,"POL RIN1-Ref-POL RIN2-Ref",1493,"DG_s08",24.219,24.891,26.235,26.235,13,7,10,10,1.344,"Left",13,7,6,6,0,0,-6,0,-6,6,"Advent",3,-3,13,10,7,10
"101",9,0.589623086865299,0.0825316192873595,0.0651107761799796,-0.737265482332639,-0.348769305112318,0.0852598680808696,0.0426503308942774,-0.0648414172629161,0.102144827096299,0.549089960400449,0.177673254034313,0.648164698984083,-0.692500795355529,-0.607575986031325,0.227510556403431,1.09019536055007,-0.497537803002893,1.38707840204756,0.473813950887453,0.948088646696439,0.686758542435367,1.25793147538869,0.55159569127606,0.601481048760696,-0.0788802111840727,0.0685797325304587,-0.694981844181635,-0.179762396891429,1.32214804174965,-0.219729164744313,1.24754672592208,0.05768654117677,-0.111618819712302,0.42195449062597,0.551229390905664,0.443539051443892,1.12402566939453,-0.186903147797328,0.80760585331625,-0.613429547066309,0.44176938041303,-0.0387064952728893,-0.0185881638989351,"POL LIN9-Ref-POL LIN10-Ref",1493,"DG_s08",24.219,24.891,26.235,26.235,13,7,10,10,1.344,"Left",13,7,6,6,0,0,-6,0,-6,6,"Advent",3,-3,13,10,7,10
"102",9,0.393531740941436,0.66308556285397,0.140379571447511,-1.19699687524292,1.63273542199789,1.30657452363442,0.670074819248259,1.02502860164309,1.32772093445985,0.224148910087735,1.40423066463335,2.00799852681322,0.0425112443239051,-0.29987583471035,2.05882541317009,1.32118984201521,0.406278856159315,-0.453474241921815,0.353226390455082,0.747855939474271,0.415050536082758,0.256426683916534,-0.627898618461595,0.672513145183814,0.465154743504844,0.541261019888017,0.832916809933042,0.954489010418095,1.66005287454753,1.22258771970807,-0.347738355028473,0.314256015604769,0.330495873381292,0.59174643315254,0.00171306544814787,1.53615627177549,0.985724306213833,-0.0965398351800355,1.71677762980341,1.23331520927206,1.19051871885985,1.1131428451488,-0.501657258287305,"POL LAM8-Ref-POL LAM9-Ref",1493,"DG_s08",24.219,24.891,26.235,26.235,13,7,10,10,1.344,"Left",13,7,6,6,0,0,-6,0,-6,6,"Advent",3,-3,13,10,7,10
"103",9,0.232143722322877,0.143647684816052,0.00328254890483226,-0.379073956043761,0.856940790323291,-1.06774925038901,0.0785714946500295,0.0670890247274829,-0.530177505017551,-0.387189541269822,-1.2043471091072,-2.09741138070874,-0.923200290950899,-0.289263715898173,-0.002851796342068,0.504644512178227,-0.444734219551206,-0.552388126336274,-0.23594502111662,-0.0699512911711602,-0.96636275601018,0.272121338253489,1.16273825125437,-0.456419671808905,-1.70528329131248,0.437607000166695,-0.663072595300647,-0.481523137764041,-0.127299951331037,-1.2005073277946,-0.464022375594285,-0.745509903532512,0.560771682416052,0.788972912072927,-1.50313666208068,-0.249851777298936,-1.13241489932833,-0.353769555542571,-1.18976478317988,-1.15971668991961,-1.39901350246091,-0.301524297892372,0.529332877673371,"POL RIN9-Ref-POL RIN10-Ref",1493,"DG_s08",24.219,24.891,26.235,26.235,13,7,10,10,1.344,"Left",13,7,6,6,0,0,-6,0,-6,6,"Advent",3,-3,13,10,7,10
"104",9,-0.490298572531455,0.819723698464902,-0.147097551571971,-0.182327574361476,0.767571689345706,0.217310070414534,-1.20624503821154,0.0638794182597124,-0.0576428893568361,0.237381667243432,1.29943817475954,1.44956493076115,1.00469367528872,-0.808355113397995,0.760857212941876,1.31019201776261,-0.710489040431084,0.516448442350646,0.682039059626822,0.329259038380956,0.811287790459343,-0.0595156564390008,0.212541926477501,0.872895398410463,0.566038099227753,0.623847782298475,0.562593990778086,0.0521105749409703,0.618424670481227,0.944292572730311,0.191037621916035,-0.45901162226334,0.130933961359308,-0.479876932540002,1.11370999637971,0.0664123049079273,0.855825887531865,0.137144084556366,1.06515058847057,-0.00650807100298123,-0.0473482059482671,-0.274894860747158,0.326194260126238,"POL LAM9-Ref-POL LAM10-Ref",1493,"DG_s08",24.219,24.891,26.235,26.235,13,7,10,10,1.344,"Left",13,7,6,6,0,0,-6,0,-6,6,"Advent",3,-3,13,10,7,10
"105",9,-0.175273551746171,-0.0354827461490088,-0.00634311843875324,0.217099416333933,0.299871004162488,-0.59964834670618,0.290099990350353,-0.383190983563062,-1.10133004052211,0.329381268216158,-0.403278795000214,1.01947337710335,0.464236597017865,-1.94570857083926,0.562591542852017,0.147896553904293,-0.0997861165217908,-0.697511197163385,-1.08280655090872,0.232917056189188,0.294813057017501,-0.252137230948084,0.339659579506293,0.0307140106697252,0.347736884176587,-1.05367644125456,-0.422455286478569,0.582080163006449,0.462133055281587,-0.47102824718889,0.030173583719292,0.0100922221631849,-0.325497942511977,0.67347742994803,0.518205505579916,-0.787585107079981,0.116549084768417,-0.0551737768245264,-0.300023709252044,-0.327127934722908,0.251621903517024,0.485908378037324,0.0320338260871771,"POL RIN2-Ref-POL RIN3-Ref",1493,"DG_s08",24.219,24.891,26.235,26.235,13,7,10,10,1.344,"Left",13,7,6,6,0,0,-6,0,-6,6,"Advent",3,-3,13,10,7,10
