"","trial","electrodes","bin_1","bin_2","bin_3","bin_4","bin_5","bin_6","bin_7","bin_8","bin_9","bin_10","bin_11","bin_12","bin_13","bin_14","bin_15","bin_16","bin_17","bin_18","bin_19","bin_20","bin_21","bin_22","bin_23","bin_24","bin_25","bin_26","bin_27","bin_28","bin_29","bin_30","bin_31","bin_32","bin_33","bin_34","bin_35","bin_36","bin_37","bin_38","bin_39","bin_40","bin_41","bin_42","X","SID","newround_time","choice_time","buttonpress_time","reveal_time","self_payoff","other_payoff","self_foregone","other_foregone","RT","side_chosen","self_var_payoff","other_var_payoff","ineq_var_abs","ineq_choice_abs","ineq_foregone_abs","ineq_disadvent","ineq_advent","ineq_choice","chose_equality","self_diff","other_diff","L_self","R_self","L_other","R_other"
"1",1,"POL LIN4-Ref-POL LIN5-Ref",NA,NA,NA,NA,NA,NA,NA,NA,NA,NA,NA,NA,NA,NA,NA,NA,NA,NA,NA,NA,NA,NA,NA,NA,NA,NA,NA,NA,NA,NA,NA,NA,NA,NA,NA,NA,NA,NA,NA,NA,NA,NA,1485,"DG_s08",-0.671,0,1.25,1.266,10,10,10,18,1.25,"Left",10,18,8,0,8,8,0,-8,"10-10",0,-8,10,10,10,18
"2",1,"POL RIN1-Ref-POL RIN2-Ref",NA,NA,NA,NA,NA,NA,NA,NA,NA,NA,NA,NA,NA,NA,NA,NA,NA,NA,NA,NA,NA,NA,NA,NA,NA,NA,NA,NA,NA,NA,NA,NA,NA,NA,NA,NA,NA,NA,NA,NA,NA,NA,1485,"DG_s08",-0.671,0,1.25,1.266,10,10,10,18,1.25,"Left",10,18,8,0,8,8,0,-8,"10-10",0,-8,10,10,10,18
"3",1,"POL LIN3-Ref-POL LIN4-Ref",NA,NA,NA,NA,NA,NA,NA,NA,NA,NA,NA,NA,NA,NA,NA,NA,NA,NA,NA,NA,NA,NA,NA,NA,NA,NA,NA,NA,NA,NA,NA,NA,NA,NA,NA,NA,NA,NA,NA,NA,NA,NA,1485,"DG_s08",-0.671,0,1.25,1.266,10,10,10,18,1.25,"Left",10,18,8,0,8,8,0,-8,"10-10",0,-8,10,10,10,18
"4",1,"POL LIN2-Ref-POL LIN3-Ref",NA,NA,NA,NA,NA,NA,NA,NA,NA,NA,NA,NA,NA,NA,NA,NA,NA,NA,NA,NA,NA,NA,NA,NA,NA,NA,NA,NA,NA,NA,NA,NA,NA,NA,NA,NA,NA,NA,NA,NA,NA,NA,1485,"DG_s08",-0.671,0,1.25,1.266,10,10,10,18,1.25,"Left",10,18,8,0,8,8,0,-8,"10-10",0,-8,10,10,10,18
"5",1,"POL LAM8-Ref-POL LAM9-Ref",NA,NA,NA,NA,NA,NA,NA,NA,NA,NA,NA,NA,NA,NA,NA,NA,NA,NA,NA,NA,NA,NA,NA,NA,NA,NA,NA,NA,NA,NA,NA,NA,NA,NA,NA,NA,NA,NA,NA,NA,NA,NA,1485,"DG_s08",-0.671,0,1.25,1.266,10,10,10,18,1.25,"Left",10,18,8,0,8,8,0,-8,"10-10",0,-8,10,10,10,18
"6",1,"POL LIN11-Ref-POL LIN12-Ref",NA,NA,NA,NA,NA,NA,NA,NA,NA,NA,NA,NA,NA,NA,NA,NA,NA,NA,NA,NA,NA,NA,NA,NA,NA,NA,NA,NA,NA,NA,NA,NA,NA,NA,NA,NA,NA,NA,NA,NA,NA,NA,1485,"DG_s08",-0.671,0,1.25,1.266,10,10,10,18,1.25,"Left",10,18,8,0,8,8,0,-8,"10-10",0,-8,10,10,10,18
"7",1,"POL RIN2-Ref-POL RIN3-Ref",NA,NA,NA,NA,NA,NA,NA,NA,NA,NA,NA,NA,NA,NA,NA,NA,NA,NA,NA,NA,NA,NA,NA,NA,NA,NA,NA,NA,NA,NA,NA,NA,NA,NA,NA,NA,NA,NA,NA,NA,NA,NA,1485,"DG_s08",-0.671,0,1.25,1.266,10,10,10,18,1.25,"Left",10,18,8,0,8,8,0,-8,"10-10",0,-8,10,10,10,18
"8",1,"POL RIN4-Ref-POL RIN5-Ref",NA,NA,NA,NA,NA,NA,NA,NA,NA,NA,NA,NA,NA,NA,NA,NA,NA,NA,NA,NA,NA,NA,NA,NA,NA,NA,NA,NA,NA,NA,NA,NA,NA,NA,NA,NA,NA,NA,NA,NA,NA,NA,1485,"DG_s08",-0.671,0,1.25,1.266,10,10,10,18,1.25,"Left",10,18,8,0,8,8,0,-8,"10-10",0,-8,10,10,10,18
"9",1,"POL LIN10-Ref-POL LIN11-Ref",NA,NA,NA,NA,NA,NA,NA,NA,NA,NA,NA,NA,NA,NA,NA,NA,NA,NA,NA,NA,NA,NA,NA,NA,NA,NA,NA,NA,NA,NA,NA,NA,NA,NA,NA,NA,NA,NA,NA,NA,NA,NA,1485,"DG_s08",-0.671,0,1.25,1.266,10,10,10,18,1.25,"Left",10,18,8,0,8,8,0,-8,"10-10",0,-8,10,10,10,18
"10",1,"POL RIN10-Ref-POL RIN11-Ref",NA,NA,NA,NA,NA,NA,NA,NA,NA,NA,NA,NA,NA,NA,NA,NA,NA,NA,NA,NA,NA,NA,NA,NA,NA,NA,NA,NA,NA,NA,NA,NA,NA,NA,NA,NA,NA,NA,NA,NA,NA,NA,1485,"DG_s08",-0.671,0,1.25,1.266,10,10,10,18,1.25,"Left",10,18,8,0,8,8,0,-8,"10-10",0,-8,10,10,10,18
"11",1,"POL RAM7-Ref-POL RAM8-Ref",NA,NA,NA,NA,NA,NA,NA,NA,NA,NA,NA,NA,NA,NA,NA,NA,NA,NA,NA,NA,NA,NA,NA,NA,NA,NA,NA,NA,NA,NA,NA,NA,NA,NA,NA,NA,NA,NA,NA,NA,NA,NA,1485,"DG_s08",-0.671,0,1.25,1.266,10,10,10,18,1.25,"Left",10,18,8,0,8,8,0,-8,"10-10",0,-8,10,10,10,18
"12",1,"POL RIN5-Ref-POL RIN6-Ref",NA,NA,NA,NA,NA,NA,NA,NA,NA,NA,NA,NA,NA,NA,NA,NA,NA,NA,NA,NA,NA,NA,NA,NA,NA,NA,NA,NA,NA,NA,NA,NA,NA,NA,NA,NA,NA,NA,NA,NA,NA,NA,1485,"DG_s08",-0.671,0,1.25,1.266,10,10,10,18,1.25,"Left",10,18,8,0,8,8,0,-8,"10-10",0,-8,10,10,10,18
"13",1,"POL RAM8-Ref-POL RAM9-Ref",NA,NA,NA,NA,NA,NA,NA,NA,NA,NA,NA,NA,NA,NA,NA,NA,NA,NA,NA,NA,NA,NA,NA,NA,NA,NA,NA,NA,NA,NA,NA,NA,NA,NA,NA,NA,NA,NA,NA,NA,NA,NA,1485,"DG_s08",-0.671,0,1.25,1.266,10,10,10,18,1.25,"Left",10,18,8,0,8,8,0,-8,"10-10",0,-8,10,10,10,18
"14",1,"POL RIN3-Ref-POL RIN4-Ref",NA,NA,NA,NA,NA,NA,NA,NA,NA,NA,NA,NA,NA,NA,NA,NA,NA,NA,NA,NA,NA,NA,NA,NA,NA,NA,NA,NA,NA,NA,NA,NA,NA,NA,NA,NA,NA,NA,NA,NA,NA,NA,1485,"DG_s08",-0.671,0,1.25,1.266,10,10,10,18,1.25,"Left",10,18,8,0,8,8,0,-8,"10-10",0,-8,10,10,10,18
"15",1,"POL LIN12-Ref-POL LIN13-Ref",NA,NA,NA,NA,NA,NA,NA,NA,NA,NA,NA,NA,NA,NA,NA,NA,NA,NA,NA,NA,NA,NA,NA,NA,NA,NA,NA,NA,NA,NA,NA,NA,NA,NA,NA,NA,NA,NA,NA,NA,NA,NA,1485,"DG_s08",-0.671,0,1.25,1.266,10,10,10,18,1.25,"Left",10,18,8,0,8,8,0,-8,"10-10",0,-8,10,10,10,18
"16",1,"POL RIN12-Ref-POL RIN13-Ref",NA,NA,NA,NA,NA,NA,NA,NA,NA,NA,NA,NA,NA,NA,NA,NA,NA,NA,NA,NA,NA,NA,NA,NA,NA,NA,NA,NA,NA,NA,NA,NA,NA,NA,NA,NA,NA,NA,NA,NA,NA,NA,1485,"DG_s08",-0.671,0,1.25,1.266,10,10,10,18,1.25,"Left",10,18,8,0,8,8,0,-8,"10-10",0,-8,10,10,10,18
"17",1,"POL LIN1-Ref-POL LIN2-Ref",NA,NA,NA,NA,NA,NA,NA,NA,NA,NA,NA,NA,NA,NA,NA,NA,NA,NA,NA,NA,NA,NA,NA,NA,NA,NA,NA,NA,NA,NA,NA,NA,NA,NA,NA,NA,NA,NA,NA,NA,NA,NA,1485,"DG_s08",-0.671,0,1.25,1.266,10,10,10,18,1.25,"Left",10,18,8,0,8,8,0,-8,"10-10",0,-8,10,10,10,18
"18",1,"POL LAM9-Ref-POL LAM10-Ref",NA,NA,NA,NA,NA,NA,NA,NA,NA,NA,NA,NA,NA,NA,NA,NA,NA,NA,NA,NA,NA,NA,NA,NA,NA,NA,NA,NA,NA,NA,NA,NA,NA,NA,NA,NA,NA,NA,NA,NA,NA,NA,1485,"DG_s08",-0.671,0,1.25,1.266,10,10,10,18,1.25,"Left",10,18,8,0,8,8,0,-8,"10-10",0,-8,10,10,10,18
"19",1,"POL LIN9-Ref-POL LIN10-Ref",NA,NA,NA,NA,NA,NA,NA,NA,NA,NA,NA,NA,NA,NA,NA,NA,NA,NA,NA,NA,NA,NA,NA,NA,NA,NA,NA,NA,NA,NA,NA,NA,NA,NA,NA,NA,NA,NA,NA,NA,NA,NA,1485,"DG_s08",-0.671,0,1.25,1.266,10,10,10,18,1.25,"Left",10,18,8,0,8,8,0,-8,"10-10",0,-8,10,10,10,18
"20",1,"POL RIN11-Ref-POL RIN12-Ref",NA,NA,NA,NA,NA,NA,NA,NA,NA,NA,NA,NA,NA,NA,NA,NA,NA,NA,NA,NA,NA,NA,NA,NA,NA,NA,NA,NA,NA,NA,NA,NA,NA,NA,NA,NA,NA,NA,NA,NA,NA,NA,1485,"DG_s08",-0.671,0,1.25,1.266,10,10,10,18,1.25,"Left",10,18,8,0,8,8,0,-8,"10-10",0,-8,10,10,10,18
"21",1,"POL RIN9-Ref-POL RIN10-Ref",NA,NA,NA,NA,NA,NA,NA,NA,NA,NA,NA,NA,NA,NA,NA,NA,NA,NA,NA,NA,NA,NA,NA,NA,NA,NA,NA,NA,NA,NA,NA,NA,NA,NA,NA,NA,NA,NA,NA,NA,NA,NA,1485,"DG_s08",-0.671,0,1.25,1.266,10,10,10,18,1.25,"Left",10,18,8,0,8,8,0,-8,"10-10",0,-8,10,10,10,18
"22",2,"POL LIN10-Ref-POL LIN11-Ref",NA,NA,NA,NA,NA,NA,NA,NA,NA,NA,NA,NA,NA,NA,NA,NA,NA,NA,NA,NA,NA,NA,NA,NA,NA,NA,NA,NA,NA,NA,NA,NA,NA,NA,NA,NA,NA,NA,NA,NA,NA,NA,1486,"DG_s08",2.266,2.938,4.079,4.079,10,10,12,12,1.141,"Right",12,12,0,0,0,0,0,0,"10-10",-2,-2,12,10,12,10
"23",2,"POL RIN5-Ref-POL RIN6-Ref",NA,NA,NA,NA,NA,NA,NA,NA,NA,NA,NA,NA,NA,NA,NA,NA,NA,NA,NA,NA,NA,NA,NA,NA,NA,NA,NA,NA,NA,NA,NA,NA,NA,NA,NA,NA,NA,NA,NA,NA,NA,NA,1486,"DG_s08",2.266,2.938,4.079,4.079,10,10,12,12,1.141,"Right",12,12,0,0,0,0,0,0,"10-10",-2,-2,12,10,12,10
"24",2,"POL LIN3-Ref-POL LIN4-Ref",NA,NA,NA,NA,NA,NA,NA,NA,NA,NA,NA,NA,NA,NA,NA,NA,NA,NA,NA,NA,NA,NA,NA,NA,NA,NA,NA,NA,NA,NA,NA,NA,NA,NA,NA,NA,NA,NA,NA,NA,NA,NA,1486,"DG_s08",2.266,2.938,4.079,4.079,10,10,12,12,1.141,"Right",12,12,0,0,0,0,0,0,"10-10",-2,-2,12,10,12,10
"25",2,"POL RIN12-Ref-POL RIN13-Ref",NA,NA,NA,NA,NA,NA,NA,NA,NA,NA,NA,NA,NA,NA,NA,NA,NA,NA,NA,NA,NA,NA,NA,NA,NA,NA,NA,NA,NA,NA,NA,NA,NA,NA,NA,NA,NA,NA,NA,NA,NA,NA,1486,"DG_s08",2.266,2.938,4.079,4.079,10,10,12,12,1.141,"Right",12,12,0,0,0,0,0,0,"10-10",-2,-2,12,10,12,10
"26",2,"POL LIN11-Ref-POL LIN12-Ref",NA,NA,NA,NA,NA,NA,NA,NA,NA,NA,NA,NA,NA,NA,NA,NA,NA,NA,NA,NA,NA,NA,NA,NA,NA,NA,NA,NA,NA,NA,NA,NA,NA,NA,NA,NA,NA,NA,NA,NA,NA,NA,1486,"DG_s08",2.266,2.938,4.079,4.079,10,10,12,12,1.141,"Right",12,12,0,0,0,0,0,0,"10-10",-2,-2,12,10,12,10
"27",2,"POL RAM7-Ref-POL RAM8-Ref",NA,NA,NA,NA,NA,NA,NA,NA,NA,NA,NA,NA,NA,NA,NA,NA,NA,NA,NA,NA,NA,NA,NA,NA,NA,NA,NA,NA,NA,NA,NA,NA,NA,NA,NA,NA,NA,NA,NA,NA,NA,NA,1486,"DG_s08",2.266,2.938,4.079,4.079,10,10,12,12,1.141,"Right",12,12,0,0,0,0,0,0,"10-10",-2,-2,12,10,12,10
"28",2,"POL RIN1-Ref-POL RIN2-Ref",NA,NA,NA,NA,NA,NA,NA,NA,NA,NA,NA,NA,NA,NA,NA,NA,NA,NA,NA,NA,NA,NA,NA,NA,NA,NA,NA,NA,NA,NA,NA,NA,NA,NA,NA,NA,NA,NA,NA,NA,NA,NA,1486,"DG_s08",2.266,2.938,4.079,4.079,10,10,12,12,1.141,"Right",12,12,0,0,0,0,0,0,"10-10",-2,-2,12,10,12,10
"29",2,"POL LIN9-Ref-POL LIN10-Ref",NA,NA,NA,NA,NA,NA,NA,NA,NA,NA,NA,NA,NA,NA,NA,NA,NA,NA,NA,NA,NA,NA,NA,NA,NA,NA,NA,NA,NA,NA,NA,NA,NA,NA,NA,NA,NA,NA,NA,NA,NA,NA,1486,"DG_s08",2.266,2.938,4.079,4.079,10,10,12,12,1.141,"Right",12,12,0,0,0,0,0,0,"10-10",-2,-2,12,10,12,10
"30",2,"POL RIN11-Ref-POL RIN12-Ref",NA,NA,NA,NA,NA,NA,NA,NA,NA,NA,NA,NA,NA,NA,NA,NA,NA,NA,NA,NA,NA,NA,NA,NA,NA,NA,NA,NA,NA,NA,NA,NA,NA,NA,NA,NA,NA,NA,NA,NA,NA,NA,1486,"DG_s08",2.266,2.938,4.079,4.079,10,10,12,12,1.141,"Right",12,12,0,0,0,0,0,0,"10-10",-2,-2,12,10,12,10
"31",2,"POL RIN4-Ref-POL RIN5-Ref",NA,NA,NA,NA,NA,NA,NA,NA,NA,NA,NA,NA,NA,NA,NA,NA,NA,NA,NA,NA,NA,NA,NA,NA,NA,NA,NA,NA,NA,NA,NA,NA,NA,NA,NA,NA,NA,NA,NA,NA,NA,NA,1486,"DG_s08",2.266,2.938,4.079,4.079,10,10,12,12,1.141,"Right",12,12,0,0,0,0,0,0,"10-10",-2,-2,12,10,12,10
"32",2,"POL RIN9-Ref-POL RIN10-Ref",NA,NA,NA,NA,NA,NA,NA,NA,NA,NA,NA,NA,NA,NA,NA,NA,NA,NA,NA,NA,NA,NA,NA,NA,NA,NA,NA,NA,NA,NA,NA,NA,NA,NA,NA,NA,NA,NA,NA,NA,NA,NA,1486,"DG_s08",2.266,2.938,4.079,4.079,10,10,12,12,1.141,"Right",12,12,0,0,0,0,0,0,"10-10",-2,-2,12,10,12,10
"33",2,"POL RIN3-Ref-POL RIN4-Ref",NA,NA,NA,NA,NA,NA,NA,NA,NA,NA,NA,NA,NA,NA,NA,NA,NA,NA,NA,NA,NA,NA,NA,NA,NA,NA,NA,NA,NA,NA,NA,NA,NA,NA,NA,NA,NA,NA,NA,NA,NA,NA,1486,"DG_s08",2.266,2.938,4.079,4.079,10,10,12,12,1.141,"Right",12,12,0,0,0,0,0,0,"10-10",-2,-2,12,10,12,10
"34",2,"POL LIN4-Ref-POL LIN5-Ref",NA,NA,NA,NA,NA,NA,NA,NA,NA,NA,NA,NA,NA,NA,NA,NA,NA,NA,NA,NA,NA,NA,NA,NA,NA,NA,NA,NA,NA,NA,NA,NA,NA,NA,NA,NA,NA,NA,NA,NA,NA,NA,1486,"DG_s08",2.266,2.938,4.079,4.079,10,10,12,12,1.141,"Right",12,12,0,0,0,0,0,0,"10-10",-2,-2,12,10,12,10
"35",2,"POL LIN1-Ref-POL LIN2-Ref",NA,NA,NA,NA,NA,NA,NA,NA,NA,NA,NA,NA,NA,NA,NA,NA,NA,NA,NA,NA,NA,NA,NA,NA,NA,NA,NA,NA,NA,NA,NA,NA,NA,NA,NA,NA,NA,NA,NA,NA,NA,NA,1486,"DG_s08",2.266,2.938,4.079,4.079,10,10,12,12,1.141,"Right",12,12,0,0,0,0,0,0,"10-10",-2,-2,12,10,12,10
"36",2,"POL LIN12-Ref-POL LIN13-Ref",NA,NA,NA,NA,NA,NA,NA,NA,NA,NA,NA,NA,NA,NA,NA,NA,NA,NA,NA,NA,NA,NA,NA,NA,NA,NA,NA,NA,NA,NA,NA,NA,NA,NA,NA,NA,NA,NA,NA,NA,NA,NA,1486,"DG_s08",2.266,2.938,4.079,4.079,10,10,12,12,1.141,"Right",12,12,0,0,0,0,0,0,"10-10",-2,-2,12,10,12,10
"37",2,"POL LAM9-Ref-POL LAM10-Ref",NA,NA,NA,NA,NA,NA,NA,NA,NA,NA,NA,NA,NA,NA,NA,NA,NA,NA,NA,NA,NA,NA,NA,NA,NA,NA,NA,NA,NA,NA,NA,NA,NA,NA,NA,NA,NA,NA,NA,NA,NA,NA,1486,"DG_s08",2.266,2.938,4.079,4.079,10,10,12,12,1.141,"Right",12,12,0,0,0,0,0,0,"10-10",-2,-2,12,10,12,10
"38",2,"POL RAM8-Ref-POL RAM9-Ref",NA,NA,NA,NA,NA,NA,NA,NA,NA,NA,NA,NA,NA,NA,NA,NA,NA,NA,NA,NA,NA,NA,NA,NA,NA,NA,NA,NA,NA,NA,NA,NA,NA,NA,NA,NA,NA,NA,NA,NA,NA,NA,1486,"DG_s08",2.266,2.938,4.079,4.079,10,10,12,12,1.141,"Right",12,12,0,0,0,0,0,0,"10-10",-2,-2,12,10,12,10
"39",2,"POL LIN2-Ref-POL LIN3-Ref",NA,NA,NA,NA,NA,NA,NA,NA,NA,NA,NA,NA,NA,NA,NA,NA,NA,NA,NA,NA,NA,NA,NA,NA,NA,NA,NA,NA,NA,NA,NA,NA,NA,NA,NA,NA,NA,NA,NA,NA,NA,NA,1486,"DG_s08",2.266,2.938,4.079,4.079,10,10,12,12,1.141,"Right",12,12,0,0,0,0,0,0,"10-10",-2,-2,12,10,12,10
"40",2,"POL RIN2-Ref-POL RIN3-Ref",NA,NA,NA,NA,NA,NA,NA,NA,NA,NA,NA,NA,NA,NA,NA,NA,NA,NA,NA,NA,NA,NA,NA,NA,NA,NA,NA,NA,NA,NA,NA,NA,NA,NA,NA,NA,NA,NA,NA,NA,NA,NA,1486,"DG_s08",2.266,2.938,4.079,4.079,10,10,12,12,1.141,"Right",12,12,0,0,0,0,0,0,"10-10",-2,-2,12,10,12,10
"41",2,"POL RIN10-Ref-POL RIN11-Ref",NA,NA,NA,NA,NA,NA,NA,NA,NA,NA,NA,NA,NA,NA,NA,NA,NA,NA,NA,NA,NA,NA,NA,NA,NA,NA,NA,NA,NA,NA,NA,NA,NA,NA,NA,NA,NA,NA,NA,NA,NA,NA,1486,"DG_s08",2.266,2.938,4.079,4.079,10,10,12,12,1.141,"Right",12,12,0,0,0,0,0,0,"10-10",-2,-2,12,10,12,10
"42",2,"POL LAM8-Ref-POL LAM9-Ref",NA,NA,NA,NA,NA,NA,NA,NA,NA,NA,NA,NA,NA,NA,NA,NA,NA,NA,NA,NA,NA,NA,NA,NA,NA,NA,NA,NA,NA,NA,NA,NA,NA,NA,NA,NA,NA,NA,NA,NA,NA,NA,1486,"DG_s08",2.266,2.938,4.079,4.079,10,10,12,12,1.141,"Right",12,12,0,0,0,0,0,0,"10-10",-2,-2,12,10,12,10
"43",3,"POL LIN9-Ref-POL LIN10-Ref",NA,NA,NA,NA,NA,NA,NA,NA,NA,NA,NA,NA,NA,NA,NA,NA,NA,NA,NA,NA,NA,NA,NA,NA,NA,NA,NA,NA,NA,NA,NA,NA,NA,NA,NA,NA,NA,NA,NA,NA,NA,NA,1487,"DG_s08",5.094,5.766,7.047,7.047,10,10,8,8,1.281,"Left",8,8,0,0,0,0,0,0,"10-10",2,2,10,8,10,8
"44",3,"POL LIN4-Ref-POL LIN5-Ref",NA,NA,NA,NA,NA,NA,NA,NA,NA,NA,NA,NA,NA,NA,NA,NA,NA,NA,NA,NA,NA,NA,NA,NA,NA,NA,NA,NA,NA,NA,NA,NA,NA,NA,NA,NA,NA,NA,NA,NA,NA,NA,1487,"DG_s08",5.094,5.766,7.047,7.047,10,10,8,8,1.281,"Left",8,8,0,0,0,0,0,0,"10-10",2,2,10,8,10,8
"45",3,"POL LIN1-Ref-POL LIN2-Ref",NA,NA,NA,NA,NA,NA,NA,NA,NA,NA,NA,NA,NA,NA,NA,NA,NA,NA,NA,NA,NA,NA,NA,NA,NA,NA,NA,NA,NA,NA,NA,NA,NA,NA,NA,NA,NA,NA,NA,NA,NA,NA,1487,"DG_s08",5.094,5.766,7.047,7.047,10,10,8,8,1.281,"Left",8,8,0,0,0,0,0,0,"10-10",2,2,10,8,10,8
"46",3,"POL RIN11-Ref-POL RIN12-Ref",NA,NA,NA,NA,NA,NA,NA,NA,NA,NA,NA,NA,NA,NA,NA,NA,NA,NA,NA,NA,NA,NA,NA,NA,NA,NA,NA,NA,NA,NA,NA,NA,NA,NA,NA,NA,NA,NA,NA,NA,NA,NA,1487,"DG_s08",5.094,5.766,7.047,7.047,10,10,8,8,1.281,"Left",8,8,0,0,0,0,0,0,"10-10",2,2,10,8,10,8
"47",3,"POL RIN5-Ref-POL RIN6-Ref",NA,NA,NA,NA,NA,NA,NA,NA,NA,NA,NA,NA,NA,NA,NA,NA,NA,NA,NA,NA,NA,NA,NA,NA,NA,NA,NA,NA,NA,NA,NA,NA,NA,NA,NA,NA,NA,NA,NA,NA,NA,NA,1487,"DG_s08",5.094,5.766,7.047,7.047,10,10,8,8,1.281,"Left",8,8,0,0,0,0,0,0,"10-10",2,2,10,8,10,8
"48",3,"POL LIN12-Ref-POL LIN13-Ref",NA,NA,NA,NA,NA,NA,NA,NA,NA,NA,NA,NA,NA,NA,NA,NA,NA,NA,NA,NA,NA,NA,NA,NA,NA,NA,NA,NA,NA,NA,NA,NA,NA,NA,NA,NA,NA,NA,NA,NA,NA,NA,1487,"DG_s08",5.094,5.766,7.047,7.047,10,10,8,8,1.281,"Left",8,8,0,0,0,0,0,0,"10-10",2,2,10,8,10,8
"49",3,"POL RIN9-Ref-POL RIN10-Ref",NA,NA,NA,NA,NA,NA,NA,NA,NA,NA,NA,NA,NA,NA,NA,NA,NA,NA,NA,NA,NA,NA,NA,NA,NA,NA,NA,NA,NA,NA,NA,NA,NA,NA,NA,NA,NA,NA,NA,NA,NA,NA,1487,"DG_s08",5.094,5.766,7.047,7.047,10,10,8,8,1.281,"Left",8,8,0,0,0,0,0,0,"10-10",2,2,10,8,10,8
"50",3,"POL RIN4-Ref-POL RIN5-Ref",NA,NA,NA,NA,NA,NA,NA,NA,NA,NA,NA,NA,NA,NA,NA,NA,NA,NA,NA,NA,NA,NA,NA,NA,NA,NA,NA,NA,NA,NA,NA,NA,NA,NA,NA,NA,NA,NA,NA,NA,NA,NA,1487,"DG_s08",5.094,5.766,7.047,7.047,10,10,8,8,1.281,"Left",8,8,0,0,0,0,0,0,"10-10",2,2,10,8,10,8
"51",3,"POL LIN10-Ref-POL LIN11-Ref",NA,NA,NA,NA,NA,NA,NA,NA,NA,NA,NA,NA,NA,NA,NA,NA,NA,NA,NA,NA,NA,NA,NA,NA,NA,NA,NA,NA,NA,NA,NA,NA,NA,NA,NA,NA,NA,NA,NA,NA,NA,NA,1487,"DG_s08",5.094,5.766,7.047,7.047,10,10,8,8,1.281,"Left",8,8,0,0,0,0,0,0,"10-10",2,2,10,8,10,8
"52",3,"POL LIN3-Ref-POL LIN4-Ref",NA,NA,NA,NA,NA,NA,NA,NA,NA,NA,NA,NA,NA,NA,NA,NA,NA,NA,NA,NA,NA,NA,NA,NA,NA,NA,NA,NA,NA,NA,NA,NA,NA,NA,NA,NA,NA,NA,NA,NA,NA,NA,1487,"DG_s08",5.094,5.766,7.047,7.047,10,10,8,8,1.281,"Left",8,8,0,0,0,0,0,0,"10-10",2,2,10,8,10,8
"53",3,"POL RAM7-Ref-POL RAM8-Ref",NA,NA,NA,NA,NA,NA,NA,NA,NA,NA,NA,NA,NA,NA,NA,NA,NA,NA,NA,NA,NA,NA,NA,NA,NA,NA,NA,NA,NA,NA,NA,NA,NA,NA,NA,NA,NA,NA,NA,NA,NA,NA,1487,"DG_s08",5.094,5.766,7.047,7.047,10,10,8,8,1.281,"Left",8,8,0,0,0,0,0,0,"10-10",2,2,10,8,10,8
"54",3,"POL RIN3-Ref-POL RIN4-Ref",NA,NA,NA,NA,NA,NA,NA,NA,NA,NA,NA,NA,NA,NA,NA,NA,NA,NA,NA,NA,NA,NA,NA,NA,NA,NA,NA,NA,NA,NA,NA,NA,NA,NA,NA,NA,NA,NA,NA,NA,NA,NA,1487,"DG_s08",5.094,5.766,7.047,7.047,10,10,8,8,1.281,"Left",8,8,0,0,0,0,0,0,"10-10",2,2,10,8,10,8
"55",3,"POL LAM9-Ref-POL LAM10-Ref",NA,NA,NA,NA,NA,NA,NA,NA,NA,NA,NA,NA,NA,NA,NA,NA,NA,NA,NA,NA,NA,NA,NA,NA,NA,NA,NA,NA,NA,NA,NA,NA,NA,NA,NA,NA,NA,NA,NA,NA,NA,NA,1487,"DG_s08",5.094,5.766,7.047,7.047,10,10,8,8,1.281,"Left",8,8,0,0,0,0,0,0,"10-10",2,2,10,8,10,8
"56",3,"POL RIN12-Ref-POL RIN13-Ref",NA,NA,NA,NA,NA,NA,NA,NA,NA,NA,NA,NA,NA,NA,NA,NA,NA,NA,NA,NA,NA,NA,NA,NA,NA,NA,NA,NA,NA,NA,NA,NA,NA,NA,NA,NA,NA,NA,NA,NA,NA,NA,1487,"DG_s08",5.094,5.766,7.047,7.047,10,10,8,8,1.281,"Left",8,8,0,0,0,0,0,0,"10-10",2,2,10,8,10,8
"57",3,"POL LIN2-Ref-POL LIN3-Ref",NA,NA,NA,NA,NA,NA,NA,NA,NA,NA,NA,NA,NA,NA,NA,NA,NA,NA,NA,NA,NA,NA,NA,NA,NA,NA,NA,NA,NA,NA,NA,NA,NA,NA,NA,NA,NA,NA,NA,NA,NA,NA,1487,"DG_s08",5.094,5.766,7.047,7.047,10,10,8,8,1.281,"Left",8,8,0,0,0,0,0,0,"10-10",2,2,10,8,10,8
"58",3,"POL RAM8-Ref-POL RAM9-Ref",NA,NA,NA,NA,NA,NA,NA,NA,NA,NA,NA,NA,NA,NA,NA,NA,NA,NA,NA,NA,NA,NA,NA,NA,NA,NA,NA,NA,NA,NA,NA,NA,NA,NA,NA,NA,NA,NA,NA,NA,NA,NA,1487,"DG_s08",5.094,5.766,7.047,7.047,10,10,8,8,1.281,"Left",8,8,0,0,0,0,0,0,"10-10",2,2,10,8,10,8
"59",3,"POL RIN1-Ref-POL RIN2-Ref",NA,NA,NA,NA,NA,NA,NA,NA,NA,NA,NA,NA,NA,NA,NA,NA,NA,NA,NA,NA,NA,NA,NA,NA,NA,NA,NA,NA,NA,NA,NA,NA,NA,NA,NA,NA,NA,NA,NA,NA,NA,NA,1487,"DG_s08",5.094,5.766,7.047,7.047,10,10,8,8,1.281,"Left",8,8,0,0,0,0,0,0,"10-10",2,2,10,8,10,8
"60",3,"POL RIN10-Ref-POL RIN11-Ref",NA,NA,NA,NA,NA,NA,NA,NA,NA,NA,NA,NA,NA,NA,NA,NA,NA,NA,NA,NA,NA,NA,NA,NA,NA,NA,NA,NA,NA,NA,NA,NA,NA,NA,NA,NA,NA,NA,NA,NA,NA,NA,1487,"DG_s08",5.094,5.766,7.047,7.047,10,10,8,8,1.281,"Left",8,8,0,0,0,0,0,0,"10-10",2,2,10,8,10,8
"61",3,"POL LAM8-Ref-POL LAM9-Ref",NA,NA,NA,NA,NA,NA,NA,NA,NA,NA,NA,NA,NA,NA,NA,NA,NA,NA,NA,NA,NA,NA,NA,NA,NA,NA,NA,NA,NA,NA,NA,NA,NA,NA,NA,NA,NA,NA,NA,NA,NA,NA,1487,"DG_s08",5.094,5.766,7.047,7.047,10,10,8,8,1.281,"Left",8,8,0,0,0,0,0,0,"10-10",2,2,10,8,10,8
"62",3,"POL RIN2-Ref-POL RIN3-Ref",NA,NA,NA,NA,NA,NA,NA,NA,NA,NA,NA,NA,NA,NA,NA,NA,NA,NA,NA,NA,NA,NA,NA,NA,NA,NA,NA,NA,NA,NA,NA,NA,NA,NA,NA,NA,NA,NA,NA,NA,NA,NA,1487,"DG_s08",5.094,5.766,7.047,7.047,10,10,8,8,1.281,"Left",8,8,0,0,0,0,0,0,"10-10",2,2,10,8,10,8
"63",3,"POL LIN11-Ref-POL LIN12-Ref",NA,NA,NA,NA,NA,NA,NA,NA,NA,NA,NA,NA,NA,NA,NA,NA,NA,NA,NA,NA,NA,NA,NA,NA,NA,NA,NA,NA,NA,NA,NA,NA,NA,NA,NA,NA,NA,NA,NA,NA,NA,NA,1487,"DG_s08",5.094,5.766,7.047,7.047,10,10,8,8,1.281,"Left",8,8,0,0,0,0,0,0,"10-10",2,2,10,8,10,8
"64",4,"POL LIN10-Ref-POL LIN11-Ref",NA,NA,NA,NA,NA,NA,NA,NA,NA,NA,NA,NA,NA,NA,NA,NA,NA,NA,NA,NA,NA,NA,NA,NA,NA,NA,NA,NA,NA,NA,NA,NA,NA,NA,NA,NA,NA,NA,NA,NA,NA,NA,1488,"DG_s08",8.047,8.719,10.454,10.469,10,10,28,4,1.735,"Right",28,4,24,0,24,0,-24,24,"10-10",-18,6,28,10,4,10
"65",4,"POL LIN2-Ref-POL LIN3-Ref",NA,NA,NA,NA,NA,NA,NA,NA,NA,NA,NA,NA,NA,NA,NA,NA,NA,NA,NA,NA,NA,NA,NA,NA,NA,NA,NA,NA,NA,NA,NA,NA,NA,NA,NA,NA,NA,NA,NA,NA,NA,NA,1488,"DG_s08",8.047,8.719,10.454,10.469,10,10,28,4,1.735,"Right",28,4,24,0,24,0,-24,24,"10-10",-18,6,28,10,4,10
"66",4,"POL LAM9-Ref-POL LAM10-Ref",NA,NA,NA,NA,NA,NA,NA,NA,NA,NA,NA,NA,NA,NA,NA,NA,NA,NA,NA,NA,NA,NA,NA,NA,NA,NA,NA,NA,NA,NA,NA,NA,NA,NA,NA,NA,NA,NA,NA,NA,NA,NA,1488,"DG_s08",8.047,8.719,10.454,10.469,10,10,28,4,1.735,"Right",28,4,24,0,24,0,-24,24,"10-10",-18,6,28,10,4,10
"67",4,"POL LIN3-Ref-POL LIN4-Ref",NA,NA,NA,NA,NA,NA,NA,NA,NA,NA,NA,NA,NA,NA,NA,NA,NA,NA,NA,NA,NA,NA,NA,NA,NA,NA,NA,NA,NA,NA,NA,NA,NA,NA,NA,NA,NA,NA,NA,NA,NA,NA,1488,"DG_s08",8.047,8.719,10.454,10.469,10,10,28,4,1.735,"Right",28,4,24,0,24,0,-24,24,"10-10",-18,6,28,10,4,10
"68",4,"POL RIN5-Ref-POL RIN6-Ref",NA,NA,NA,NA,NA,NA,NA,NA,NA,NA,NA,NA,NA,NA,NA,NA,NA,NA,NA,NA,NA,NA,NA,NA,NA,NA,NA,NA,NA,NA,NA,NA,NA,NA,NA,NA,NA,NA,NA,NA,NA,NA,1488,"DG_s08",8.047,8.719,10.454,10.469,10,10,28,4,1.735,"Right",28,4,24,0,24,0,-24,24,"10-10",-18,6,28,10,4,10
"69",4,"POL LIN4-Ref-POL LIN5-Ref",NA,NA,NA,NA,NA,NA,NA,NA,NA,NA,NA,NA,NA,NA,NA,NA,NA,NA,NA,NA,NA,NA,NA,NA,NA,NA,NA,NA,NA,NA,NA,NA,NA,NA,NA,NA,NA,NA,NA,NA,NA,NA,1488,"DG_s08",8.047,8.719,10.454,10.469,10,10,28,4,1.735,"Right",28,4,24,0,24,0,-24,24,"10-10",-18,6,28,10,4,10
"70",4,"POL LIN9-Ref-POL LIN10-Ref",NA,NA,NA,NA,NA,NA,NA,NA,NA,NA,NA,NA,NA,NA,NA,NA,NA,NA,NA,NA,NA,NA,NA,NA,NA,NA,NA,NA,NA,NA,NA,NA,NA,NA,NA,NA,NA,NA,NA,NA,NA,NA,1488,"DG_s08",8.047,8.719,10.454,10.469,10,10,28,4,1.735,"Right",28,4,24,0,24,0,-24,24,"10-10",-18,6,28,10,4,10
"71",4,"POL RIN4-Ref-POL RIN5-Ref",NA,NA,NA,NA,NA,NA,NA,NA,NA,NA,NA,NA,NA,NA,NA,NA,NA,NA,NA,NA,NA,NA,NA,NA,NA,NA,NA,NA,NA,NA,NA,NA,NA,NA,NA,NA,NA,NA,NA,NA,NA,NA,1488,"DG_s08",8.047,8.719,10.454,10.469,10,10,28,4,1.735,"Right",28,4,24,0,24,0,-24,24,"10-10",-18,6,28,10,4,10
"72",4,"POL RIN2-Ref-POL RIN3-Ref",NA,NA,NA,NA,NA,NA,NA,NA,NA,NA,NA,NA,NA,NA,NA,NA,NA,NA,NA,NA,NA,NA,NA,NA,NA,NA,NA,NA,NA,NA,NA,NA,NA,NA,NA,NA,NA,NA,NA,NA,NA,NA,1488,"DG_s08",8.047,8.719,10.454,10.469,10,10,28,4,1.735,"Right",28,4,24,0,24,0,-24,24,"10-10",-18,6,28,10,4,10
"73",4,"POL RIN12-Ref-POL RIN13-Ref",NA,NA,NA,NA,NA,NA,NA,NA,NA,NA,NA,NA,NA,NA,NA,NA,NA,NA,NA,NA,NA,NA,NA,NA,NA,NA,NA,NA,NA,NA,NA,NA,NA,NA,NA,NA,NA,NA,NA,NA,NA,NA,1488,"DG_s08",8.047,8.719,10.454,10.469,10,10,28,4,1.735,"Right",28,4,24,0,24,0,-24,24,"10-10",-18,6,28,10,4,10
"74",4,"POL RIN3-Ref-POL RIN4-Ref",NA,NA,NA,NA,NA,NA,NA,NA,NA,NA,NA,NA,NA,NA,NA,NA,NA,NA,NA,NA,NA,NA,NA,NA,NA,NA,NA,NA,NA,NA,NA,NA,NA,NA,NA,NA,NA,NA,NA,NA,NA,NA,1488,"DG_s08",8.047,8.719,10.454,10.469,10,10,28,4,1.735,"Right",28,4,24,0,24,0,-24,24,"10-10",-18,6,28,10,4,10
"75",4,"POL LAM8-Ref-POL LAM9-Ref",NA,NA,NA,NA,NA,NA,NA,NA,NA,NA,NA,NA,NA,NA,NA,NA,NA,NA,NA,NA,NA,NA,NA,NA,NA,NA,NA,NA,NA,NA,NA,NA,NA,NA,NA,NA,NA,NA,NA,NA,NA,NA,1488,"DG_s08",8.047,8.719,10.454,10.469,10,10,28,4,1.735,"Right",28,4,24,0,24,0,-24,24,"10-10",-18,6,28,10,4,10
"76",4,"POL RIN9-Ref-POL RIN10-Ref",NA,NA,NA,NA,NA,NA,NA,NA,NA,NA,NA,NA,NA,NA,NA,NA,NA,NA,NA,NA,NA,NA,NA,NA,NA,NA,NA,NA,NA,NA,NA,NA,NA,NA,NA,NA,NA,NA,NA,NA,NA,NA,1488,"DG_s08",8.047,8.719,10.454,10.469,10,10,28,4,1.735,"Right",28,4,24,0,24,0,-24,24,"10-10",-18,6,28,10,4,10
"77",4,"POL RAM8-Ref-POL RAM9-Ref",NA,NA,NA,NA,NA,NA,NA,NA,NA,NA,NA,NA,NA,NA,NA,NA,NA,NA,NA,NA,NA,NA,NA,NA,NA,NA,NA,NA,NA,NA,NA,NA,NA,NA,NA,NA,NA,NA,NA,NA,NA,NA,1488,"DG_s08",8.047,8.719,10.454,10.469,10,10,28,4,1.735,"Right",28,4,24,0,24,0,-24,24,"10-10",-18,6,28,10,4,10
"78",4,"POL LIN12-Ref-POL LIN13-Ref",NA,NA,NA,NA,NA,NA,NA,NA,NA,NA,NA,NA,NA,NA,NA,NA,NA,NA,NA,NA,NA,NA,NA,NA,NA,NA,NA,NA,NA,NA,NA,NA,NA,NA,NA,NA,NA,NA,NA,NA,NA,NA,1488,"DG_s08",8.047,8.719,10.454,10.469,10,10,28,4,1.735,"Right",28,4,24,0,24,0,-24,24,"10-10",-18,6,28,10,4,10
"79",4,"POL RIN11-Ref-POL RIN12-Ref",NA,NA,NA,NA,NA,NA,NA,NA,NA,NA,NA,NA,NA,NA,NA,NA,NA,NA,NA,NA,NA,NA,NA,NA,NA,NA,NA,NA,NA,NA,NA,NA,NA,NA,NA,NA,NA,NA,NA,NA,NA,NA,1488,"DG_s08",8.047,8.719,10.454,10.469,10,10,28,4,1.735,"Right",28,4,24,0,24,0,-24,24,"10-10",-18,6,28,10,4,10
"80",4,"POL RAM7-Ref-POL RAM8-Ref",NA,NA,NA,NA,NA,NA,NA,NA,NA,NA,NA,NA,NA,NA,NA,NA,NA,NA,NA,NA,NA,NA,NA,NA,NA,NA,NA,NA,NA,NA,NA,NA,NA,NA,NA,NA,NA,NA,NA,NA,NA,NA,1488,"DG_s08",8.047,8.719,10.454,10.469,10,10,28,4,1.735,"Right",28,4,24,0,24,0,-24,24,"10-10",-18,6,28,10,4,10
"81",4,"POL RIN10-Ref-POL RIN11-Ref",NA,NA,NA,NA,NA,NA,NA,NA,NA,NA,NA,NA,NA,NA,NA,NA,NA,NA,NA,NA,NA,NA,NA,NA,NA,NA,NA,NA,NA,NA,NA,NA,NA,NA,NA,NA,NA,NA,NA,NA,NA,NA,1488,"DG_s08",8.047,8.719,10.454,10.469,10,10,28,4,1.735,"Right",28,4,24,0,24,0,-24,24,"10-10",-18,6,28,10,4,10
"82",4,"POL LIN1-Ref-POL LIN2-Ref",NA,NA,NA,NA,NA,NA,NA,NA,NA,NA,NA,NA,NA,NA,NA,NA,NA,NA,NA,NA,NA,NA,NA,NA,NA,NA,NA,NA,NA,NA,NA,NA,NA,NA,NA,NA,NA,NA,NA,NA,NA,NA,1488,"DG_s08",8.047,8.719,10.454,10.469,10,10,28,4,1.735,"Right",28,4,24,0,24,0,-24,24,"10-10",-18,6,28,10,4,10
"83",4,"POL RIN1-Ref-POL RIN2-Ref",NA,NA,NA,NA,NA,NA,NA,NA,NA,NA,NA,NA,NA,NA,NA,NA,NA,NA,NA,NA,NA,NA,NA,NA,NA,NA,NA,NA,NA,NA,NA,NA,NA,NA,NA,NA,NA,NA,NA,NA,NA,NA,1488,"DG_s08",8.047,8.719,10.454,10.469,10,10,28,4,1.735,"Right",28,4,24,0,24,0,-24,24,"10-10",-18,6,28,10,4,10
"84",4,"POL LIN11-Ref-POL LIN12-Ref",NA,NA,NA,NA,NA,NA,NA,NA,NA,NA,NA,NA,NA,NA,NA,NA,NA,NA,NA,NA,NA,NA,NA,NA,NA,NA,NA,NA,NA,NA,NA,NA,NA,NA,NA,NA,NA,NA,NA,NA,NA,NA,1488,"DG_s08",8.047,8.719,10.454,10.469,10,10,28,4,1.735,"Right",28,4,24,0,24,0,-24,24,"10-10",-18,6,28,10,4,10
"85",5,"POL RIN11-Ref-POL RIN12-Ref",NA,NA,NA,NA,NA,NA,NA,NA,NA,NA,NA,NA,NA,NA,NA,NA,NA,NA,NA,NA,NA,NA,NA,NA,NA,NA,NA,NA,NA,NA,NA,NA,NA,NA,NA,NA,NA,NA,NA,NA,NA,NA,1489,"DG_s08",11.469,12.141,13.125,13.141,10,10,22,6,0.984,"Left",22,6,16,0,16,0,-16,16,"10-10",-12,4,10,22,10,6
"86",5,"POL LIN12-Ref-POL LIN13-Ref",NA,NA,NA,NA,NA,NA,NA,NA,NA,NA,NA,NA,NA,NA,NA,NA,NA,NA,NA,NA,NA,NA,NA,NA,NA,NA,NA,NA,NA,NA,NA,NA,NA,NA,NA,NA,NA,NA,NA,NA,NA,NA,1489,"DG_s08",11.469,12.141,13.125,13.141,10,10,22,6,0.984,"Left",22,6,16,0,16,0,-16,16,"10-10",-12,4,10,22,10,6
"87",5,"POL LIN3-Ref-POL LIN4-Ref",NA,NA,NA,NA,NA,NA,NA,NA,NA,NA,NA,NA,NA,NA,NA,NA,NA,NA,NA,NA,NA,NA,NA,NA,NA,NA,NA,NA,NA,NA,NA,NA,NA,NA,NA,NA,NA,NA,NA,NA,NA,NA,1489,"DG_s08",11.469,12.141,13.125,13.141,10,10,22,6,0.984,"Left",22,6,16,0,16,0,-16,16,"10-10",-12,4,10,22,10,6
"88",5,"POL RAM7-Ref-POL RAM8-Ref",NA,NA,NA,NA,NA,NA,NA,NA,NA,NA,NA,NA,NA,NA,NA,NA,NA,NA,NA,NA,NA,NA,NA,NA,NA,NA,NA,NA,NA,NA,NA,NA,NA,NA,NA,NA,NA,NA,NA,NA,NA,NA,1489,"DG_s08",11.469,12.141,13.125,13.141,10,10,22,6,0.984,"Left",22,6,16,0,16,0,-16,16,"10-10",-12,4,10,22,10,6
"89",5,"POL LIN9-Ref-POL LIN10-Ref",NA,NA,NA,NA,NA,NA,NA,NA,NA,NA,NA,NA,NA,NA,NA,NA,NA,NA,NA,NA,NA,NA,NA,NA,NA,NA,NA,NA,NA,NA,NA,NA,NA,NA,NA,NA,NA,NA,NA,NA,NA,NA,1489,"DG_s08",11.469,12.141,13.125,13.141,10,10,22,6,0.984,"Left",22,6,16,0,16,0,-16,16,"10-10",-12,4,10,22,10,6
"90",5,"POL RIN2-Ref-POL RIN3-Ref",NA,NA,NA,NA,NA,NA,NA,NA,NA,NA,NA,NA,NA,NA,NA,NA,NA,NA,NA,NA,NA,NA,NA,NA,NA,NA,NA,NA,NA,NA,NA,NA,NA,NA,NA,NA,NA,NA,NA,NA,NA,NA,1489,"DG_s08",11.469,12.141,13.125,13.141,10,10,22,6,0.984,"Left",22,6,16,0,16,0,-16,16,"10-10",-12,4,10,22,10,6
"91",5,"POL RIN1-Ref-POL RIN2-Ref",NA,NA,NA,NA,NA,NA,NA,NA,NA,NA,NA,NA,NA,NA,NA,NA,NA,NA,NA,NA,NA,NA,NA,NA,NA,NA,NA,NA,NA,NA,NA,NA,NA,NA,NA,NA,NA,NA,NA,NA,NA,NA,1489,"DG_s08",11.469,12.141,13.125,13.141,10,10,22,6,0.984,"Left",22,6,16,0,16,0,-16,16,"10-10",-12,4,10,22,10,6
"92",5,"POL LAM9-Ref-POL LAM10-Ref",NA,NA,NA,NA,NA,NA,NA,NA,NA,NA,NA,NA,NA,NA,NA,NA,NA,NA,NA,NA,NA,NA,NA,NA,NA,NA,NA,NA,NA,NA,NA,NA,NA,NA,NA,NA,NA,NA,NA,NA,NA,NA,1489,"DG_s08",11.469,12.141,13.125,13.141,10,10,22,6,0.984,"Left",22,6,16,0,16,0,-16,16,"10-10",-12,4,10,22,10,6
"93",5,"POL RAM8-Ref-POL RAM9-Ref",NA,NA,NA,NA,NA,NA,NA,NA,NA,NA,NA,NA,NA,NA,NA,NA,NA,NA,NA,NA,NA,NA,NA,NA,NA,NA,NA,NA,NA,NA,NA,NA,NA,NA,NA,NA,NA,NA,NA,NA,NA,NA,1489,"DG_s08",11.469,12.141,13.125,13.141,10,10,22,6,0.984,"Left",22,6,16,0,16,0,-16,16,"10-10",-12,4,10,22,10,6
"94",5,"POL RIN9-Ref-POL RIN10-Ref",NA,NA,NA,NA,NA,NA,NA,NA,NA,NA,NA,NA,NA,NA,NA,NA,NA,NA,NA,NA,NA,NA,NA,NA,NA,NA,NA,NA,NA,NA,NA,NA,NA,NA,NA,NA,NA,NA,NA,NA,NA,NA,1489,"DG_s08",11.469,12.141,13.125,13.141,10,10,22,6,0.984,"Left",22,6,16,0,16,0,-16,16,"10-10",-12,4,10,22,10,6
"95",5,"POL LIN1-Ref-POL LIN2-Ref",NA,NA,NA,NA,NA,NA,NA,NA,NA,NA,NA,NA,NA,NA,NA,NA,NA,NA,NA,NA,NA,NA,NA,NA,NA,NA,NA,NA,NA,NA,NA,NA,NA,NA,NA,NA,NA,NA,NA,NA,NA,NA,1489,"DG_s08",11.469,12.141,13.125,13.141,10,10,22,6,0.984,"Left",22,6,16,0,16,0,-16,16,"10-10",-12,4,10,22,10,6
"96",5,"POL LIN10-Ref-POL LIN11-Ref",NA,NA,NA,NA,NA,NA,NA,NA,NA,NA,NA,NA,NA,NA,NA,NA,NA,NA,NA,NA,NA,NA,NA,NA,NA,NA,NA,NA,NA,NA,NA,NA,NA,NA,NA,NA,NA,NA,NA,NA,NA,NA,1489,"DG_s08",11.469,12.141,13.125,13.141,10,10,22,6,0.984,"Left",22,6,16,0,16,0,-16,16,"10-10",-12,4,10,22,10,6
"97",5,"POL LIN2-Ref-POL LIN3-Ref",NA,NA,NA,NA,NA,NA,NA,NA,NA,NA,NA,NA,NA,NA,NA,NA,NA,NA,NA,NA,NA,NA,NA,NA,NA,NA,NA,NA,NA,NA,NA,NA,NA,NA,NA,NA,NA,NA,NA,NA,NA,NA,1489,"DG_s08",11.469,12.141,13.125,13.141,10,10,22,6,0.984,"Left",22,6,16,0,16,0,-16,16,"10-10",-12,4,10,22,10,6
"98",5,"POL RIN10-Ref-POL RIN11-Ref",NA,NA,NA,NA,NA,NA,NA,NA,NA,NA,NA,NA,NA,NA,NA,NA,NA,NA,NA,NA,NA,NA,NA,NA,NA,NA,NA,NA,NA,NA,NA,NA,NA,NA,NA,NA,NA,NA,NA,NA,NA,NA,1489,"DG_s08",11.469,12.141,13.125,13.141,10,10,22,6,0.984,"Left",22,6,16,0,16,0,-16,16,"10-10",-12,4,10,22,10,6
"99",5,"POL LIN4-Ref-POL LIN5-Ref",NA,NA,NA,NA,NA,NA,NA,NA,NA,NA,NA,NA,NA,NA,NA,NA,NA,NA,NA,NA,NA,NA,NA,NA,NA,NA,NA,NA,NA,NA,NA,NA,NA,NA,NA,NA,NA,NA,NA,NA,NA,NA,1489,"DG_s08",11.469,12.141,13.125,13.141,10,10,22,6,0.984,"Left",22,6,16,0,16,0,-16,16,"10-10",-12,4,10,22,10,6
"100",5,"POL LIN11-Ref-POL LIN12-Ref",NA,NA,NA,NA,NA,NA,NA,NA,NA,NA,NA,NA,NA,NA,NA,NA,NA,NA,NA,NA,NA,NA,NA,NA,NA,NA,NA,NA,NA,NA,NA,NA,NA,NA,NA,NA,NA,NA,NA,NA,NA,NA,1489,"DG_s08",11.469,12.141,13.125,13.141,10,10,22,6,0.984,"Left",22,6,16,0,16,0,-16,16,"10-10",-12,4,10,22,10,6
"101",5,"POL RIN5-Ref-POL RIN6-Ref",NA,NA,NA,NA,NA,NA,NA,NA,NA,NA,NA,NA,NA,NA,NA,NA,NA,NA,NA,NA,NA,NA,NA,NA,NA,NA,NA,NA,NA,NA,NA,NA,NA,NA,NA,NA,NA,NA,NA,NA,NA,NA,1489,"DG_s08",11.469,12.141,13.125,13.141,10,10,22,6,0.984,"Left",22,6,16,0,16,0,-16,16,"10-10",-12,4,10,22,10,6
"102",5,"POL RIN3-Ref-POL RIN4-Ref",NA,NA,NA,NA,NA,NA,NA,NA,NA,NA,NA,NA,NA,NA,NA,NA,NA,NA,NA,NA,NA,NA,NA,NA,NA,NA,NA,NA,NA,NA,NA,NA,NA,NA,NA,NA,NA,NA,NA,NA,NA,NA,1489,"DG_s08",11.469,12.141,13.125,13.141,10,10,22,6,0.984,"Left",22,6,16,0,16,0,-16,16,"10-10",-12,4,10,22,10,6
"103",5,"POL RIN4-Ref-POL RIN5-Ref",NA,NA,NA,NA,NA,NA,NA,NA,NA,NA,NA,NA,NA,NA,NA,NA,NA,NA,NA,NA,NA,NA,NA,NA,NA,NA,NA,NA,NA,NA,NA,NA,NA,NA,NA,NA,NA,NA,NA,NA,NA,NA,1489,"DG_s08",11.469,12.141,13.125,13.141,10,10,22,6,0.984,"Left",22,6,16,0,16,0,-16,16,"10-10",-12,4,10,22,10,6
"104",5,"POL RIN12-Ref-POL RIN13-Ref",NA,NA,NA,NA,NA,NA,NA,NA,NA,NA,NA,NA,NA,NA,NA,NA,NA,NA,NA,NA,NA,NA,NA,NA,NA,NA,NA,NA,NA,NA,NA,NA,NA,NA,NA,NA,NA,NA,NA,NA,NA,NA,1489,"DG_s08",11.469,12.141,13.125,13.141,10,10,22,6,0.984,"Left",22,6,16,0,16,0,-16,16,"10-10",-12,4,10,22,10,6
"105",5,"POL LAM8-Ref-POL LAM9-Ref",NA,NA,NA,NA,NA,NA,NA,NA,NA,NA,NA,NA,NA,NA,NA,NA,NA,NA,NA,NA,NA,NA,NA,NA,NA,NA,NA,NA,NA,NA,NA,NA,NA,NA,NA,NA,NA,NA,NA,NA,NA,NA,1489,"DG_s08",11.469,12.141,13.125,13.141,10,10,22,6,0.984,"Left",22,6,16,0,16,0,-16,16,"10-10",-12,4,10,22,10,6
"106",7,"POL RIN2-Ref-POL RIN3-Ref",NA,NA,NA,NA,NA,NA,NA,NA,NA,NA,NA,NA,NA,NA,NA,NA,NA,NA,NA,NA,NA,NA,NA,NA,NA,NA,NA,NA,NA,NA,NA,NA,NA,NA,NA,NA,NA,NA,NA,NA,NA,NA,1491,"DG_s08",17.813,18.485,19.547,19.547,28,4,10,10,1.062,"Left",28,4,24,24,0,0,-24,24,"Advent",18,-6,28,10,4,10
"107",7,"POL LIN1-Ref-POL LIN2-Ref",NA,NA,NA,NA,NA,NA,NA,NA,NA,NA,NA,NA,NA,NA,NA,NA,NA,NA,NA,NA,NA,NA,NA,NA,NA,NA,NA,NA,NA,NA,NA,NA,NA,NA,NA,NA,NA,NA,NA,NA,NA,NA,1491,"DG_s08",17.813,18.485,19.547,19.547,28,4,10,10,1.062,"Left",28,4,24,24,0,0,-24,24,"Advent",18,-6,28,10,4,10
"108",7,"POL LAM8-Ref-POL LAM9-Ref",NA,NA,NA,NA,NA,NA,NA,NA,NA,NA,NA,NA,NA,NA,NA,NA,NA,NA,NA,NA,NA,NA,NA,NA,NA,NA,NA,NA,NA,NA,NA,NA,NA,NA,NA,NA,NA,NA,NA,NA,NA,NA,1491,"DG_s08",17.813,18.485,19.547,19.547,28,4,10,10,1.062,"Left",28,4,24,24,0,0,-24,24,"Advent",18,-6,28,10,4,10
"109",7,"POL RIN9-Ref-POL RIN10-Ref",NA,NA,NA,NA,NA,NA,NA,NA,NA,NA,NA,NA,NA,NA,NA,NA,NA,NA,NA,NA,NA,NA,NA,NA,NA,NA,NA,NA,NA,NA,NA,NA,NA,NA,NA,NA,NA,NA,NA,NA,NA,NA,1491,"DG_s08",17.813,18.485,19.547,19.547,28,4,10,10,1.062,"Left",28,4,24,24,0,0,-24,24,"Advent",18,-6,28,10,4,10
"110",7,"POL RIN11-Ref-POL RIN12-Ref",NA,NA,NA,NA,NA,NA,NA,NA,NA,NA,NA,NA,NA,NA,NA,NA,NA,NA,NA,NA,NA,NA,NA,NA,NA,NA,NA,NA,NA,NA,NA,NA,NA,NA,NA,NA,NA,NA,NA,NA,NA,NA,1491,"DG_s08",17.813,18.485,19.547,19.547,28,4,10,10,1.062,"Left",28,4,24,24,0,0,-24,24,"Advent",18,-6,28,10,4,10
"111",7,"POL LIN12-Ref-POL LIN13-Ref",NA,NA,NA,NA,NA,NA,NA,NA,NA,NA,NA,NA,NA,NA,NA,NA,NA,NA,NA,NA,NA,NA,NA,NA,NA,NA,NA,NA,NA,NA,NA,NA,NA,NA,NA,NA,NA,NA,NA,NA,NA,NA,1491,"DG_s08",17.813,18.485,19.547,19.547,28,4,10,10,1.062,"Left",28,4,24,24,0,0,-24,24,"Advent",18,-6,28,10,4,10
"112",7,"POL LIN2-Ref-POL LIN3-Ref",NA,NA,NA,NA,NA,NA,NA,NA,NA,NA,NA,NA,NA,NA,NA,NA,NA,NA,NA,NA,NA,NA,NA,NA,NA,NA,NA,NA,NA,NA,NA,NA,NA,NA,NA,NA,NA,NA,NA,NA,NA,NA,1491,"DG_s08",17.813,18.485,19.547,19.547,28,4,10,10,1.062,"Left",28,4,24,24,0,0,-24,24,"Advent",18,-6,28,10,4,10
"113",7,"POL LAM9-Ref-POL LAM10-Ref",NA,NA,NA,NA,NA,NA,NA,NA,NA,NA,NA,NA,NA,NA,NA,NA,NA,NA,NA,NA,NA,NA,NA,NA,NA,NA,NA,NA,NA,NA,NA,NA,NA,NA,NA,NA,NA,NA,NA,NA,NA,NA,1491,"DG_s08",17.813,18.485,19.547,19.547,28,4,10,10,1.062,"Left",28,4,24,24,0,0,-24,24,"Advent",18,-6,28,10,4,10
"114",7,"POL RIN5-Ref-POL RIN6-Ref",NA,NA,NA,NA,NA,NA,NA,NA,NA,NA,NA,NA,NA,NA,NA,NA,NA,NA,NA,NA,NA,NA,NA,NA,NA,NA,NA,NA,NA,NA,NA,NA,NA,NA,NA,NA,NA,NA,NA,NA,NA,NA,1491,"DG_s08",17.813,18.485,19.547,19.547,28,4,10,10,1.062,"Left",28,4,24,24,0,0,-24,24,"Advent",18,-6,28,10,4,10
"115",7,"POL RAM8-Ref-POL RAM9-Ref",NA,NA,NA,NA,NA,NA,NA,NA,NA,NA,NA,NA,NA,NA,NA,NA,NA,NA,NA,NA,NA,NA,NA,NA,NA,NA,NA,NA,NA,NA,NA,NA,NA,NA,NA,NA,NA,NA,NA,NA,NA,NA,1491,"DG_s08",17.813,18.485,19.547,19.547,28,4,10,10,1.062,"Left",28,4,24,24,0,0,-24,24,"Advent",18,-6,28,10,4,10
"116",7,"POL LIN9-Ref-POL LIN10-Ref",NA,NA,NA,NA,NA,NA,NA,NA,NA,NA,NA,NA,NA,NA,NA,NA,NA,NA,NA,NA,NA,NA,NA,NA,NA,NA,NA,NA,NA,NA,NA,NA,NA,NA,NA,NA,NA,NA,NA,NA,NA,NA,1491,"DG_s08",17.813,18.485,19.547,19.547,28,4,10,10,1.062,"Left",28,4,24,24,0,0,-24,24,"Advent",18,-6,28,10,4,10
"117",7,"POL RIN3-Ref-POL RIN4-Ref",NA,NA,NA,NA,NA,NA,NA,NA,NA,NA,NA,NA,NA,NA,NA,NA,NA,NA,NA,NA,NA,NA,NA,NA,NA,NA,NA,NA,NA,NA,NA,NA,NA,NA,NA,NA,NA,NA,NA,NA,NA,NA,1491,"DG_s08",17.813,18.485,19.547,19.547,28,4,10,10,1.062,"Left",28,4,24,24,0,0,-24,24,"Advent",18,-6,28,10,4,10
"118",7,"POL LIN3-Ref-POL LIN4-Ref",NA,NA,NA,NA,NA,NA,NA,NA,NA,NA,NA,NA,NA,NA,NA,NA,NA,NA,NA,NA,NA,NA,NA,NA,NA,NA,NA,NA,NA,NA,NA,NA,NA,NA,NA,NA,NA,NA,NA,NA,NA,NA,1491,"DG_s08",17.813,18.485,19.547,19.547,28,4,10,10,1.062,"Left",28,4,24,24,0,0,-24,24,"Advent",18,-6,28,10,4,10
"119",7,"POL LIN10-Ref-POL LIN11-Ref",NA,NA,NA,NA,NA,NA,NA,NA,NA,NA,NA,NA,NA,NA,NA,NA,NA,NA,NA,NA,NA,NA,NA,NA,NA,NA,NA,NA,NA,NA,NA,NA,NA,NA,NA,NA,NA,NA,NA,NA,NA,NA,1491,"DG_s08",17.813,18.485,19.547,19.547,28,4,10,10,1.062,"Left",28,4,24,24,0,0,-24,24,"Advent",18,-6,28,10,4,10
"120",7,"POL RIN4-Ref-POL RIN5-Ref",NA,NA,NA,NA,NA,NA,NA,NA,NA,NA,NA,NA,NA,NA,NA,NA,NA,NA,NA,NA,NA,NA,NA,NA,NA,NA,NA,NA,NA,NA,NA,NA,NA,NA,NA,NA,NA,NA,NA,NA,NA,NA,1491,"DG_s08",17.813,18.485,19.547,19.547,28,4,10,10,1.062,"Left",28,4,24,24,0,0,-24,24,"Advent",18,-6,28,10,4,10
"121",7,"POL RIN10-Ref-POL RIN11-Ref",NA,NA,NA,NA,NA,NA,NA,NA,NA,NA,NA,NA,NA,NA,NA,NA,NA,NA,NA,NA,NA,NA,NA,NA,NA,NA,NA,NA,NA,NA,NA,NA,NA,NA,NA,NA,NA,NA,NA,NA,NA,NA,1491,"DG_s08",17.813,18.485,19.547,19.547,28,4,10,10,1.062,"Left",28,4,24,24,0,0,-24,24,"Advent",18,-6,28,10,4,10
"122",7,"POL RAM7-Ref-POL RAM8-Ref",NA,NA,NA,NA,NA,NA,NA,NA,NA,NA,NA,NA,NA,NA,NA,NA,NA,NA,NA,NA,NA,NA,NA,NA,NA,NA,NA,NA,NA,NA,NA,NA,NA,NA,NA,NA,NA,NA,NA,NA,NA,NA,1491,"DG_s08",17.813,18.485,19.547,19.547,28,4,10,10,1.062,"Left",28,4,24,24,0,0,-24,24,"Advent",18,-6,28,10,4,10
"123",7,"POL LIN11-Ref-POL LIN12-Ref",NA,NA,NA,NA,NA,NA,NA,NA,NA,NA,NA,NA,NA,NA,NA,NA,NA,NA,NA,NA,NA,NA,NA,NA,NA,NA,NA,NA,NA,NA,NA,NA,NA,NA,NA,NA,NA,NA,NA,NA,NA,NA,1491,"DG_s08",17.813,18.485,19.547,19.547,28,4,10,10,1.062,"Left",28,4,24,24,0,0,-24,24,"Advent",18,-6,28,10,4,10
"124",7,"POL RIN1-Ref-POL RIN2-Ref",NA,NA,NA,NA,NA,NA,NA,NA,NA,NA,NA,NA,NA,NA,NA,NA,NA,NA,NA,NA,NA,NA,NA,NA,NA,NA,NA,NA,NA,NA,NA,NA,NA,NA,NA,NA,NA,NA,NA,NA,NA,NA,1491,"DG_s08",17.813,18.485,19.547,19.547,28,4,10,10,1.062,"Left",28,4,24,24,0,0,-24,24,"Advent",18,-6,28,10,4,10
"125",7,"POL RIN12-Ref-POL RIN13-Ref",NA,NA,NA,NA,NA,NA,NA,NA,NA,NA,NA,NA,NA,NA,NA,NA,NA,NA,NA,NA,NA,NA,NA,NA,NA,NA,NA,NA,NA,NA,NA,NA,NA,NA,NA,NA,NA,NA,NA,NA,NA,NA,1491,"DG_s08",17.813,18.485,19.547,19.547,28,4,10,10,1.062,"Left",28,4,24,24,0,0,-24,24,"Advent",18,-6,28,10,4,10
"126",7,"POL LIN4-Ref-POL LIN5-Ref",NA,NA,NA,NA,NA,NA,NA,NA,NA,NA,NA,NA,NA,NA,NA,NA,NA,NA,NA,NA,NA,NA,NA,NA,NA,NA,NA,NA,NA,NA,NA,NA,NA,NA,NA,NA,NA,NA,NA,NA,NA,NA,1491,"DG_s08",17.813,18.485,19.547,19.547,28,4,10,10,1.062,"Left",28,4,24,24,0,0,-24,24,"Advent",18,-6,28,10,4,10
"127",9,"POL RIN11-Ref-POL RIN12-Ref",NA,NA,NA,NA,NA,NA,NA,NA,NA,NA,NA,NA,NA,NA,NA,NA,NA,NA,NA,NA,NA,NA,NA,NA,NA,NA,NA,NA,NA,NA,NA,NA,NA,NA,NA,NA,NA,NA,NA,NA,NA,NA,1493,"DG_s08",24.219,24.891,26.235,26.235,13,7,10,10,1.344,"Left",13,7,6,6,0,0,-6,6,"Advent",3,-3,13,10,7,10
"128",9,"POL LIN11-Ref-POL LIN12-Ref",NA,NA,NA,NA,NA,NA,NA,NA,NA,NA,NA,NA,NA,NA,NA,NA,NA,NA,NA,NA,NA,NA,NA,NA,NA,NA,NA,NA,NA,NA,NA,NA,NA,NA,NA,NA,NA,NA,NA,NA,NA,NA,1493,"DG_s08",24.219,24.891,26.235,26.235,13,7,10,10,1.344,"Left",13,7,6,6,0,0,-6,6,"Advent",3,-3,13,10,7,10
"129",9,"POL LIN10-Ref-POL LIN11-Ref",NA,NA,NA,NA,NA,NA,NA,NA,NA,NA,NA,NA,NA,NA,NA,NA,NA,NA,NA,NA,NA,NA,NA,NA,NA,NA,NA,NA,NA,NA,NA,NA,NA,NA,NA,NA,NA,NA,NA,NA,NA,NA,1493,"DG_s08",24.219,24.891,26.235,26.235,13,7,10,10,1.344,"Left",13,7,6,6,0,0,-6,6,"Advent",3,-3,13,10,7,10
"130",9,"POL LIN4-Ref-POL LIN5-Ref",NA,NA,NA,NA,NA,NA,NA,NA,NA,NA,NA,NA,NA,NA,NA,NA,NA,NA,NA,NA,NA,NA,NA,NA,NA,NA,NA,NA,NA,NA,NA,NA,NA,NA,NA,NA,NA,NA,NA,NA,NA,NA,1493,"DG_s08",24.219,24.891,26.235,26.235,13,7,10,10,1.344,"Left",13,7,6,6,0,0,-6,6,"Advent",3,-3,13,10,7,10
"131",9,"POL RAM8-Ref-POL RAM9-Ref",NA,NA,NA,NA,NA,NA,NA,NA,NA,NA,NA,NA,NA,NA,NA,NA,NA,NA,NA,NA,NA,NA,NA,NA,NA,NA,NA,NA,NA,NA,NA,NA,NA,NA,NA,NA,NA,NA,NA,NA,NA,NA,1493,"DG_s08",24.219,24.891,26.235,26.235,13,7,10,10,1.344,"Left",13,7,6,6,0,0,-6,6,"Advent",3,-3,13,10,7,10
"132",9,"POL RIN10-Ref-POL RIN11-Ref",NA,NA,NA,NA,NA,NA,NA,NA,NA,NA,NA,NA,NA,NA,NA,NA,NA,NA,NA,NA,NA,NA,NA,NA,NA,NA,NA,NA,NA,NA,NA,NA,NA,NA,NA,NA,NA,NA,NA,NA,NA,NA,1493,"DG_s08",24.219,24.891,26.235,26.235,13,7,10,10,1.344,"Left",13,7,6,6,0,0,-6,6,"Advent",3,-3,13,10,7,10
"133",9,"POL RIN12-Ref-POL RIN13-Ref",NA,NA,NA,NA,NA,NA,NA,NA,NA,NA,NA,NA,NA,NA,NA,NA,NA,NA,NA,NA,NA,NA,NA,NA,NA,NA,NA,NA,NA,NA,NA,NA,NA,NA,NA,NA,NA,NA,NA,NA,NA,NA,1493,"DG_s08",24.219,24.891,26.235,26.235,13,7,10,10,1.344,"Left",13,7,6,6,0,0,-6,6,"Advent",3,-3,13,10,7,10
"134",9,"POL RIN3-Ref-POL RIN4-Ref",NA,NA,NA,NA,NA,NA,NA,NA,NA,NA,NA,NA,NA,NA,NA,NA,NA,NA,NA,NA,NA,NA,NA,NA,NA,NA,NA,NA,NA,NA,NA,NA,NA,NA,NA,NA,NA,NA,NA,NA,NA,NA,1493,"DG_s08",24.219,24.891,26.235,26.235,13,7,10,10,1.344,"Left",13,7,6,6,0,0,-6,6,"Advent",3,-3,13,10,7,10
"135",9,"POL LIN3-Ref-POL LIN4-Ref",NA,NA,NA,NA,NA,NA,NA,NA,NA,NA,NA,NA,NA,NA,NA,NA,NA,NA,NA,NA,NA,NA,NA,NA,NA,NA,NA,NA,NA,NA,NA,NA,NA,NA,NA,NA,NA,NA,NA,NA,NA,NA,1493,"DG_s08",24.219,24.891,26.235,26.235,13,7,10,10,1.344,"Left",13,7,6,6,0,0,-6,6,"Advent",3,-3,13,10,7,10
"136",9,"POL RIN5-Ref-POL RIN6-Ref",NA,NA,NA,NA,NA,NA,NA,NA,NA,NA,NA,NA,NA,NA,NA,NA,NA,NA,NA,NA,NA,NA,NA,NA,NA,NA,NA,NA,NA,NA,NA,NA,NA,NA,NA,NA,NA,NA,NA,NA,NA,NA,1493,"DG_s08",24.219,24.891,26.235,26.235,13,7,10,10,1.344,"Left",13,7,6,6,0,0,-6,6,"Advent",3,-3,13,10,7,10
"137",9,"POL LIN12-Ref-POL LIN13-Ref",NA,NA,NA,NA,NA,NA,NA,NA,NA,NA,NA,NA,NA,NA,NA,NA,NA,NA,NA,NA,NA,NA,NA,NA,NA,NA,NA,NA,NA,NA,NA,NA,NA,NA,NA,NA,NA,NA,NA,NA,NA,NA,1493,"DG_s08",24.219,24.891,26.235,26.235,13,7,10,10,1.344,"Left",13,7,6,6,0,0,-6,6,"Advent",3,-3,13,10,7,10
"138",9,"POL LIN1-Ref-POL LIN2-Ref",NA,NA,NA,NA,NA,NA,NA,NA,NA,NA,NA,NA,NA,NA,NA,NA,NA,NA,NA,NA,NA,NA,NA,NA,NA,NA,NA,NA,NA,NA,NA,NA,NA,NA,NA,NA,NA,NA,NA,NA,NA,NA,1493,"DG_s08",24.219,24.891,26.235,26.235,13,7,10,10,1.344,"Left",13,7,6,6,0,0,-6,6,"Advent",3,-3,13,10,7,10
"139",9,"POL LIN2-Ref-POL LIN3-Ref",NA,NA,NA,NA,NA,NA,NA,NA,NA,NA,NA,NA,NA,NA,NA,NA,NA,NA,NA,NA,NA,NA,NA,NA,NA,NA,NA,NA,NA,NA,NA,NA,NA,NA,NA,NA,NA,NA,NA,NA,NA,NA,1493,"DG_s08",24.219,24.891,26.235,26.235,13,7,10,10,1.344,"Left",13,7,6,6,0,0,-6,6,"Advent",3,-3,13,10,7,10
"140",9,"POL RAM7-Ref-POL RAM8-Ref",NA,NA,NA,NA,NA,NA,NA,NA,NA,NA,NA,NA,NA,NA,NA,NA,NA,NA,NA,NA,NA,NA,NA,NA,NA,NA,NA,NA,NA,NA,NA,NA,NA,NA,NA,NA,NA,NA,NA,NA,NA,NA,1493,"DG_s08",24.219,24.891,26.235,26.235,13,7,10,10,1.344,"Left",13,7,6,6,0,0,-6,6,"Advent",3,-3,13,10,7,10
"141",9,"POL RIN4-Ref-POL RIN5-Ref",NA,NA,NA,NA,NA,NA,NA,NA,NA,NA,NA,NA,NA,NA,NA,NA,NA,NA,NA,NA,NA,NA,NA,NA,NA,NA,NA,NA,NA,NA,NA,NA,NA,NA,NA,NA,NA,NA,NA,NA,NA,NA,1493,"DG_s08",24.219,24.891,26.235,26.235,13,7,10,10,1.344,"Left",13,7,6,6,0,0,-6,6,"Advent",3,-3,13,10,7,10
"142",9,"POL RIN1-Ref-POL RIN2-Ref",NA,NA,NA,NA,NA,NA,NA,NA,NA,NA,NA,NA,NA,NA,NA,NA,NA,NA,NA,NA,NA,NA,NA,NA,NA,NA,NA,NA,NA,NA,NA,NA,NA,NA,NA,NA,NA,NA,NA,NA,NA,NA,1493,"DG_s08",24.219,24.891,26.235,26.235,13,7,10,10,1.344,"Left",13,7,6,6,0,0,-6,6,"Advent",3,-3,13,10,7,10
"143",9,"POL LIN9-Ref-POL LIN10-Ref",NA,NA,NA,NA,NA,NA,NA,NA,NA,NA,NA,NA,NA,NA,NA,NA,NA,NA,NA,NA,NA,NA,NA,NA,NA,NA,NA,NA,NA,NA,NA,NA,NA,NA,NA,NA,NA,NA,NA,NA,NA,NA,1493,"DG_s08",24.219,24.891,26.235,26.235,13,7,10,10,1.344,"Left",13,7,6,6,0,0,-6,6,"Advent",3,-3,13,10,7,10
"144",9,"POL LAM8-Ref-POL LAM9-Ref",NA,NA,NA,NA,NA,NA,NA,NA,NA,NA,NA,NA,NA,NA,NA,NA,NA,NA,NA,NA,NA,NA,NA,NA,NA,NA,NA,NA,NA,NA,NA,NA,NA,NA,NA,NA,NA,NA,NA,NA,NA,NA,1493,"DG_s08",24.219,24.891,26.235,26.235,13,7,10,10,1.344,"Left",13,7,6,6,0,0,-6,6,"Advent",3,-3,13,10,7,10
"145",9,"POL RIN9-Ref-POL RIN10-Ref",NA,NA,NA,NA,NA,NA,NA,NA,NA,NA,NA,NA,NA,NA,NA,NA,NA,NA,NA,NA,NA,NA,NA,NA,NA,NA,NA,NA,NA,NA,NA,NA,NA,NA,NA,NA,NA,NA,NA,NA,NA,NA,1493,"DG_s08",24.219,24.891,26.235,26.235,13,7,10,10,1.344,"Left",13,7,6,6,0,0,-6,6,"Advent",3,-3,13,10,7,10
"146",9,"POL LAM9-Ref-POL LAM10-Ref",NA,NA,NA,NA,NA,NA,NA,NA,NA,NA,NA,NA,NA,NA,NA,NA,NA,NA,NA,NA,NA,NA,NA,NA,NA,NA,NA,NA,NA,NA,NA,NA,NA,NA,NA,NA,NA,NA,NA,NA,NA,NA,1493,"DG_s08",24.219,24.891,26.235,26.235,13,7,10,10,1.344,"Left",13,7,6,6,0,0,-6,6,"Advent",3,-3,13,10,7,10
"147",9,"POL RIN2-Ref-POL RIN3-Ref",NA,NA,NA,NA,NA,NA,NA,NA,NA,NA,NA,NA,NA,NA,NA,NA,NA,NA,NA,NA,NA,NA,NA,NA,NA,NA,NA,NA,NA,NA,NA,NA,NA,NA,NA,NA,NA,NA,NA,NA,NA,NA,1493,"DG_s08",24.219,24.891,26.235,26.235,13,7,10,10,1.344,"Left",13,7,6,6,0,0,-6,6,"Advent",3,-3,13,10,7,10
"148",10,"POL RIN3-Ref-POL RIN4-Ref",NA,NA,NA,NA,NA,NA,NA,NA,NA,NA,NA,NA,NA,NA,NA,NA,NA,NA,NA,NA,NA,NA,NA,NA,NA,NA,NA,NA,NA,NA,NA,NA,NA,NA,NA,NA,NA,NA,NA,NA,NA,NA,1494,"DG_s08",27.235,27.907,29.391,29.391,10,10,10,26,1.484,"Left",10,26,16,0,16,16,0,-16,"10-10",0,-16,10,10,10,26
"149",10,"POL LIN12-Ref-POL LIN13-Ref",NA,NA,NA,NA,NA,NA,NA,NA,NA,NA,NA,NA,NA,NA,NA,NA,NA,NA,NA,NA,NA,NA,NA,NA,NA,NA,NA,NA,NA,NA,NA,NA,NA,NA,NA,NA,NA,NA,NA,NA,NA,NA,1494,"DG_s08",27.235,27.907,29.391,29.391,10,10,10,26,1.484,"Left",10,26,16,0,16,16,0,-16,"10-10",0,-16,10,10,10,26
"150",10,"POL RIN2-Ref-POL RIN3-Ref",NA,NA,NA,NA,NA,NA,NA,NA,NA,NA,NA,NA,NA,NA,NA,NA,NA,NA,NA,NA,NA,NA,NA,NA,NA,NA,NA,NA,NA,NA,NA,NA,NA,NA,NA,NA,NA,NA,NA,NA,NA,NA,1494,"DG_s08",27.235,27.907,29.391,29.391,10,10,10,26,1.484,"Left",10,26,16,0,16,16,0,-16,"10-10",0,-16,10,10,10,26
"151",10,"POL RIN11-Ref-POL RIN12-Ref",NA,NA,NA,NA,NA,NA,NA,NA,NA,NA,NA,NA,NA,NA,NA,NA,NA,NA,NA,NA,NA,NA,NA,NA,NA,NA,NA,NA,NA,NA,NA,NA,NA,NA,NA,NA,NA,NA,NA,NA,NA,NA,1494,"DG_s08",27.235,27.907,29.391,29.391,10,10,10,26,1.484,"Left",10,26,16,0,16,16,0,-16,"10-10",0,-16,10,10,10,26
"152",10,"POL LIN9-Ref-POL LIN10-Ref",NA,NA,NA,NA,NA,NA,NA,NA,NA,NA,NA,NA,NA,NA,NA,NA,NA,NA,NA,NA,NA,NA,NA,NA,NA,NA,NA,NA,NA,NA,NA,NA,NA,NA,NA,NA,NA,NA,NA,NA,NA,NA,1494,"DG_s08",27.235,27.907,29.391,29.391,10,10,10,26,1.484,"Left",10,26,16,0,16,16,0,-16,"10-10",0,-16,10,10,10,26
"153",10,"POL RAM8-Ref-POL RAM9-Ref",NA,NA,NA,NA,NA,NA,NA,NA,NA,NA,NA,NA,NA,NA,NA,NA,NA,NA,NA,NA,NA,NA,NA,NA,NA,NA,NA,NA,NA,NA,NA,NA,NA,NA,NA,NA,NA,NA,NA,NA,NA,NA,1494,"DG_s08",27.235,27.907,29.391,29.391,10,10,10,26,1.484,"Left",10,26,16,0,16,16,0,-16,"10-10",0,-16,10,10,10,26
"154",10,"POL RAM7-Ref-POL RAM8-Ref",NA,NA,NA,NA,NA,NA,NA,NA,NA,NA,NA,NA,NA,NA,NA,NA,NA,NA,NA,NA,NA,NA,NA,NA,NA,NA,NA,NA,NA,NA,NA,NA,NA,NA,NA,NA,NA,NA,NA,NA,NA,NA,1494,"DG_s08",27.235,27.907,29.391,29.391,10,10,10,26,1.484,"Left",10,26,16,0,16,16,0,-16,"10-10",0,-16,10,10,10,26
"155",10,"POL RIN10-Ref-POL RIN11-Ref",NA,NA,NA,NA,NA,NA,NA,NA,NA,NA,NA,NA,NA,NA,NA,NA,NA,NA,NA,NA,NA,NA,NA,NA,NA,NA,NA,NA,NA,NA,NA,NA,NA,NA,NA,NA,NA,NA,NA,NA,NA,NA,1494,"DG_s08",27.235,27.907,29.391,29.391,10,10,10,26,1.484,"Left",10,26,16,0,16,16,0,-16,"10-10",0,-16,10,10,10,26
"156",10,"POL RIN1-Ref-POL RIN2-Ref",NA,NA,NA,NA,NA,NA,NA,NA,NA,NA,NA,NA,NA,NA,NA,NA,NA,NA,NA,NA,NA,NA,NA,NA,NA,NA,NA,NA,NA,NA,NA,NA,NA,NA,NA,NA,NA,NA,NA,NA,NA,NA,1494,"DG_s08",27.235,27.907,29.391,29.391,10,10,10,26,1.484,"Left",10,26,16,0,16,16,0,-16,"10-10",0,-16,10,10,10,26
"157",10,"POL RIN5-Ref-POL RIN6-Ref",NA,NA,NA,NA,NA,NA,NA,NA,NA,NA,NA,NA,NA,NA,NA,NA,NA,NA,NA,NA,NA,NA,NA,NA,NA,NA,NA,NA,NA,NA,NA,NA,NA,NA,NA,NA,NA,NA,NA,NA,NA,NA,1494,"DG_s08",27.235,27.907,29.391,29.391,10,10,10,26,1.484,"Left",10,26,16,0,16,16,0,-16,"10-10",0,-16,10,10,10,26
"158",10,"POL LAM8-Ref-POL LAM9-Ref",NA,NA,NA,NA,NA,NA,NA,NA,NA,NA,NA,NA,NA,NA,NA,NA,NA,NA,NA,NA,NA,NA,NA,NA,NA,NA,NA,NA,NA,NA,NA,NA,NA,NA,NA,NA,NA,NA,NA,NA,NA,NA,1494,"DG_s08",27.235,27.907,29.391,29.391,10,10,10,26,1.484,"Left",10,26,16,0,16,16,0,-16,"10-10",0,-16,10,10,10,26
"159",10,"POL LIN3-Ref-POL LIN4-Ref",NA,NA,NA,NA,NA,NA,NA,NA,NA,NA,NA,NA,NA,NA,NA,NA,NA,NA,NA,NA,NA,NA,NA,NA,NA,NA,NA,NA,NA,NA,NA,NA,NA,NA,NA,NA,NA,NA,NA,NA,NA,NA,1494,"DG_s08",27.235,27.907,29.391,29.391,10,10,10,26,1.484,"Left",10,26,16,0,16,16,0,-16,"10-10",0,-16,10,10,10,26
"160",10,"POL RIN4-Ref-POL RIN5-Ref",NA,NA,NA,NA,NA,NA,NA,NA,NA,NA,NA,NA,NA,NA,NA,NA,NA,NA,NA,NA,NA,NA,NA,NA,NA,NA,NA,NA,NA,NA,NA,NA,NA,NA,NA,NA,NA,NA,NA,NA,NA,NA,1494,"DG_s08",27.235,27.907,29.391,29.391,10,10,10,26,1.484,"Left",10,26,16,0,16,16,0,-16,"10-10",0,-16,10,10,10,26
"161",10,"POL LAM9-Ref-POL LAM10-Ref",NA,NA,NA,NA,NA,NA,NA,NA,NA,NA,NA,NA,NA,NA,NA,NA,NA,NA,NA,NA,NA,NA,NA,NA,NA,NA,NA,NA,NA,NA,NA,NA,NA,NA,NA,NA,NA,NA,NA,NA,NA,NA,1494,"DG_s08",27.235,27.907,29.391,29.391,10,10,10,26,1.484,"Left",10,26,16,0,16,16,0,-16,"10-10",0,-16,10,10,10,26
"162",10,"POL LIN11-Ref-POL LIN12-Ref",NA,NA,NA,NA,NA,NA,NA,NA,NA,NA,NA,NA,NA,NA,NA,NA,NA,NA,NA,NA,NA,NA,NA,NA,NA,NA,NA,NA,NA,NA,NA,NA,NA,NA,NA,NA,NA,NA,NA,NA,NA,NA,1494,"DG_s08",27.235,27.907,29.391,29.391,10,10,10,26,1.484,"Left",10,26,16,0,16,16,0,-16,"10-10",0,-16,10,10,10,26
"163",10,"POL LIN2-Ref-POL LIN3-Ref",NA,NA,NA,NA,NA,NA,NA,NA,NA,NA,NA,NA,NA,NA,NA,NA,NA,NA,NA,NA,NA,NA,NA,NA,NA,NA,NA,NA,NA,NA,NA,NA,NA,NA,NA,NA,NA,NA,NA,NA,NA,NA,1494,"DG_s08",27.235,27.907,29.391,29.391,10,10,10,26,1.484,"Left",10,26,16,0,16,16,0,-16,"10-10",0,-16,10,10,10,26
"164",10,"POL LIN4-Ref-POL LIN5-Ref",NA,NA,NA,NA,NA,NA,NA,NA,NA,NA,NA,NA,NA,NA,NA,NA,NA,NA,NA,NA,NA,NA,NA,NA,NA,NA,NA,NA,NA,NA,NA,NA,NA,NA,NA,NA,NA,NA,NA,NA,NA,NA,1494,"DG_s08",27.235,27.907,29.391,29.391,10,10,10,26,1.484,"Left",10,26,16,0,16,16,0,-16,"10-10",0,-16,10,10,10,26
"165",10,"POL RIN12-Ref-POL RIN13-Ref",NA,NA,NA,NA,NA,NA,NA,NA,NA,NA,NA,NA,NA,NA,NA,NA,NA,NA,NA,NA,NA,NA,NA,NA,NA,NA,NA,NA,NA,NA,NA,NA,NA,NA,NA,NA,NA,NA,NA,NA,NA,NA,1494,"DG_s08",27.235,27.907,29.391,29.391,10,10,10,26,1.484,"Left",10,26,16,0,16,16,0,-16,"10-10",0,-16,10,10,10,26
"166",10,"POL RIN9-Ref-POL RIN10-Ref",NA,NA,NA,NA,NA,NA,NA,NA,NA,NA,NA,NA,NA,NA,NA,NA,NA,NA,NA,NA,NA,NA,NA,NA,NA,NA,NA,NA,NA,NA,NA,NA,NA,NA,NA,NA,NA,NA,NA,NA,NA,NA,1494,"DG_s08",27.235,27.907,29.391,29.391,10,10,10,26,1.484,"Left",10,26,16,0,16,16,0,-16,"10-10",0,-16,10,10,10,26
"167",10,"POL LIN10-Ref-POL LIN11-Ref",NA,NA,NA,NA,NA,NA,NA,NA,NA,NA,NA,NA,NA,NA,NA,NA,NA,NA,NA,NA,NA,NA,NA,NA,NA,NA,NA,NA,NA,NA,NA,NA,NA,NA,NA,NA,NA,NA,NA,NA,NA,NA,1494,"DG_s08",27.235,27.907,29.391,29.391,10,10,10,26,1.484,"Left",10,26,16,0,16,16,0,-16,"10-10",0,-16,10,10,10,26
"168",10,"POL LIN1-Ref-POL LIN2-Ref",NA,NA,NA,NA,NA,NA,NA,NA,NA,NA,NA,NA,NA,NA,NA,NA,NA,NA,NA,NA,NA,NA,NA,NA,NA,NA,NA,NA,NA,NA,NA,NA,NA,NA,NA,NA,NA,NA,NA,NA,NA,NA,1494,"DG_s08",27.235,27.907,29.391,29.391,10,10,10,26,1.484,"Left",10,26,16,0,16,16,0,-16,"10-10",0,-16,10,10,10,26
"169",12,"POL LIN2-Ref-POL LIN3-Ref",NA,NA,NA,NA,NA,NA,NA,NA,NA,NA,NA,NA,NA,NA,NA,NA,NA,NA,NA,NA,NA,NA,NA,NA,NA,NA,NA,NA,NA,NA,NA,NA,NA,NA,NA,NA,NA,NA,NA,NA,NA,NA,1496,"DG_s08",34.063,34.735,35.969,35.969,16,4,10,10,1.234,"Left",16,4,12,12,0,0,-12,12,"Advent",6,-6,16,10,4,10
"170",12,"POL LIN4-Ref-POL LIN5-Ref",NA,NA,NA,NA,NA,NA,NA,NA,NA,NA,NA,NA,NA,NA,NA,NA,NA,NA,NA,NA,NA,NA,NA,NA,NA,NA,NA,NA,NA,NA,NA,NA,NA,NA,NA,NA,NA,NA,NA,NA,NA,NA,1496,"DG_s08",34.063,34.735,35.969,35.969,16,4,10,10,1.234,"Left",16,4,12,12,0,0,-12,12,"Advent",6,-6,16,10,4,10
"171",12,"POL RIN4-Ref-POL RIN5-Ref",NA,NA,NA,NA,NA,NA,NA,NA,NA,NA,NA,NA,NA,NA,NA,NA,NA,NA,NA,NA,NA,NA,NA,NA,NA,NA,NA,NA,NA,NA,NA,NA,NA,NA,NA,NA,NA,NA,NA,NA,NA,NA,1496,"DG_s08",34.063,34.735,35.969,35.969,16,4,10,10,1.234,"Left",16,4,12,12,0,0,-12,12,"Advent",6,-6,16,10,4,10
"172",12,"POL RIN1-Ref-POL RIN2-Ref",NA,NA,NA,NA,NA,NA,NA,NA,NA,NA,NA,NA,NA,NA,NA,NA,NA,NA,NA,NA,NA,NA,NA,NA,NA,NA,NA,NA,NA,NA,NA,NA,NA,NA,NA,NA,NA,NA,NA,NA,NA,NA,1496,"DG_s08",34.063,34.735,35.969,35.969,16,4,10,10,1.234,"Left",16,4,12,12,0,0,-12,12,"Advent",6,-6,16,10,4,10
"173",12,"POL LIN1-Ref-POL LIN2-Ref",NA,NA,NA,NA,NA,NA,NA,NA,NA,NA,NA,NA,NA,NA,NA,NA,NA,NA,NA,NA,NA,NA,NA,NA,NA,NA,NA,NA,NA,NA,NA,NA,NA,NA,NA,NA,NA,NA,NA,NA,NA,NA,1496,"DG_s08",34.063,34.735,35.969,35.969,16,4,10,10,1.234,"Left",16,4,12,12,0,0,-12,12,"Advent",6,-6,16,10,4,10
"174",12,"POL RAM7-Ref-POL RAM8-Ref",NA,NA,NA,NA,NA,NA,NA,NA,NA,NA,NA,NA,NA,NA,NA,NA,NA,NA,NA,NA,NA,NA,NA,NA,NA,NA,NA,NA,NA,NA,NA,NA,NA,NA,NA,NA,NA,NA,NA,NA,NA,NA,1496,"DG_s08",34.063,34.735,35.969,35.969,16,4,10,10,1.234,"Left",16,4,12,12,0,0,-12,12,"Advent",6,-6,16,10,4,10
"175",12,"POL RIN2-Ref-POL RIN3-Ref",NA,NA,NA,NA,NA,NA,NA,NA,NA,NA,NA,NA,NA,NA,NA,NA,NA,NA,NA,NA,NA,NA,NA,NA,NA,NA,NA,NA,NA,NA,NA,NA,NA,NA,NA,NA,NA,NA,NA,NA,NA,NA,1496,"DG_s08",34.063,34.735,35.969,35.969,16,4,10,10,1.234,"Left",16,4,12,12,0,0,-12,12,"Advent",6,-6,16,10,4,10
"176",12,"POL LIN11-Ref-POL LIN12-Ref",NA,NA,NA,NA,NA,NA,NA,NA,NA,NA,NA,NA,NA,NA,NA,NA,NA,NA,NA,NA,NA,NA,NA,NA,NA,NA,NA,NA,NA,NA,NA,NA,NA,NA,NA,NA,NA,NA,NA,NA,NA,NA,1496,"DG_s08",34.063,34.735,35.969,35.969,16,4,10,10,1.234,"Left",16,4,12,12,0,0,-12,12,"Advent",6,-6,16,10,4,10
"177",12,"POL LIN3-Ref-POL LIN4-Ref",NA,NA,NA,NA,NA,NA,NA,NA,NA,NA,NA,NA,NA,NA,NA,NA,NA,NA,NA,NA,NA,NA,NA,NA,NA,NA,NA,NA,NA,NA,NA,NA,NA,NA,NA,NA,NA,NA,NA,NA,NA,NA,1496,"DG_s08",34.063,34.735,35.969,35.969,16,4,10,10,1.234,"Left",16,4,12,12,0,0,-12,12,"Advent",6,-6,16,10,4,10
"178",12,"POL LIN12-Ref-POL LIN13-Ref",NA,NA,NA,NA,NA,NA,NA,NA,NA,NA,NA,NA,NA,NA,NA,NA,NA,NA,NA,NA,NA,NA,NA,NA,NA,NA,NA,NA,NA,NA,NA,NA,NA,NA,NA,NA,NA,NA,NA,NA,NA,NA,1496,"DG_s08",34.063,34.735,35.969,35.969,16,4,10,10,1.234,"Left",16,4,12,12,0,0,-12,12,"Advent",6,-6,16,10,4,10
"179",12,"POL RIN11-Ref-POL RIN12-Ref",NA,NA,NA,NA,NA,NA,NA,NA,NA,NA,NA,NA,NA,NA,NA,NA,NA,NA,NA,NA,NA,NA,NA,NA,NA,NA,NA,NA,NA,NA,NA,NA,NA,NA,NA,NA,NA,NA,NA,NA,NA,NA,1496,"DG_s08",34.063,34.735,35.969,35.969,16,4,10,10,1.234,"Left",16,4,12,12,0,0,-12,12,"Advent",6,-6,16,10,4,10
"180",12,"POL LAM8-Ref-POL LAM9-Ref",NA,NA,NA,NA,NA,NA,NA,NA,NA,NA,NA,NA,NA,NA,NA,NA,NA,NA,NA,NA,NA,NA,NA,NA,NA,NA,NA,NA,NA,NA,NA,NA,NA,NA,NA,NA,NA,NA,NA,NA,NA,NA,1496,"DG_s08",34.063,34.735,35.969,35.969,16,4,10,10,1.234,"Left",16,4,12,12,0,0,-12,12,"Advent",6,-6,16,10,4,10
"181",12,"POL RIN5-Ref-POL RIN6-Ref",NA,NA,NA,NA,NA,NA,NA,NA,NA,NA,NA,NA,NA,NA,NA,NA,NA,NA,NA,NA,NA,NA,NA,NA,NA,NA,NA,NA,NA,NA,NA,NA,NA,NA,NA,NA,NA,NA,NA,NA,NA,NA,1496,"DG_s08",34.063,34.735,35.969,35.969,16,4,10,10,1.234,"Left",16,4,12,12,0,0,-12,12,"Advent",6,-6,16,10,4,10
"182",12,"POL RIN9-Ref-POL RIN10-Ref",NA,NA,NA,NA,NA,NA,NA,NA,NA,NA,NA,NA,NA,NA,NA,NA,NA,NA,NA,NA,NA,NA,NA,NA,NA,NA,NA,NA,NA,NA,NA,NA,NA,NA,NA,NA,NA,NA,NA,NA,NA,NA,1496,"DG_s08",34.063,34.735,35.969,35.969,16,4,10,10,1.234,"Left",16,4,12,12,0,0,-12,12,"Advent",6,-6,16,10,4,10
"183",12,"POL LAM9-Ref-POL LAM10-Ref",NA,NA,NA,NA,NA,NA,NA,NA,NA,NA,NA,NA,NA,NA,NA,NA,NA,NA,NA,NA,NA,NA,NA,NA,NA,NA,NA,NA,NA,NA,NA,NA,NA,NA,NA,NA,NA,NA,NA,NA,NA,NA,1496,"DG_s08",34.063,34.735,35.969,35.969,16,4,10,10,1.234,"Left",16,4,12,12,0,0,-12,12,"Advent",6,-6,16,10,4,10
"184",12,"POL RIN3-Ref-POL RIN4-Ref",NA,NA,NA,NA,NA,NA,NA,NA,NA,NA,NA,NA,NA,NA,NA,NA,NA,NA,NA,NA,NA,NA,NA,NA,NA,NA,NA,NA,NA,NA,NA,NA,NA,NA,NA,NA,NA,NA,NA,NA,NA,NA,1496,"DG_s08",34.063,34.735,35.969,35.969,16,4,10,10,1.234,"Left",16,4,12,12,0,0,-12,12,"Advent",6,-6,16,10,4,10
"185",12,"POL RIN10-Ref-POL RIN11-Ref",NA,NA,NA,NA,NA,NA,NA,NA,NA,NA,NA,NA,NA,NA,NA,NA,NA,NA,NA,NA,NA,NA,NA,NA,NA,NA,NA,NA,NA,NA,NA,NA,NA,NA,NA,NA,NA,NA,NA,NA,NA,NA,1496,"DG_s08",34.063,34.735,35.969,35.969,16,4,10,10,1.234,"Left",16,4,12,12,0,0,-12,12,"Advent",6,-6,16,10,4,10
"186",12,"POL RAM8-Ref-POL RAM9-Ref",NA,NA,NA,NA,NA,NA,NA,NA,NA,NA,NA,NA,NA,NA,NA,NA,NA,NA,NA,NA,NA,NA,NA,NA,NA,NA,NA,NA,NA,NA,NA,NA,NA,NA,NA,NA,NA,NA,NA,NA,NA,NA,1496,"DG_s08",34.063,34.735,35.969,35.969,16,4,10,10,1.234,"Left",16,4,12,12,0,0,-12,12,"Advent",6,-6,16,10,4,10
"187",12,"POL LIN9-Ref-POL LIN10-Ref",NA,NA,NA,NA,NA,NA,NA,NA,NA,NA,NA,NA,NA,NA,NA,NA,NA,NA,NA,NA,NA,NA,NA,NA,NA,NA,NA,NA,NA,NA,NA,NA,NA,NA,NA,NA,NA,NA,NA,NA,NA,NA,1496,"DG_s08",34.063,34.735,35.969,35.969,16,4,10,10,1.234,"Left",16,4,12,12,0,0,-12,12,"Advent",6,-6,16,10,4,10
"188",12,"POL LIN10-Ref-POL LIN11-Ref",NA,NA,NA,NA,NA,NA,NA,NA,NA,NA,NA,NA,NA,NA,NA,NA,NA,NA,NA,NA,NA,NA,NA,NA,NA,NA,NA,NA,NA,NA,NA,NA,NA,NA,NA,NA,NA,NA,NA,NA,NA,NA,1496,"DG_s08",34.063,34.735,35.969,35.969,16,4,10,10,1.234,"Left",16,4,12,12,0,0,-12,12,"Advent",6,-6,16,10,4,10
"189",12,"POL RIN12-Ref-POL RIN13-Ref",NA,NA,NA,NA,NA,NA,NA,NA,NA,NA,NA,NA,NA,NA,NA,NA,NA,NA,NA,NA,NA,NA,NA,NA,NA,NA,NA,NA,NA,NA,NA,NA,NA,NA,NA,NA,NA,NA,NA,NA,NA,NA,1496,"DG_s08",34.063,34.735,35.969,35.969,16,4,10,10,1.234,"Left",16,4,12,12,0,0,-12,12,"Advent",6,-6,16,10,4,10
"190",13,"POL RIN2-Ref-POL RIN3-Ref",NA,NA,NA,NA,NA,NA,NA,NA,NA,NA,NA,NA,NA,NA,NA,NA,NA,NA,NA,NA,NA,NA,NA,NA,NA,NA,NA,NA,NA,NA,NA,NA,NA,NA,NA,NA,NA,NA,NA,NA,NA,NA,1497,"DG_s08",36.969,37.641,38.235,38.25,10,10,8,11,0.594,"Left",8,11,3,0,3,3,0,-3,"10-10",2,-1,10,8,10,11
"191",13,"POL LIN3-Ref-POL LIN4-Ref",NA,NA,NA,NA,NA,NA,NA,NA,NA,NA,NA,NA,NA,NA,NA,NA,NA,NA,NA,NA,NA,NA,NA,NA,NA,NA,NA,NA,NA,NA,NA,NA,NA,NA,NA,NA,NA,NA,NA,NA,NA,NA,1497,"DG_s08",36.969,37.641,38.235,38.25,10,10,8,11,0.594,"Left",8,11,3,0,3,3,0,-3,"10-10",2,-1,10,8,10,11
"192",13,"POL LIN12-Ref-POL LIN13-Ref",NA,NA,NA,NA,NA,NA,NA,NA,NA,NA,NA,NA,NA,NA,NA,NA,NA,NA,NA,NA,NA,NA,NA,NA,NA,NA,NA,NA,NA,NA,NA,NA,NA,NA,NA,NA,NA,NA,NA,NA,NA,NA,1497,"DG_s08",36.969,37.641,38.235,38.25,10,10,8,11,0.594,"Left",8,11,3,0,3,3,0,-3,"10-10",2,-1,10,8,10,11
"193",13,"POL LIN4-Ref-POL LIN5-Ref",NA,NA,NA,NA,NA,NA,NA,NA,NA,NA,NA,NA,NA,NA,NA,NA,NA,NA,NA,NA,NA,NA,NA,NA,NA,NA,NA,NA,NA,NA,NA,NA,NA,NA,NA,NA,NA,NA,NA,NA,NA,NA,1497,"DG_s08",36.969,37.641,38.235,38.25,10,10,8,11,0.594,"Left",8,11,3,0,3,3,0,-3,"10-10",2,-1,10,8,10,11
"194",13,"POL RIN3-Ref-POL RIN4-Ref",NA,NA,NA,NA,NA,NA,NA,NA,NA,NA,NA,NA,NA,NA,NA,NA,NA,NA,NA,NA,NA,NA,NA,NA,NA,NA,NA,NA,NA,NA,NA,NA,NA,NA,NA,NA,NA,NA,NA,NA,NA,NA,1497,"DG_s08",36.969,37.641,38.235,38.25,10,10,8,11,0.594,"Left",8,11,3,0,3,3,0,-3,"10-10",2,-1,10,8,10,11
"195",13,"POL LIN11-Ref-POL LIN12-Ref",NA,NA,NA,NA,NA,NA,NA,NA,NA,NA,NA,NA,NA,NA,NA,NA,NA,NA,NA,NA,NA,NA,NA,NA,NA,NA,NA,NA,NA,NA,NA,NA,NA,NA,NA,NA,NA,NA,NA,NA,NA,NA,1497,"DG_s08",36.969,37.641,38.235,38.25,10,10,8,11,0.594,"Left",8,11,3,0,3,3,0,-3,"10-10",2,-1,10,8,10,11
"196",13,"POL LIN10-Ref-POL LIN11-Ref",NA,NA,NA,NA,NA,NA,NA,NA,NA,NA,NA,NA,NA,NA,NA,NA,NA,NA,NA,NA,NA,NA,NA,NA,NA,NA,NA,NA,NA,NA,NA,NA,NA,NA,NA,NA,NA,NA,NA,NA,NA,NA,1497,"DG_s08",36.969,37.641,38.235,38.25,10,10,8,11,0.594,"Left",8,11,3,0,3,3,0,-3,"10-10",2,-1,10,8,10,11
"197",13,"POL LAM9-Ref-POL LAM10-Ref",NA,NA,NA,NA,NA,NA,NA,NA,NA,NA,NA,NA,NA,NA,NA,NA,NA,NA,NA,NA,NA,NA,NA,NA,NA,NA,NA,NA,NA,NA,NA,NA,NA,NA,NA,NA,NA,NA,NA,NA,NA,NA,1497,"DG_s08",36.969,37.641,38.235,38.25,10,10,8,11,0.594,"Left",8,11,3,0,3,3,0,-3,"10-10",2,-1,10,8,10,11
"198",13,"POL RAM7-Ref-POL RAM8-Ref",NA,NA,NA,NA,NA,NA,NA,NA,NA,NA,NA,NA,NA,NA,NA,NA,NA,NA,NA,NA,NA,NA,NA,NA,NA,NA,NA,NA,NA,NA,NA,NA,NA,NA,NA,NA,NA,NA,NA,NA,NA,NA,1497,"DG_s08",36.969,37.641,38.235,38.25,10,10,8,11,0.594,"Left",8,11,3,0,3,3,0,-3,"10-10",2,-1,10,8,10,11
"199",13,"POL RIN10-Ref-POL RIN11-Ref",NA,NA,NA,NA,NA,NA,NA,NA,NA,NA,NA,NA,NA,NA,NA,NA,NA,NA,NA,NA,NA,NA,NA,NA,NA,NA,NA,NA,NA,NA,NA,NA,NA,NA,NA,NA,NA,NA,NA,NA,NA,NA,1497,"DG_s08",36.969,37.641,38.235,38.25,10,10,8,11,0.594,"Left",8,11,3,0,3,3,0,-3,"10-10",2,-1,10,8,10,11
"200",13,"POL RIN12-Ref-POL RIN13-Ref",NA,NA,NA,NA,NA,NA,NA,NA,NA,NA,NA,NA,NA,NA,NA,NA,NA,NA,NA,NA,NA,NA,NA,NA,NA,NA,NA,NA,NA,NA,NA,NA,NA,NA,NA,NA,NA,NA,NA,NA,NA,NA,1497,"DG_s08",36.969,37.641,38.235,38.25,10,10,8,11,0.594,"Left",8,11,3,0,3,3,0,-3,"10-10",2,-1,10,8,10,11
"201",13,"POL LIN2-Ref-POL LIN3-Ref",NA,NA,NA,NA,NA,NA,NA,NA,NA,NA,NA,NA,NA,NA,NA,NA,NA,NA,NA,NA,NA,NA,NA,NA,NA,NA,NA,NA,NA,NA,NA,NA,NA,NA,NA,NA,NA,NA,NA,NA,NA,NA,1497,"DG_s08",36.969,37.641,38.235,38.25,10,10,8,11,0.594,"Left",8,11,3,0,3,3,0,-3,"10-10",2,-1,10,8,10,11
"202",13,"POL RIN4-Ref-POL RIN5-Ref",NA,NA,NA,NA,NA,NA,NA,NA,NA,NA,NA,NA,NA,NA,NA,NA,NA,NA,NA,NA,NA,NA,NA,NA,NA,NA,NA,NA,NA,NA,NA,NA,NA,NA,NA,NA,NA,NA,NA,NA,NA,NA,1497,"DG_s08",36.969,37.641,38.235,38.25,10,10,8,11,0.594,"Left",8,11,3,0,3,3,0,-3,"10-10",2,-1,10,8,10,11
"203",13,"POL LAM8-Ref-POL LAM9-Ref",NA,NA,NA,NA,NA,NA,NA,NA,NA,NA,NA,NA,NA,NA,NA,NA,NA,NA,NA,NA,NA,NA,NA,NA,NA,NA,NA,NA,NA,NA,NA,NA,NA,NA,NA,NA,NA,NA,NA,NA,NA,NA,1497,"DG_s08",36.969,37.641,38.235,38.25,10,10,8,11,0.594,"Left",8,11,3,0,3,3,0,-3,"10-10",2,-1,10,8,10,11
"204",13,"POL RIN1-Ref-POL RIN2-Ref",NA,NA,NA,NA,NA,NA,NA,NA,NA,NA,NA,NA,NA,NA,NA,NA,NA,NA,NA,NA,NA,NA,NA,NA,NA,NA,NA,NA,NA,NA,NA,NA,NA,NA,NA,NA,NA,NA,NA,NA,NA,NA,1497,"DG_s08",36.969,37.641,38.235,38.25,10,10,8,11,0.594,"Left",8,11,3,0,3,3,0,-3,"10-10",2,-1,10,8,10,11
"205",13,"POL RIN9-Ref-POL RIN10-Ref",NA,NA,NA,NA,NA,NA,NA,NA,NA,NA,NA,NA,NA,NA,NA,NA,NA,NA,NA,NA,NA,NA,NA,NA,NA,NA,NA,NA,NA,NA,NA,NA,NA,NA,NA,NA,NA,NA,NA,NA,NA,NA,1497,"DG_s08",36.969,37.641,38.235,38.25,10,10,8,11,0.594,"Left",8,11,3,0,3,3,0,-3,"10-10",2,-1,10,8,10,11
"206",13,"POL RIN11-Ref-POL RIN12-Ref",NA,NA,NA,NA,NA,NA,NA,NA,NA,NA,NA,NA,NA,NA,NA,NA,NA,NA,NA,NA,NA,NA,NA,NA,NA,NA,NA,NA,NA,NA,NA,NA,NA,NA,NA,NA,NA,NA,NA,NA,NA,NA,1497,"DG_s08",36.969,37.641,38.235,38.25,10,10,8,11,0.594,"Left",8,11,3,0,3,3,0,-3,"10-10",2,-1,10,8,10,11
"207",13,"POL RIN5-Ref-POL RIN6-Ref",NA,NA,NA,NA,NA,NA,NA,NA,NA,NA,NA,NA,NA,NA,NA,NA,NA,NA,NA,NA,NA,NA,NA,NA,NA,NA,NA,NA,NA,NA,NA,NA,NA,NA,NA,NA,NA,NA,NA,NA,NA,NA,1497,"DG_s08",36.969,37.641,38.235,38.25,10,10,8,11,0.594,"Left",8,11,3,0,3,3,0,-3,"10-10",2,-1,10,8,10,11
"208",13,"POL LIN9-Ref-POL LIN10-Ref",NA,NA,NA,NA,NA,NA,NA,NA,NA,NA,NA,NA,NA,NA,NA,NA,NA,NA,NA,NA,NA,NA,NA,NA,NA,NA,NA,NA,NA,NA,NA,NA,NA,NA,NA,NA,NA,NA,NA,NA,NA,NA,1497,"DG_s08",36.969,37.641,38.235,38.25,10,10,8,11,0.594,"Left",8,11,3,0,3,3,0,-3,"10-10",2,-1,10,8,10,11
"209",13,"POL RAM8-Ref-POL RAM9-Ref",NA,NA,NA,NA,NA,NA,NA,NA,NA,NA,NA,NA,NA,NA,NA,NA,NA,NA,NA,NA,NA,NA,NA,NA,NA,NA,NA,NA,NA,NA,NA,NA,NA,NA,NA,NA,NA,NA,NA,NA,NA,NA,1497,"DG_s08",36.969,37.641,38.235,38.25,10,10,8,11,0.594,"Left",8,11,3,0,3,3,0,-3,"10-10",2,-1,10,8,10,11
"210",13,"POL LIN1-Ref-POL LIN2-Ref",NA,NA,NA,NA,NA,NA,NA,NA,NA,NA,NA,NA,NA,NA,NA,NA,NA,NA,NA,NA,NA,NA,NA,NA,NA,NA,NA,NA,NA,NA,NA,NA,NA,NA,NA,NA,NA,NA,NA,NA,NA,NA,1497,"DG_s08",36.969,37.641,38.235,38.25,10,10,8,11,0.594,"Left",8,11,3,0,3,3,0,-3,"10-10",2,-1,10,8,10,11
"211",14,"POL LIN11-Ref-POL LIN12-Ref",NA,NA,NA,NA,NA,NA,NA,NA,NA,NA,NA,NA,NA,NA,NA,NA,NA,NA,NA,NA,NA,NA,NA,NA,NA,NA,NA,NA,NA,NA,NA,NA,NA,NA,NA,NA,NA,NA,NA,NA,NA,NA,1498,"DG_s08",39.25,39.922,40.766,40.766,18,18,10,10,0.844,"Left",18,18,0,0,0,0,0,0,"Equal",8,8,18,10,18,10
"212",14,"POL LIN1-Ref-POL LIN2-Ref",NA,NA,NA,NA,NA,NA,NA,NA,NA,NA,NA,NA,NA,NA,NA,NA,NA,NA,NA,NA,NA,NA,NA,NA,NA,NA,NA,NA,NA,NA,NA,NA,NA,NA,NA,NA,NA,NA,NA,NA,NA,NA,1498,"DG_s08",39.25,39.922,40.766,40.766,18,18,10,10,0.844,"Left",18,18,0,0,0,0,0,0,"Equal",8,8,18,10,18,10
"213",14,"POL LIN3-Ref-POL LIN4-Ref",NA,NA,NA,NA,NA,NA,NA,NA,NA,NA,NA,NA,NA,NA,NA,NA,NA,NA,NA,NA,NA,NA,NA,NA,NA,NA,NA,NA,NA,NA,NA,NA,NA,NA,NA,NA,NA,NA,NA,NA,NA,NA,1498,"DG_s08",39.25,39.922,40.766,40.766,18,18,10,10,0.844,"Left",18,18,0,0,0,0,0,0,"Equal",8,8,18,10,18,10
"214",14,"POL RIN11-Ref-POL RIN12-Ref",NA,NA,NA,NA,NA,NA,NA,NA,NA,NA,NA,NA,NA,NA,NA,NA,NA,NA,NA,NA,NA,NA,NA,NA,NA,NA,NA,NA,NA,NA,NA,NA,NA,NA,NA,NA,NA,NA,NA,NA,NA,NA,1498,"DG_s08",39.25,39.922,40.766,40.766,18,18,10,10,0.844,"Left",18,18,0,0,0,0,0,0,"Equal",8,8,18,10,18,10
"215",14,"POL RIN9-Ref-POL RIN10-Ref",NA,NA,NA,NA,NA,NA,NA,NA,NA,NA,NA,NA,NA,NA,NA,NA,NA,NA,NA,NA,NA,NA,NA,NA,NA,NA,NA,NA,NA,NA,NA,NA,NA,NA,NA,NA,NA,NA,NA,NA,NA,NA,1498,"DG_s08",39.25,39.922,40.766,40.766,18,18,10,10,0.844,"Left",18,18,0,0,0,0,0,0,"Equal",8,8,18,10,18,10
"216",14,"POL RAM7-Ref-POL RAM8-Ref",NA,NA,NA,NA,NA,NA,NA,NA,NA,NA,NA,NA,NA,NA,NA,NA,NA,NA,NA,NA,NA,NA,NA,NA,NA,NA,NA,NA,NA,NA,NA,NA,NA,NA,NA,NA,NA,NA,NA,NA,NA,NA,1498,"DG_s08",39.25,39.922,40.766,40.766,18,18,10,10,0.844,"Left",18,18,0,0,0,0,0,0,"Equal",8,8,18,10,18,10
"217",14,"POL LIN4-Ref-POL LIN5-Ref",NA,NA,NA,NA,NA,NA,NA,NA,NA,NA,NA,NA,NA,NA,NA,NA,NA,NA,NA,NA,NA,NA,NA,NA,NA,NA,NA,NA,NA,NA,NA,NA,NA,NA,NA,NA,NA,NA,NA,NA,NA,NA,1498,"DG_s08",39.25,39.922,40.766,40.766,18,18,10,10,0.844,"Left",18,18,0,0,0,0,0,0,"Equal",8,8,18,10,18,10
"218",14,"POL RIN2-Ref-POL RIN3-Ref",NA,NA,NA,NA,NA,NA,NA,NA,NA,NA,NA,NA,NA,NA,NA,NA,NA,NA,NA,NA,NA,NA,NA,NA,NA,NA,NA,NA,NA,NA,NA,NA,NA,NA,NA,NA,NA,NA,NA,NA,NA,NA,1498,"DG_s08",39.25,39.922,40.766,40.766,18,18,10,10,0.844,"Left",18,18,0,0,0,0,0,0,"Equal",8,8,18,10,18,10
"219",14,"POL RIN4-Ref-POL RIN5-Ref",NA,NA,NA,NA,NA,NA,NA,NA,NA,NA,NA,NA,NA,NA,NA,NA,NA,NA,NA,NA,NA,NA,NA,NA,NA,NA,NA,NA,NA,NA,NA,NA,NA,NA,NA,NA,NA,NA,NA,NA,NA,NA,1498,"DG_s08",39.25,39.922,40.766,40.766,18,18,10,10,0.844,"Left",18,18,0,0,0,0,0,0,"Equal",8,8,18,10,18,10
"220",14,"POL LIN9-Ref-POL LIN10-Ref",NA,NA,NA,NA,NA,NA,NA,NA,NA,NA,NA,NA,NA,NA,NA,NA,NA,NA,NA,NA,NA,NA,NA,NA,NA,NA,NA,NA,NA,NA,NA,NA,NA,NA,NA,NA,NA,NA,NA,NA,NA,NA,1498,"DG_s08",39.25,39.922,40.766,40.766,18,18,10,10,0.844,"Left",18,18,0,0,0,0,0,0,"Equal",8,8,18,10,18,10
"221",14,"POL LAM8-Ref-POL LAM9-Ref",NA,NA,NA,NA,NA,NA,NA,NA,NA,NA,NA,NA,NA,NA,NA,NA,NA,NA,NA,NA,NA,NA,NA,NA,NA,NA,NA,NA,NA,NA,NA,NA,NA,NA,NA,NA,NA,NA,NA,NA,NA,NA,1498,"DG_s08",39.25,39.922,40.766,40.766,18,18,10,10,0.844,"Left",18,18,0,0,0,0,0,0,"Equal",8,8,18,10,18,10
"222",14,"POL RIN10-Ref-POL RIN11-Ref",NA,NA,NA,NA,NA,NA,NA,NA,NA,NA,NA,NA,NA,NA,NA,NA,NA,NA,NA,NA,NA,NA,NA,NA,NA,NA,NA,NA,NA,NA,NA,NA,NA,NA,NA,NA,NA,NA,NA,NA,NA,NA,1498,"DG_s08",39.25,39.922,40.766,40.766,18,18,10,10,0.844,"Left",18,18,0,0,0,0,0,0,"Equal",8,8,18,10,18,10
"223",14,"POL LIN10-Ref-POL LIN11-Ref",NA,NA,NA,NA,NA,NA,NA,NA,NA,NA,NA,NA,NA,NA,NA,NA,NA,NA,NA,NA,NA,NA,NA,NA,NA,NA,NA,NA,NA,NA,NA,NA,NA,NA,NA,NA,NA,NA,NA,NA,NA,NA,1498,"DG_s08",39.25,39.922,40.766,40.766,18,18,10,10,0.844,"Left",18,18,0,0,0,0,0,0,"Equal",8,8,18,10,18,10
"224",14,"POL RIN5-Ref-POL RIN6-Ref",NA,NA,NA,NA,NA,NA,NA,NA,NA,NA,NA,NA,NA,NA,NA,NA,NA,NA,NA,NA,NA,NA,NA,NA,NA,NA,NA,NA,NA,NA,NA,NA,NA,NA,NA,NA,NA,NA,NA,NA,NA,NA,1498,"DG_s08",39.25,39.922,40.766,40.766,18,18,10,10,0.844,"Left",18,18,0,0,0,0,0,0,"Equal",8,8,18,10,18,10
"225",14,"POL LIN12-Ref-POL LIN13-Ref",NA,NA,NA,NA,NA,NA,NA,NA,NA,NA,NA,NA,NA,NA,NA,NA,NA,NA,NA,NA,NA,NA,NA,NA,NA,NA,NA,NA,NA,NA,NA,NA,NA,NA,NA,NA,NA,NA,NA,NA,NA,NA,1498,"DG_s08",39.25,39.922,40.766,40.766,18,18,10,10,0.844,"Left",18,18,0,0,0,0,0,0,"Equal",8,8,18,10,18,10
"226",14,"POL LAM9-Ref-POL LAM10-Ref",NA,NA,NA,NA,NA,NA,NA,NA,NA,NA,NA,NA,NA,NA,NA,NA,NA,NA,NA,NA,NA,NA,NA,NA,NA,NA,NA,NA,NA,NA,NA,NA,NA,NA,NA,NA,NA,NA,NA,NA,NA,NA,1498,"DG_s08",39.25,39.922,40.766,40.766,18,18,10,10,0.844,"Left",18,18,0,0,0,0,0,0,"Equal",8,8,18,10,18,10
"227",14,"POL RIN1-Ref-POL RIN2-Ref",NA,NA,NA,NA,NA,NA,NA,NA,NA,NA,NA,NA,NA,NA,NA,NA,NA,NA,NA,NA,NA,NA,NA,NA,NA,NA,NA,NA,NA,NA,NA,NA,NA,NA,NA,NA,NA,NA,NA,NA,NA,NA,1498,"DG_s08",39.25,39.922,40.766,40.766,18,18,10,10,0.844,"Left",18,18,0,0,0,0,0,0,"Equal",8,8,18,10,18,10
"228",14,"POL RIN12-Ref-POL RIN13-Ref",NA,NA,NA,NA,NA,NA,NA,NA,NA,NA,NA,NA,NA,NA,NA,NA,NA,NA,NA,NA,NA,NA,NA,NA,NA,NA,NA,NA,NA,NA,NA,NA,NA,NA,NA,NA,NA,NA,NA,NA,NA,NA,1498,"DG_s08",39.25,39.922,40.766,40.766,18,18,10,10,0.844,"Left",18,18,0,0,0,0,0,0,"Equal",8,8,18,10,18,10
"229",14,"POL RIN3-Ref-POL RIN4-Ref",NA,NA,NA,NA,NA,NA,NA,NA,NA,NA,NA,NA,NA,NA,NA,NA,NA,NA,NA,NA,NA,NA,NA,NA,NA,NA,NA,NA,NA,NA,NA,NA,NA,NA,NA,NA,NA,NA,NA,NA,NA,NA,1498,"DG_s08",39.25,39.922,40.766,40.766,18,18,10,10,0.844,"Left",18,18,0,0,0,0,0,0,"Equal",8,8,18,10,18,10
"230",14,"POL LIN2-Ref-POL LIN3-Ref",NA,NA,NA,NA,NA,NA,NA,NA,NA,NA,NA,NA,NA,NA,NA,NA,NA,NA,NA,NA,NA,NA,NA,NA,NA,NA,NA,NA,NA,NA,NA,NA,NA,NA,NA,NA,NA,NA,NA,NA,NA,NA,1498,"DG_s08",39.25,39.922,40.766,40.766,18,18,10,10,0.844,"Left",18,18,0,0,0,0,0,0,"Equal",8,8,18,10,18,10
"231",14,"POL RAM8-Ref-POL RAM9-Ref",NA,NA,NA,NA,NA,NA,NA,NA,NA,NA,NA,NA,NA,NA,NA,NA,NA,NA,NA,NA,NA,NA,NA,NA,NA,NA,NA,NA,NA,NA,NA,NA,NA,NA,NA,NA,NA,NA,NA,NA,NA,NA,1498,"DG_s08",39.25,39.922,40.766,40.766,18,18,10,10,0.844,"Left",18,18,0,0,0,0,0,0,"Equal",8,8,18,10,18,10
"232",15,"POL LIN4-Ref-POL LIN5-Ref",NA,NA,NA,NA,NA,NA,NA,NA,NA,NA,NA,NA,NA,NA,NA,NA,NA,NA,NA,NA,NA,NA,NA,NA,NA,NA,NA,NA,NA,NA,NA,NA,NA,NA,NA,NA,NA,NA,NA,NA,NA,NA,1499,"DG_s08",41.766,42.438,43.11,43.125,10,10,8,16,0.672,"Right",8,16,8,0,8,8,0,-8,"10-10",2,-6,8,10,16,10
"233",15,"POL RAM8-Ref-POL RAM9-Ref",NA,NA,NA,NA,NA,NA,NA,NA,NA,NA,NA,NA,NA,NA,NA,NA,NA,NA,NA,NA,NA,NA,NA,NA,NA,NA,NA,NA,NA,NA,NA,NA,NA,NA,NA,NA,NA,NA,NA,NA,NA,NA,1499,"DG_s08",41.766,42.438,43.11,43.125,10,10,8,16,0.672,"Right",8,16,8,0,8,8,0,-8,"10-10",2,-6,8,10,16,10
"234",15,"POL RAM7-Ref-POL RAM8-Ref",NA,NA,NA,NA,NA,NA,NA,NA,NA,NA,NA,NA,NA,NA,NA,NA,NA,NA,NA,NA,NA,NA,NA,NA,NA,NA,NA,NA,NA,NA,NA,NA,NA,NA,NA,NA,NA,NA,NA,NA,NA,NA,1499,"DG_s08",41.766,42.438,43.11,43.125,10,10,8,16,0.672,"Right",8,16,8,0,8,8,0,-8,"10-10",2,-6,8,10,16,10
"235",15,"POL RIN1-Ref-POL RIN2-Ref",NA,NA,NA,NA,NA,NA,NA,NA,NA,NA,NA,NA,NA,NA,NA,NA,NA,NA,NA,NA,NA,NA,NA,NA,NA,NA,NA,NA,NA,NA,NA,NA,NA,NA,NA,NA,NA,NA,NA,NA,NA,NA,1499,"DG_s08",41.766,42.438,43.11,43.125,10,10,8,16,0.672,"Right",8,16,8,0,8,8,0,-8,"10-10",2,-6,8,10,16,10
"236",15,"POL LIN12-Ref-POL LIN13-Ref",NA,NA,NA,NA,NA,NA,NA,NA,NA,NA,NA,NA,NA,NA,NA,NA,NA,NA,NA,NA,NA,NA,NA,NA,NA,NA,NA,NA,NA,NA,NA,NA,NA,NA,NA,NA,NA,NA,NA,NA,NA,NA,1499,"DG_s08",41.766,42.438,43.11,43.125,10,10,8,16,0.672,"Right",8,16,8,0,8,8,0,-8,"10-10",2,-6,8,10,16,10
"237",15,"POL RIN3-Ref-POL RIN4-Ref",NA,NA,NA,NA,NA,NA,NA,NA,NA,NA,NA,NA,NA,NA,NA,NA,NA,NA,NA,NA,NA,NA,NA,NA,NA,NA,NA,NA,NA,NA,NA,NA,NA,NA,NA,NA,NA,NA,NA,NA,NA,NA,1499,"DG_s08",41.766,42.438,43.11,43.125,10,10,8,16,0.672,"Right",8,16,8,0,8,8,0,-8,"10-10",2,-6,8,10,16,10
"238",15,"POL LAM9-Ref-POL LAM10-Ref",NA,NA,NA,NA,NA,NA,NA,NA,NA,NA,NA,NA,NA,NA,NA,NA,NA,NA,NA,NA,NA,NA,NA,NA,NA,NA,NA,NA,NA,NA,NA,NA,NA,NA,NA,NA,NA,NA,NA,NA,NA,NA,1499,"DG_s08",41.766,42.438,43.11,43.125,10,10,8,16,0.672,"Right",8,16,8,0,8,8,0,-8,"10-10",2,-6,8,10,16,10
"239",15,"POL LIN3-Ref-POL LIN4-Ref",NA,NA,NA,NA,NA,NA,NA,NA,NA,NA,NA,NA,NA,NA,NA,NA,NA,NA,NA,NA,NA,NA,NA,NA,NA,NA,NA,NA,NA,NA,NA,NA,NA,NA,NA,NA,NA,NA,NA,NA,NA,NA,1499,"DG_s08",41.766,42.438,43.11,43.125,10,10,8,16,0.672,"Right",8,16,8,0,8,8,0,-8,"10-10",2,-6,8,10,16,10
"240",15,"POL LIN2-Ref-POL LIN3-Ref",NA,NA,NA,NA,NA,NA,NA,NA,NA,NA,NA,NA,NA,NA,NA,NA,NA,NA,NA,NA,NA,NA,NA,NA,NA,NA,NA,NA,NA,NA,NA,NA,NA,NA,NA,NA,NA,NA,NA,NA,NA,NA,1499,"DG_s08",41.766,42.438,43.11,43.125,10,10,8,16,0.672,"Right",8,16,8,0,8,8,0,-8,"10-10",2,-6,8,10,16,10
"241",15,"POL RIN2-Ref-POL RIN3-Ref",NA,NA,NA,NA,NA,NA,NA,NA,NA,NA,NA,NA,NA,NA,NA,NA,NA,NA,NA,NA,NA,NA,NA,NA,NA,NA,NA,NA,NA,NA,NA,NA,NA,NA,NA,NA,NA,NA,NA,NA,NA,NA,1499,"DG_s08",41.766,42.438,43.11,43.125,10,10,8,16,0.672,"Right",8,16,8,0,8,8,0,-8,"10-10",2,-6,8,10,16,10
"242",15,"POL RIN11-Ref-POL RIN12-Ref",NA,NA,NA,NA,NA,NA,NA,NA,NA,NA,NA,NA,NA,NA,NA,NA,NA,NA,NA,NA,NA,NA,NA,NA,NA,NA,NA,NA,NA,NA,NA,NA,NA,NA,NA,NA,NA,NA,NA,NA,NA,NA,1499,"DG_s08",41.766,42.438,43.11,43.125,10,10,8,16,0.672,"Right",8,16,8,0,8,8,0,-8,"10-10",2,-6,8,10,16,10
"243",15,"POL LIN9-Ref-POL LIN10-Ref",NA,NA,NA,NA,NA,NA,NA,NA,NA,NA,NA,NA,NA,NA,NA,NA,NA,NA,NA,NA,NA,NA,NA,NA,NA,NA,NA,NA,NA,NA,NA,NA,NA,NA,NA,NA,NA,NA,NA,NA,NA,NA,1499,"DG_s08",41.766,42.438,43.11,43.125,10,10,8,16,0.672,"Right",8,16,8,0,8,8,0,-8,"10-10",2,-6,8,10,16,10
"244",15,"POL LIN10-Ref-POL LIN11-Ref",NA,NA,NA,NA,NA,NA,NA,NA,NA,NA,NA,NA,NA,NA,NA,NA,NA,NA,NA,NA,NA,NA,NA,NA,NA,NA,NA,NA,NA,NA,NA,NA,NA,NA,NA,NA,NA,NA,NA,NA,NA,NA,1499,"DG_s08",41.766,42.438,43.11,43.125,10,10,8,16,0.672,"Right",8,16,8,0,8,8,0,-8,"10-10",2,-6,8,10,16,10
"245",15,"POL RIN5-Ref-POL RIN6-Ref",NA,NA,NA,NA,NA,NA,NA,NA,NA,NA,NA,NA,NA,NA,NA,NA,NA,NA,NA,NA,NA,NA,NA,NA,NA,NA,NA,NA,NA,NA,NA,NA,NA,NA,NA,NA,NA,NA,NA,NA,NA,NA,1499,"DG_s08",41.766,42.438,43.11,43.125,10,10,8,16,0.672,"Right",8,16,8,0,8,8,0,-8,"10-10",2,-6,8,10,16,10
"246",15,"POL RIN4-Ref-POL RIN5-Ref",NA,NA,NA,NA,NA,NA,NA,NA,NA,NA,NA,NA,NA,NA,NA,NA,NA,NA,NA,NA,NA,NA,NA,NA,NA,NA,NA,NA,NA,NA,NA,NA,NA,NA,NA,NA,NA,NA,NA,NA,NA,NA,1499,"DG_s08",41.766,42.438,43.11,43.125,10,10,8,16,0.672,"Right",8,16,8,0,8,8,0,-8,"10-10",2,-6,8,10,16,10
"247",15,"POL RIN9-Ref-POL RIN10-Ref",NA,NA,NA,NA,NA,NA,NA,NA,NA,NA,NA,NA,NA,NA,NA,NA,NA,NA,NA,NA,NA,NA,NA,NA,NA,NA,NA,NA,NA,NA,NA,NA,NA,NA,NA,NA,NA,NA,NA,NA,NA,NA,1499,"DG_s08",41.766,42.438,43.11,43.125,10,10,8,16,0.672,"Right",8,16,8,0,8,8,0,-8,"10-10",2,-6,8,10,16,10
"248",15,"POL RIN10-Ref-POL RIN11-Ref",NA,NA,NA,NA,NA,NA,NA,NA,NA,NA,NA,NA,NA,NA,NA,NA,NA,NA,NA,NA,NA,NA,NA,NA,NA,NA,NA,NA,NA,NA,NA,NA,NA,NA,NA,NA,NA,NA,NA,NA,NA,NA,1499,"DG_s08",41.766,42.438,43.11,43.125,10,10,8,16,0.672,"Right",8,16,8,0,8,8,0,-8,"10-10",2,-6,8,10,16,10
"249",15,"POL RIN12-Ref-POL RIN13-Ref",NA,NA,NA,NA,NA,NA,NA,NA,NA,NA,NA,NA,NA,NA,NA,NA,NA,NA,NA,NA,NA,NA,NA,NA,NA,NA,NA,NA,NA,NA,NA,NA,NA,NA,NA,NA,NA,NA,NA,NA,NA,NA,1499,"DG_s08",41.766,42.438,43.11,43.125,10,10,8,16,0.672,"Right",8,16,8,0,8,8,0,-8,"10-10",2,-6,8,10,16,10
"250",15,"POL LAM8-Ref-POL LAM9-Ref",NA,NA,NA,NA,NA,NA,NA,NA,NA,NA,NA,NA,NA,NA,NA,NA,NA,NA,NA,NA,NA,NA,NA,NA,NA,NA,NA,NA,NA,NA,NA,NA,NA,NA,NA,NA,NA,NA,NA,NA,NA,NA,1499,"DG_s08",41.766,42.438,43.11,43.125,10,10,8,16,0.672,"Right",8,16,8,0,8,8,0,-8,"10-10",2,-6,8,10,16,10
"251",15,"POL LIN11-Ref-POL LIN12-Ref",NA,NA,NA,NA,NA,NA,NA,NA,NA,NA,NA,NA,NA,NA,NA,NA,NA,NA,NA,NA,NA,NA,NA,NA,NA,NA,NA,NA,NA,NA,NA,NA,NA,NA,NA,NA,NA,NA,NA,NA,NA,NA,1499,"DG_s08",41.766,42.438,43.11,43.125,10,10,8,16,0.672,"Right",8,16,8,0,8,8,0,-8,"10-10",2,-6,8,10,16,10
"252",15,"POL LIN1-Ref-POL LIN2-Ref",NA,NA,NA,NA,NA,NA,NA,NA,NA,NA,NA,NA,NA,NA,NA,NA,NA,NA,NA,NA,NA,NA,NA,NA,NA,NA,NA,NA,NA,NA,NA,NA,NA,NA,NA,NA,NA,NA,NA,NA,NA,NA,1499,"DG_s08",41.766,42.438,43.11,43.125,10,10,8,16,0.672,"Right",8,16,8,0,8,8,0,-8,"10-10",2,-6,8,10,16,10
"253",17,"POL LIN11-Ref-POL LIN12-Ref",NA,NA,NA,NA,NA,NA,NA,NA,NA,NA,NA,NA,NA,NA,NA,NA,NA,NA,NA,NA,NA,NA,NA,NA,NA,NA,NA,NA,NA,NA,NA,NA,NA,NA,NA,NA,NA,NA,NA,NA,NA,NA,1501,"DG_s08",47.797,48.469,48.735,48.735,10,10,6,6,0.266,"Left",6,6,0,0,0,0,0,0,"10-10",4,4,10,6,10,6
"254",17,"POL RIN5-Ref-POL RIN6-Ref",NA,NA,NA,NA,NA,NA,NA,NA,NA,NA,NA,NA,NA,NA,NA,NA,NA,NA,NA,NA,NA,NA,NA,NA,NA,NA,NA,NA,NA,NA,NA,NA,NA,NA,NA,NA,NA,NA,NA,NA,NA,NA,1501,"DG_s08",47.797,48.469,48.735,48.735,10,10,6,6,0.266,"Left",6,6,0,0,0,0,0,0,"10-10",4,4,10,6,10,6
"255",17,"POL LIN10-Ref-POL LIN11-Ref",NA,NA,NA,NA,NA,NA,NA,NA,NA,NA,NA,NA,NA,NA,NA,NA,NA,NA,NA,NA,NA,NA,NA,NA,NA,NA,NA,NA,NA,NA,NA,NA,NA,NA,NA,NA,NA,NA,NA,NA,NA,NA,1501,"DG_s08",47.797,48.469,48.735,48.735,10,10,6,6,0.266,"Left",6,6,0,0,0,0,0,0,"10-10",4,4,10,6,10,6
"256",17,"POL RAM7-Ref-POL RAM8-Ref",NA,NA,NA,NA,NA,NA,NA,NA,NA,NA,NA,NA,NA,NA,NA,NA,NA,NA,NA,NA,NA,NA,NA,NA,NA,NA,NA,NA,NA,NA,NA,NA,NA,NA,NA,NA,NA,NA,NA,NA,NA,NA,1501,"DG_s08",47.797,48.469,48.735,48.735,10,10,6,6,0.266,"Left",6,6,0,0,0,0,0,0,"10-10",4,4,10,6,10,6
"257",17,"POL LIN4-Ref-POL LIN5-Ref",NA,NA,NA,NA,NA,NA,NA,NA,NA,NA,NA,NA,NA,NA,NA,NA,NA,NA,NA,NA,NA,NA,NA,NA,NA,NA,NA,NA,NA,NA,NA,NA,NA,NA,NA,NA,NA,NA,NA,NA,NA,NA,1501,"DG_s08",47.797,48.469,48.735,48.735,10,10,6,6,0.266,"Left",6,6,0,0,0,0,0,0,"10-10",4,4,10,6,10,6
"258",17,"POL RIN11-Ref-POL RIN12-Ref",NA,NA,NA,NA,NA,NA,NA,NA,NA,NA,NA,NA,NA,NA,NA,NA,NA,NA,NA,NA,NA,NA,NA,NA,NA,NA,NA,NA,NA,NA,NA,NA,NA,NA,NA,NA,NA,NA,NA,NA,NA,NA,1501,"DG_s08",47.797,48.469,48.735,48.735,10,10,6,6,0.266,"Left",6,6,0,0,0,0,0,0,"10-10",4,4,10,6,10,6
"259",17,"POL LIN12-Ref-POL LIN13-Ref",NA,NA,NA,NA,NA,NA,NA,NA,NA,NA,NA,NA,NA,NA,NA,NA,NA,NA,NA,NA,NA,NA,NA,NA,NA,NA,NA,NA,NA,NA,NA,NA,NA,NA,NA,NA,NA,NA,NA,NA,NA,NA,1501,"DG_s08",47.797,48.469,48.735,48.735,10,10,6,6,0.266,"Left",6,6,0,0,0,0,0,0,"10-10",4,4,10,6,10,6
"260",17,"POL LIN3-Ref-POL LIN4-Ref",NA,NA,NA,NA,NA,NA,NA,NA,NA,NA,NA,NA,NA,NA,NA,NA,NA,NA,NA,NA,NA,NA,NA,NA,NA,NA,NA,NA,NA,NA,NA,NA,NA,NA,NA,NA,NA,NA,NA,NA,NA,NA,1501,"DG_s08",47.797,48.469,48.735,48.735,10,10,6,6,0.266,"Left",6,6,0,0,0,0,0,0,"10-10",4,4,10,6,10,6
"261",17,"POL RIN9-Ref-POL RIN10-Ref",NA,NA,NA,NA,NA,NA,NA,NA,NA,NA,NA,NA,NA,NA,NA,NA,NA,NA,NA,NA,NA,NA,NA,NA,NA,NA,NA,NA,NA,NA,NA,NA,NA,NA,NA,NA,NA,NA,NA,NA,NA,NA,1501,"DG_s08",47.797,48.469,48.735,48.735,10,10,6,6,0.266,"Left",6,6,0,0,0,0,0,0,"10-10",4,4,10,6,10,6
"262",17,"POL LAM8-Ref-POL LAM9-Ref",NA,NA,NA,NA,NA,NA,NA,NA,NA,NA,NA,NA,NA,NA,NA,NA,NA,NA,NA,NA,NA,NA,NA,NA,NA,NA,NA,NA,NA,NA,NA,NA,NA,NA,NA,NA,NA,NA,NA,NA,NA,NA,1501,"DG_s08",47.797,48.469,48.735,48.735,10,10,6,6,0.266,"Left",6,6,0,0,0,0,0,0,"10-10",4,4,10,6,10,6
"263",17,"POL LIN1-Ref-POL LIN2-Ref",NA,NA,NA,NA,NA,NA,NA,NA,NA,NA,NA,NA,NA,NA,NA,NA,NA,NA,NA,NA,NA,NA,NA,NA,NA,NA,NA,NA,NA,NA,NA,NA,NA,NA,NA,NA,NA,NA,NA,NA,NA,NA,1501,"DG_s08",47.797,48.469,48.735,48.735,10,10,6,6,0.266,"Left",6,6,0,0,0,0,0,0,"10-10",4,4,10,6,10,6
"264",17,"POL LIN9-Ref-POL LIN10-Ref",NA,NA,NA,NA,NA,NA,NA,NA,NA,NA,NA,NA,NA,NA,NA,NA,NA,NA,NA,NA,NA,NA,NA,NA,NA,NA,NA,NA,NA,NA,NA,NA,NA,NA,NA,NA,NA,NA,NA,NA,NA,NA,1501,"DG_s08",47.797,48.469,48.735,48.735,10,10,6,6,0.266,"Left",6,6,0,0,0,0,0,0,"10-10",4,4,10,6,10,6
"265",17,"POL RAM8-Ref-POL RAM9-Ref",NA,NA,NA,NA,NA,NA,NA,NA,NA,NA,NA,NA,NA,NA,NA,NA,NA,NA,NA,NA,NA,NA,NA,NA,NA,NA,NA,NA,NA,NA,NA,NA,NA,NA,NA,NA,NA,NA,NA,NA,NA,NA,1501,"DG_s08",47.797,48.469,48.735,48.735,10,10,6,6,0.266,"Left",6,6,0,0,0,0,0,0,"10-10",4,4,10,6,10,6
"266",17,"POL RIN12-Ref-POL RIN13-Ref",NA,NA,NA,NA,NA,NA,NA,NA,NA,NA,NA,NA,NA,NA,NA,NA,NA,NA,NA,NA,NA,NA,NA,NA,NA,NA,NA,NA,NA,NA,NA,NA,NA,NA,NA,NA,NA,NA,NA,NA,NA,NA,1501,"DG_s08",47.797,48.469,48.735,48.735,10,10,6,6,0.266,"Left",6,6,0,0,0,0,0,0,"10-10",4,4,10,6,10,6
"267",17,"POL LIN2-Ref-POL LIN3-Ref",NA,NA,NA,NA,NA,NA,NA,NA,NA,NA,NA,NA,NA,NA,NA,NA,NA,NA,NA,NA,NA,NA,NA,NA,NA,NA,NA,NA,NA,NA,NA,NA,NA,NA,NA,NA,NA,NA,NA,NA,NA,NA,1501,"DG_s08",47.797,48.469,48.735,48.735,10,10,6,6,0.266,"Left",6,6,0,0,0,0,0,0,"10-10",4,4,10,6,10,6
"268",17,"POL RIN10-Ref-POL RIN11-Ref",NA,NA,NA,NA,NA,NA,NA,NA,NA,NA,NA,NA,NA,NA,NA,NA,NA,NA,NA,NA,NA,NA,NA,NA,NA,NA,NA,NA,NA,NA,NA,NA,NA,NA,NA,NA,NA,NA,NA,NA,NA,NA,1501,"DG_s08",47.797,48.469,48.735,48.735,10,10,6,6,0.266,"Left",6,6,0,0,0,0,0,0,"10-10",4,4,10,6,10,6
"269",17,"POL RIN2-Ref-POL RIN3-Ref",NA,NA,NA,NA,NA,NA,NA,NA,NA,NA,NA,NA,NA,NA,NA,NA,NA,NA,NA,NA,NA,NA,NA,NA,NA,NA,NA,NA,NA,NA,NA,NA,NA,NA,NA,NA,NA,NA,NA,NA,NA,NA,1501,"DG_s08",47.797,48.469,48.735,48.735,10,10,6,6,0.266,"Left",6,6,0,0,0,0,0,0,"10-10",4,4,10,6,10,6
"270",17,"POL RIN3-Ref-POL RIN4-Ref",NA,NA,NA,NA,NA,NA,NA,NA,NA,NA,NA,NA,NA,NA,NA,NA,NA,NA,NA,NA,NA,NA,NA,NA,NA,NA,NA,NA,NA,NA,NA,NA,NA,NA,NA,NA,NA,NA,NA,NA,NA,NA,1501,"DG_s08",47.797,48.469,48.735,48.735,10,10,6,6,0.266,"Left",6,6,0,0,0,0,0,0,"10-10",4,4,10,6,10,6
"271",17,"POL LAM9-Ref-POL LAM10-Ref",NA,NA,NA,NA,NA,NA,NA,NA,NA,NA,NA,NA,NA,NA,NA,NA,NA,NA,NA,NA,NA,NA,NA,NA,NA,NA,NA,NA,NA,NA,NA,NA,NA,NA,NA,NA,NA,NA,NA,NA,NA,NA,1501,"DG_s08",47.797,48.469,48.735,48.735,10,10,6,6,0.266,"Left",6,6,0,0,0,0,0,0,"10-10",4,4,10,6,10,6
"272",17,"POL RIN1-Ref-POL RIN2-Ref",NA,NA,NA,NA,NA,NA,NA,NA,NA,NA,NA,NA,NA,NA,NA,NA,NA,NA,NA,NA,NA,NA,NA,NA,NA,NA,NA,NA,NA,NA,NA,NA,NA,NA,NA,NA,NA,NA,NA,NA,NA,NA,1501,"DG_s08",47.797,48.469,48.735,48.735,10,10,6,6,0.266,"Left",6,6,0,0,0,0,0,0,"10-10",4,4,10,6,10,6
"273",17,"POL RIN4-Ref-POL RIN5-Ref",NA,NA,NA,NA,NA,NA,NA,NA,NA,NA,NA,NA,NA,NA,NA,NA,NA,NA,NA,NA,NA,NA,NA,NA,NA,NA,NA,NA,NA,NA,NA,NA,NA,NA,NA,NA,NA,NA,NA,NA,NA,NA,1501,"DG_s08",47.797,48.469,48.735,48.735,10,10,6,6,0.266,"Left",6,6,0,0,0,0,0,0,"10-10",4,4,10,6,10,6
"274",18,"POL LIN10-Ref-POL LIN11-Ref",NA,NA,NA,NA,NA,NA,NA,NA,NA,NA,NA,NA,NA,NA,NA,NA,NA,NA,NA,NA,NA,NA,NA,NA,NA,NA,NA,NA,NA,NA,NA,NA,NA,NA,NA,NA,NA,NA,NA,NA,NA,NA,1502,"DG_s08",49.75,50.422,51.36,51.36,10,10,14,26,0.938,"Left",14,26,12,0,12,12,0,-12,"10-10",-4,-16,10,14,10,26
"275",18,"POL LIN11-Ref-POL LIN12-Ref",NA,NA,NA,NA,NA,NA,NA,NA,NA,NA,NA,NA,NA,NA,NA,NA,NA,NA,NA,NA,NA,NA,NA,NA,NA,NA,NA,NA,NA,NA,NA,NA,NA,NA,NA,NA,NA,NA,NA,NA,NA,NA,1502,"DG_s08",49.75,50.422,51.36,51.36,10,10,14,26,0.938,"Left",14,26,12,0,12,12,0,-12,"10-10",-4,-16,10,14,10,26
"276",18,"POL RIN3-Ref-POL RIN4-Ref",NA,NA,NA,NA,NA,NA,NA,NA,NA,NA,NA,NA,NA,NA,NA,NA,NA,NA,NA,NA,NA,NA,NA,NA,NA,NA,NA,NA,NA,NA,NA,NA,NA,NA,NA,NA,NA,NA,NA,NA,NA,NA,1502,"DG_s08",49.75,50.422,51.36,51.36,10,10,14,26,0.938,"Left",14,26,12,0,12,12,0,-12,"10-10",-4,-16,10,14,10,26
"277",18,"POL RIN2-Ref-POL RIN3-Ref",NA,NA,NA,NA,NA,NA,NA,NA,NA,NA,NA,NA,NA,NA,NA,NA,NA,NA,NA,NA,NA,NA,NA,NA,NA,NA,NA,NA,NA,NA,NA,NA,NA,NA,NA,NA,NA,NA,NA,NA,NA,NA,1502,"DG_s08",49.75,50.422,51.36,51.36,10,10,14,26,0.938,"Left",14,26,12,0,12,12,0,-12,"10-10",-4,-16,10,14,10,26
"278",18,"POL LIN9-Ref-POL LIN10-Ref",NA,NA,NA,NA,NA,NA,NA,NA,NA,NA,NA,NA,NA,NA,NA,NA,NA,NA,NA,NA,NA,NA,NA,NA,NA,NA,NA,NA,NA,NA,NA,NA,NA,NA,NA,NA,NA,NA,NA,NA,NA,NA,1502,"DG_s08",49.75,50.422,51.36,51.36,10,10,14,26,0.938,"Left",14,26,12,0,12,12,0,-12,"10-10",-4,-16,10,14,10,26
"279",18,"POL RIN5-Ref-POL RIN6-Ref",NA,NA,NA,NA,NA,NA,NA,NA,NA,NA,NA,NA,NA,NA,NA,NA,NA,NA,NA,NA,NA,NA,NA,NA,NA,NA,NA,NA,NA,NA,NA,NA,NA,NA,NA,NA,NA,NA,NA,NA,NA,NA,1502,"DG_s08",49.75,50.422,51.36,51.36,10,10,14,26,0.938,"Left",14,26,12,0,12,12,0,-12,"10-10",-4,-16,10,14,10,26
"280",18,"POL LIN3-Ref-POL LIN4-Ref",NA,NA,NA,NA,NA,NA,NA,NA,NA,NA,NA,NA,NA,NA,NA,NA,NA,NA,NA,NA,NA,NA,NA,NA,NA,NA,NA,NA,NA,NA,NA,NA,NA,NA,NA,NA,NA,NA,NA,NA,NA,NA,1502,"DG_s08",49.75,50.422,51.36,51.36,10,10,14,26,0.938,"Left",14,26,12,0,12,12,0,-12,"10-10",-4,-16,10,14,10,26
"281",18,"POL RIN12-Ref-POL RIN13-Ref",NA,NA,NA,NA,NA,NA,NA,NA,NA,NA,NA,NA,NA,NA,NA,NA,NA,NA,NA,NA,NA,NA,NA,NA,NA,NA,NA,NA,NA,NA,NA,NA,NA,NA,NA,NA,NA,NA,NA,NA,NA,NA,1502,"DG_s08",49.75,50.422,51.36,51.36,10,10,14,26,0.938,"Left",14,26,12,0,12,12,0,-12,"10-10",-4,-16,10,14,10,26
"282",18,"POL LIN1-Ref-POL LIN2-Ref",NA,NA,NA,NA,NA,NA,NA,NA,NA,NA,NA,NA,NA,NA,NA,NA,NA,NA,NA,NA,NA,NA,NA,NA,NA,NA,NA,NA,NA,NA,NA,NA,NA,NA,NA,NA,NA,NA,NA,NA,NA,NA,1502,"DG_s08",49.75,50.422,51.36,51.36,10,10,14,26,0.938,"Left",14,26,12,0,12,12,0,-12,"10-10",-4,-16,10,14,10,26
"283",18,"POL LAM8-Ref-POL LAM9-Ref",NA,NA,NA,NA,NA,NA,NA,NA,NA,NA,NA,NA,NA,NA,NA,NA,NA,NA,NA,NA,NA,NA,NA,NA,NA,NA,NA,NA,NA,NA,NA,NA,NA,NA,NA,NA,NA,NA,NA,NA,NA,NA,1502,"DG_s08",49.75,50.422,51.36,51.36,10,10,14,26,0.938,"Left",14,26,12,0,12,12,0,-12,"10-10",-4,-16,10,14,10,26
"284",18,"POL LIN12-Ref-POL LIN13-Ref",NA,NA,NA,NA,NA,NA,NA,NA,NA,NA,NA,NA,NA,NA,NA,NA,NA,NA,NA,NA,NA,NA,NA,NA,NA,NA,NA,NA,NA,NA,NA,NA,NA,NA,NA,NA,NA,NA,NA,NA,NA,NA,1502,"DG_s08",49.75,50.422,51.36,51.36,10,10,14,26,0.938,"Left",14,26,12,0,12,12,0,-12,"10-10",-4,-16,10,14,10,26
"285",18,"POL RIN11-Ref-POL RIN12-Ref",NA,NA,NA,NA,NA,NA,NA,NA,NA,NA,NA,NA,NA,NA,NA,NA,NA,NA,NA,NA,NA,NA,NA,NA,NA,NA,NA,NA,NA,NA,NA,NA,NA,NA,NA,NA,NA,NA,NA,NA,NA,NA,1502,"DG_s08",49.75,50.422,51.36,51.36,10,10,14,26,0.938,"Left",14,26,12,0,12,12,0,-12,"10-10",-4,-16,10,14,10,26
"286",18,"POL RIN10-Ref-POL RIN11-Ref",NA,NA,NA,NA,NA,NA,NA,NA,NA,NA,NA,NA,NA,NA,NA,NA,NA,NA,NA,NA,NA,NA,NA,NA,NA,NA,NA,NA,NA,NA,NA,NA,NA,NA,NA,NA,NA,NA,NA,NA,NA,NA,1502,"DG_s08",49.75,50.422,51.36,51.36,10,10,14,26,0.938,"Left",14,26,12,0,12,12,0,-12,"10-10",-4,-16,10,14,10,26
"287",18,"POL RIN9-Ref-POL RIN10-Ref",NA,NA,NA,NA,NA,NA,NA,NA,NA,NA,NA,NA,NA,NA,NA,NA,NA,NA,NA,NA,NA,NA,NA,NA,NA,NA,NA,NA,NA,NA,NA,NA,NA,NA,NA,NA,NA,NA,NA,NA,NA,NA,1502,"DG_s08",49.75,50.422,51.36,51.36,10,10,14,26,0.938,"Left",14,26,12,0,12,12,0,-12,"10-10",-4,-16,10,14,10,26
"288",18,"POL LIN4-Ref-POL LIN5-Ref",NA,NA,NA,NA,NA,NA,NA,NA,NA,NA,NA,NA,NA,NA,NA,NA,NA,NA,NA,NA,NA,NA,NA,NA,NA,NA,NA,NA,NA,NA,NA,NA,NA,NA,NA,NA,NA,NA,NA,NA,NA,NA,1502,"DG_s08",49.75,50.422,51.36,51.36,10,10,14,26,0.938,"Left",14,26,12,0,12,12,0,-12,"10-10",-4,-16,10,14,10,26
"289",18,"POL RAM7-Ref-POL RAM8-Ref",NA,NA,NA,NA,NA,NA,NA,NA,NA,NA,NA,NA,NA,NA,NA,NA,NA,NA,NA,NA,NA,NA,NA,NA,NA,NA,NA,NA,NA,NA,NA,NA,NA,NA,NA,NA,NA,NA,NA,NA,NA,NA,1502,"DG_s08",49.75,50.422,51.36,51.36,10,10,14,26,0.938,"Left",14,26,12,0,12,12,0,-12,"10-10",-4,-16,10,14,10,26
"290",18,"POL LIN2-Ref-POL LIN3-Ref",NA,NA,NA,NA,NA,NA,NA,NA,NA,NA,NA,NA,NA,NA,NA,NA,NA,NA,NA,NA,NA,NA,NA,NA,NA,NA,NA,NA,NA,NA,NA,NA,NA,NA,NA,NA,NA,NA,NA,NA,NA,NA,1502,"DG_s08",49.75,50.422,51.36,51.36,10,10,14,26,0.938,"Left",14,26,12,0,12,12,0,-12,"10-10",-4,-16,10,14,10,26
"291",18,"POL LAM9-Ref-POL LAM10-Ref",NA,NA,NA,NA,NA,NA,NA,NA,NA,NA,NA,NA,NA,NA,NA,NA,NA,NA,NA,NA,NA,NA,NA,NA,NA,NA,NA,NA,NA,NA,NA,NA,NA,NA,NA,NA,NA,NA,NA,NA,NA,NA,1502,"DG_s08",49.75,50.422,51.36,51.36,10,10,14,26,0.938,"Left",14,26,12,0,12,12,0,-12,"10-10",-4,-16,10,14,10,26
"292",18,"POL RIN4-Ref-POL RIN5-Ref",NA,NA,NA,NA,NA,NA,NA,NA,NA,NA,NA,NA,NA,NA,NA,NA,NA,NA,NA,NA,NA,NA,NA,NA,NA,NA,NA,NA,NA,NA,NA,NA,NA,NA,NA,NA,NA,NA,NA,NA,NA,NA,1502,"DG_s08",49.75,50.422,51.36,51.36,10,10,14,26,0.938,"Left",14,26,12,0,12,12,0,-12,"10-10",-4,-16,10,14,10,26
"293",18,"POL RAM8-Ref-POL RAM9-Ref",NA,NA,NA,NA,NA,NA,NA,NA,NA,NA,NA,NA,NA,NA,NA,NA,NA,NA,NA,NA,NA,NA,NA,NA,NA,NA,NA,NA,NA,NA,NA,NA,NA,NA,NA,NA,NA,NA,NA,NA,NA,NA,1502,"DG_s08",49.75,50.422,51.36,51.36,10,10,14,26,0.938,"Left",14,26,12,0,12,12,0,-12,"10-10",-4,-16,10,14,10,26
"294",18,"POL RIN1-Ref-POL RIN2-Ref",NA,NA,NA,NA,NA,NA,NA,NA,NA,NA,NA,NA,NA,NA,NA,NA,NA,NA,NA,NA,NA,NA,NA,NA,NA,NA,NA,NA,NA,NA,NA,NA,NA,NA,NA,NA,NA,NA,NA,NA,NA,NA,1502,"DG_s08",49.75,50.422,51.36,51.36,10,10,14,26,0.938,"Left",14,26,12,0,12,12,0,-12,"10-10",-4,-16,10,14,10,26
"295",19,"POL RAM8-Ref-POL RAM9-Ref",NA,NA,NA,NA,NA,NA,NA,NA,NA,NA,NA,NA,NA,NA,NA,NA,NA,NA,NA,NA,NA,NA,NA,NA,NA,NA,NA,NA,NA,NA,NA,NA,NA,NA,NA,NA,NA,NA,NA,NA,NA,NA,1503,"DG_s08",52.375,53.047,53.672,53.672,10,10,11,7,0.625,"Right",11,7,4,0,4,0,-4,4,"10-10",-1,3,11,10,7,10
"296",19,"POL LIN3-Ref-POL LIN4-Ref",NA,NA,NA,NA,NA,NA,NA,NA,NA,NA,NA,NA,NA,NA,NA,NA,NA,NA,NA,NA,NA,NA,NA,NA,NA,NA,NA,NA,NA,NA,NA,NA,NA,NA,NA,NA,NA,NA,NA,NA,NA,NA,1503,"DG_s08",52.375,53.047,53.672,53.672,10,10,11,7,0.625,"Right",11,7,4,0,4,0,-4,4,"10-10",-1,3,11,10,7,10
"297",19,"POL RIN2-Ref-POL RIN3-Ref",NA,NA,NA,NA,NA,NA,NA,NA,NA,NA,NA,NA,NA,NA,NA,NA,NA,NA,NA,NA,NA,NA,NA,NA,NA,NA,NA,NA,NA,NA,NA,NA,NA,NA,NA,NA,NA,NA,NA,NA,NA,NA,1503,"DG_s08",52.375,53.047,53.672,53.672,10,10,11,7,0.625,"Right",11,7,4,0,4,0,-4,4,"10-10",-1,3,11,10,7,10
"298",19,"POL LIN1-Ref-POL LIN2-Ref",NA,NA,NA,NA,NA,NA,NA,NA,NA,NA,NA,NA,NA,NA,NA,NA,NA,NA,NA,NA,NA,NA,NA,NA,NA,NA,NA,NA,NA,NA,NA,NA,NA,NA,NA,NA,NA,NA,NA,NA,NA,NA,1503,"DG_s08",52.375,53.047,53.672,53.672,10,10,11,7,0.625,"Right",11,7,4,0,4,0,-4,4,"10-10",-1,3,11,10,7,10
"299",19,"POL RIN11-Ref-POL RIN12-Ref",NA,NA,NA,NA,NA,NA,NA,NA,NA,NA,NA,NA,NA,NA,NA,NA,NA,NA,NA,NA,NA,NA,NA,NA,NA,NA,NA,NA,NA,NA,NA,NA,NA,NA,NA,NA,NA,NA,NA,NA,NA,NA,1503,"DG_s08",52.375,53.047,53.672,53.672,10,10,11,7,0.625,"Right",11,7,4,0,4,0,-4,4,"10-10",-1,3,11,10,7,10
"300",19,"POL LIN9-Ref-POL LIN10-Ref",NA,NA,NA,NA,NA,NA,NA,NA,NA,NA,NA,NA,NA,NA,NA,NA,NA,NA,NA,NA,NA,NA,NA,NA,NA,NA,NA,NA,NA,NA,NA,NA,NA,NA,NA,NA,NA,NA,NA,NA,NA,NA,1503,"DG_s08",52.375,53.047,53.672,53.672,10,10,11,7,0.625,"Right",11,7,4,0,4,0,-4,4,"10-10",-1,3,11,10,7,10
"301",19,"POL RIN1-Ref-POL RIN2-Ref",NA,NA,NA,NA,NA,NA,NA,NA,NA,NA,NA,NA,NA,NA,NA,NA,NA,NA,NA,NA,NA,NA,NA,NA,NA,NA,NA,NA,NA,NA,NA,NA,NA,NA,NA,NA,NA,NA,NA,NA,NA,NA,1503,"DG_s08",52.375,53.047,53.672,53.672,10,10,11,7,0.625,"Right",11,7,4,0,4,0,-4,4,"10-10",-1,3,11,10,7,10
"302",19,"POL RIN5-Ref-POL RIN6-Ref",NA,NA,NA,NA,NA,NA,NA,NA,NA,NA,NA,NA,NA,NA,NA,NA,NA,NA,NA,NA,NA,NA,NA,NA,NA,NA,NA,NA,NA,NA,NA,NA,NA,NA,NA,NA,NA,NA,NA,NA,NA,NA,1503,"DG_s08",52.375,53.047,53.672,53.672,10,10,11,7,0.625,"Right",11,7,4,0,4,0,-4,4,"10-10",-1,3,11,10,7,10
"303",19,"POL RIN9-Ref-POL RIN10-Ref",NA,NA,NA,NA,NA,NA,NA,NA,NA,NA,NA,NA,NA,NA,NA,NA,NA,NA,NA,NA,NA,NA,NA,NA,NA,NA,NA,NA,NA,NA,NA,NA,NA,NA,NA,NA,NA,NA,NA,NA,NA,NA,1503,"DG_s08",52.375,53.047,53.672,53.672,10,10,11,7,0.625,"Right",11,7,4,0,4,0,-4,4,"10-10",-1,3,11,10,7,10
"304",19,"POL RAM7-Ref-POL RAM8-Ref",NA,NA,NA,NA,NA,NA,NA,NA,NA,NA,NA,NA,NA,NA,NA,NA,NA,NA,NA,NA,NA,NA,NA,NA,NA,NA,NA,NA,NA,NA,NA,NA,NA,NA,NA,NA,NA,NA,NA,NA,NA,NA,1503,"DG_s08",52.375,53.047,53.672,53.672,10,10,11,7,0.625,"Right",11,7,4,0,4,0,-4,4,"10-10",-1,3,11,10,7,10
"305",19,"POL RIN12-Ref-POL RIN13-Ref",NA,NA,NA,NA,NA,NA,NA,NA,NA,NA,NA,NA,NA,NA,NA,NA,NA,NA,NA,NA,NA,NA,NA,NA,NA,NA,NA,NA,NA,NA,NA,NA,NA,NA,NA,NA,NA,NA,NA,NA,NA,NA,1503,"DG_s08",52.375,53.047,53.672,53.672,10,10,11,7,0.625,"Right",11,7,4,0,4,0,-4,4,"10-10",-1,3,11,10,7,10
"306",19,"POL LIN4-Ref-POL LIN5-Ref",NA,NA,NA,NA,NA,NA,NA,NA,NA,NA,NA,NA,NA,NA,NA,NA,NA,NA,NA,NA,NA,NA,NA,NA,NA,NA,NA,NA,NA,NA,NA,NA,NA,NA,NA,NA,NA,NA,NA,NA,NA,NA,1503,"DG_s08",52.375,53.047,53.672,53.672,10,10,11,7,0.625,"Right",11,7,4,0,4,0,-4,4,"10-10",-1,3,11,10,7,10
"307",19,"POL LIN12-Ref-POL LIN13-Ref",NA,NA,NA,NA,NA,NA,NA,NA,NA,NA,NA,NA,NA,NA,NA,NA,NA,NA,NA,NA,NA,NA,NA,NA,NA,NA,NA,NA,NA,NA,NA,NA,NA,NA,NA,NA,NA,NA,NA,NA,NA,NA,1503,"DG_s08",52.375,53.047,53.672,53.672,10,10,11,7,0.625,"Right",11,7,4,0,4,0,-4,4,"10-10",-1,3,11,10,7,10
"308",19,"POL LIN11-Ref-POL LIN12-Ref",NA,NA,NA,NA,NA,NA,NA,NA,NA,NA,NA,NA,NA,NA,NA,NA,NA,NA,NA,NA,NA,NA,NA,NA,NA,NA,NA,NA,NA,NA,NA,NA,NA,NA,NA,NA,NA,NA,NA,NA,NA,NA,1503,"DG_s08",52.375,53.047,53.672,53.672,10,10,11,7,0.625,"Right",11,7,4,0,4,0,-4,4,"10-10",-1,3,11,10,7,10
"309",19,"POL RIN4-Ref-POL RIN5-Ref",NA,NA,NA,NA,NA,NA,NA,NA,NA,NA,NA,NA,NA,NA,NA,NA,NA,NA,NA,NA,NA,NA,NA,NA,NA,NA,NA,NA,NA,NA,NA,NA,NA,NA,NA,NA,NA,NA,NA,NA,NA,NA,1503,"DG_s08",52.375,53.047,53.672,53.672,10,10,11,7,0.625,"Right",11,7,4,0,4,0,-4,4,"10-10",-1,3,11,10,7,10
"310",19,"POL RIN10-Ref-POL RIN11-Ref",NA,NA,NA,NA,NA,NA,NA,NA,NA,NA,NA,NA,NA,NA,NA,NA,NA,NA,NA,NA,NA,NA,NA,NA,NA,NA,NA,NA,NA,NA,NA,NA,NA,NA,NA,NA,NA,NA,NA,NA,NA,NA,1503,"DG_s08",52.375,53.047,53.672,53.672,10,10,11,7,0.625,"Right",11,7,4,0,4,0,-4,4,"10-10",-1,3,11,10,7,10
"311",19,"POL LIN2-Ref-POL LIN3-Ref",NA,NA,NA,NA,NA,NA,NA,NA,NA,NA,NA,NA,NA,NA,NA,NA,NA,NA,NA,NA,NA,NA,NA,NA,NA,NA,NA,NA,NA,NA,NA,NA,NA,NA,NA,NA,NA,NA,NA,NA,NA,NA,1503,"DG_s08",52.375,53.047,53.672,53.672,10,10,11,7,0.625,"Right",11,7,4,0,4,0,-4,4,"10-10",-1,3,11,10,7,10
"312",19,"POL RIN3-Ref-POL RIN4-Ref",NA,NA,NA,NA,NA,NA,NA,NA,NA,NA,NA,NA,NA,NA,NA,NA,NA,NA,NA,NA,NA,NA,NA,NA,NA,NA,NA,NA,NA,NA,NA,NA,NA,NA,NA,NA,NA,NA,NA,NA,NA,NA,1503,"DG_s08",52.375,53.047,53.672,53.672,10,10,11,7,0.625,"Right",11,7,4,0,4,0,-4,4,"10-10",-1,3,11,10,7,10
"313",19,"POL LAM8-Ref-POL LAM9-Ref",NA,NA,NA,NA,NA,NA,NA,NA,NA,NA,NA,NA,NA,NA,NA,NA,NA,NA,NA,NA,NA,NA,NA,NA,NA,NA,NA,NA,NA,NA,NA,NA,NA,NA,NA,NA,NA,NA,NA,NA,NA,NA,1503,"DG_s08",52.375,53.047,53.672,53.672,10,10,11,7,0.625,"Right",11,7,4,0,4,0,-4,4,"10-10",-1,3,11,10,7,10
"314",19,"POL LAM9-Ref-POL LAM10-Ref",NA,NA,NA,NA,NA,NA,NA,NA,NA,NA,NA,NA,NA,NA,NA,NA,NA,NA,NA,NA,NA,NA,NA,NA,NA,NA,NA,NA,NA,NA,NA,NA,NA,NA,NA,NA,NA,NA,NA,NA,NA,NA,1503,"DG_s08",52.375,53.047,53.672,53.672,10,10,11,7,0.625,"Right",11,7,4,0,4,0,-4,4,"10-10",-1,3,11,10,7,10
"315",19,"POL LIN10-Ref-POL LIN11-Ref",NA,NA,NA,NA,NA,NA,NA,NA,NA,NA,NA,NA,NA,NA,NA,NA,NA,NA,NA,NA,NA,NA,NA,NA,NA,NA,NA,NA,NA,NA,NA,NA,NA,NA,NA,NA,NA,NA,NA,NA,NA,NA,1503,"DG_s08",52.375,53.047,53.672,53.672,10,10,11,7,0.625,"Right",11,7,4,0,4,0,-4,4,"10-10",-1,3,11,10,7,10
"316",20,"POL RIN10-Ref-POL RIN11-Ref",NA,NA,NA,NA,NA,NA,NA,NA,NA,NA,NA,NA,NA,NA,NA,NA,NA,NA,NA,NA,NA,NA,NA,NA,NA,NA,NA,NA,NA,NA,NA,NA,NA,NA,NA,NA,NA,NA,NA,NA,NA,NA,1504,"DG_s08",54.672,55.344,56,56,16,4,10,10,0.656,"Left",16,4,12,12,0,0,-12,12,"Advent",6,-6,16,10,4,10
"317",20,"POL RIN2-Ref-POL RIN3-Ref",NA,NA,NA,NA,NA,NA,NA,NA,NA,NA,NA,NA,NA,NA,NA,NA,NA,NA,NA,NA,NA,NA,NA,NA,NA,NA,NA,NA,NA,NA,NA,NA,NA,NA,NA,NA,NA,NA,NA,NA,NA,NA,1504,"DG_s08",54.672,55.344,56,56,16,4,10,10,0.656,"Left",16,4,12,12,0,0,-12,12,"Advent",6,-6,16,10,4,10
"318",20,"POL LIN10-Ref-POL LIN11-Ref",NA,NA,NA,NA,NA,NA,NA,NA,NA,NA,NA,NA,NA,NA,NA,NA,NA,NA,NA,NA,NA,NA,NA,NA,NA,NA,NA,NA,NA,NA,NA,NA,NA,NA,NA,NA,NA,NA,NA,NA,NA,NA,1504,"DG_s08",54.672,55.344,56,56,16,4,10,10,0.656,"Left",16,4,12,12,0,0,-12,12,"Advent",6,-6,16,10,4,10
"319",20,"POL RIN5-Ref-POL RIN6-Ref",NA,NA,NA,NA,NA,NA,NA,NA,NA,NA,NA,NA,NA,NA,NA,NA,NA,NA,NA,NA,NA,NA,NA,NA,NA,NA,NA,NA,NA,NA,NA,NA,NA,NA,NA,NA,NA,NA,NA,NA,NA,NA,1504,"DG_s08",54.672,55.344,56,56,16,4,10,10,0.656,"Left",16,4,12,12,0,0,-12,12,"Advent",6,-6,16,10,4,10
"320",20,"POL LIN11-Ref-POL LIN12-Ref",NA,NA,NA,NA,NA,NA,NA,NA,NA,NA,NA,NA,NA,NA,NA,NA,NA,NA,NA,NA,NA,NA,NA,NA,NA,NA,NA,NA,NA,NA,NA,NA,NA,NA,NA,NA,NA,NA,NA,NA,NA,NA,1504,"DG_s08",54.672,55.344,56,56,16,4,10,10,0.656,"Left",16,4,12,12,0,0,-12,12,"Advent",6,-6,16,10,4,10
"321",20,"POL RAM8-Ref-POL RAM9-Ref",NA,NA,NA,NA,NA,NA,NA,NA,NA,NA,NA,NA,NA,NA,NA,NA,NA,NA,NA,NA,NA,NA,NA,NA,NA,NA,NA,NA,NA,NA,NA,NA,NA,NA,NA,NA,NA,NA,NA,NA,NA,NA,1504,"DG_s08",54.672,55.344,56,56,16,4,10,10,0.656,"Left",16,4,12,12,0,0,-12,12,"Advent",6,-6,16,10,4,10
"322",20,"POL LIN1-Ref-POL LIN2-Ref",NA,NA,NA,NA,NA,NA,NA,NA,NA,NA,NA,NA,NA,NA,NA,NA,NA,NA,NA,NA,NA,NA,NA,NA,NA,NA,NA,NA,NA,NA,NA,NA,NA,NA,NA,NA,NA,NA,NA,NA,NA,NA,1504,"DG_s08",54.672,55.344,56,56,16,4,10,10,0.656,"Left",16,4,12,12,0,0,-12,12,"Advent",6,-6,16,10,4,10
"323",20,"POL RIN11-Ref-POL RIN12-Ref",NA,NA,NA,NA,NA,NA,NA,NA,NA,NA,NA,NA,NA,NA,NA,NA,NA,NA,NA,NA,NA,NA,NA,NA,NA,NA,NA,NA,NA,NA,NA,NA,NA,NA,NA,NA,NA,NA,NA,NA,NA,NA,1504,"DG_s08",54.672,55.344,56,56,16,4,10,10,0.656,"Left",16,4,12,12,0,0,-12,12,"Advent",6,-6,16,10,4,10
"324",20,"POL LAM8-Ref-POL LAM9-Ref",NA,NA,NA,NA,NA,NA,NA,NA,NA,NA,NA,NA,NA,NA,NA,NA,NA,NA,NA,NA,NA,NA,NA,NA,NA,NA,NA,NA,NA,NA,NA,NA,NA,NA,NA,NA,NA,NA,NA,NA,NA,NA,1504,"DG_s08",54.672,55.344,56,56,16,4,10,10,0.656,"Left",16,4,12,12,0,0,-12,12,"Advent",6,-6,16,10,4,10
"325",20,"POL RIN12-Ref-POL RIN13-Ref",NA,NA,NA,NA,NA,NA,NA,NA,NA,NA,NA,NA,NA,NA,NA,NA,NA,NA,NA,NA,NA,NA,NA,NA,NA,NA,NA,NA,NA,NA,NA,NA,NA,NA,NA,NA,NA,NA,NA,NA,NA,NA,1504,"DG_s08",54.672,55.344,56,56,16,4,10,10,0.656,"Left",16,4,12,12,0,0,-12,12,"Advent",6,-6,16,10,4,10
"326",20,"POL RIN4-Ref-POL RIN5-Ref",NA,NA,NA,NA,NA,NA,NA,NA,NA,NA,NA,NA,NA,NA,NA,NA,NA,NA,NA,NA,NA,NA,NA,NA,NA,NA,NA,NA,NA,NA,NA,NA,NA,NA,NA,NA,NA,NA,NA,NA,NA,NA,1504,"DG_s08",54.672,55.344,56,56,16,4,10,10,0.656,"Left",16,4,12,12,0,0,-12,12,"Advent",6,-6,16,10,4,10
"327",20,"POL LIN4-Ref-POL LIN5-Ref",NA,NA,NA,NA,NA,NA,NA,NA,NA,NA,NA,NA,NA,NA,NA,NA,NA,NA,NA,NA,NA,NA,NA,NA,NA,NA,NA,NA,NA,NA,NA,NA,NA,NA,NA,NA,NA,NA,NA,NA,NA,NA,1504,"DG_s08",54.672,55.344,56,56,16,4,10,10,0.656,"Left",16,4,12,12,0,0,-12,12,"Advent",6,-6,16,10,4,10
"328",20,"POL LIN12-Ref-POL LIN13-Ref",NA,NA,NA,NA,NA,NA,NA,NA,NA,NA,NA,NA,NA,NA,NA,NA,NA,NA,NA,NA,NA,NA,NA,NA,NA,NA,NA,NA,NA,NA,NA,NA,NA,NA,NA,NA,NA,NA,NA,NA,NA,NA,1504,"DG_s08",54.672,55.344,56,56,16,4,10,10,0.656,"Left",16,4,12,12,0,0,-12,12,"Advent",6,-6,16,10,4,10
"329",20,"POL RIN9-Ref-POL RIN10-Ref",NA,NA,NA,NA,NA,NA,NA,NA,NA,NA,NA,NA,NA,NA,NA,NA,NA,NA,NA,NA,NA,NA,NA,NA,NA,NA,NA,NA,NA,NA,NA,NA,NA,NA,NA,NA,NA,NA,NA,NA,NA,NA,1504,"DG_s08",54.672,55.344,56,56,16,4,10,10,0.656,"Left",16,4,12,12,0,0,-12,12,"Advent",6,-6,16,10,4,10
"330",20,"POL LIN3-Ref-POL LIN4-Ref",NA,NA,NA,NA,NA,NA,NA,NA,NA,NA,NA,NA,NA,NA,NA,NA,NA,NA,NA,NA,NA,NA,NA,NA,NA,NA,NA,NA,NA,NA,NA,NA,NA,NA,NA,NA,NA,NA,NA,NA,NA,NA,1504,"DG_s08",54.672,55.344,56,56,16,4,10,10,0.656,"Left",16,4,12,12,0,0,-12,12,"Advent",6,-6,16,10,4,10
"331",20,"POL RIN1-Ref-POL RIN2-Ref",NA,NA,NA,NA,NA,NA,NA,NA,NA,NA,NA,NA,NA,NA,NA,NA,NA,NA,NA,NA,NA,NA,NA,NA,NA,NA,NA,NA,NA,NA,NA,NA,NA,NA,NA,NA,NA,NA,NA,NA,NA,NA,1504,"DG_s08",54.672,55.344,56,56,16,4,10,10,0.656,"Left",16,4,12,12,0,0,-12,12,"Advent",6,-6,16,10,4,10
"332",20,"POL RAM7-Ref-POL RAM8-Ref",NA,NA,NA,NA,NA,NA,NA,NA,NA,NA,NA,NA,NA,NA,NA,NA,NA,NA,NA,NA,NA,NA,NA,NA,NA,NA,NA,NA,NA,NA,NA,NA,NA,NA,NA,NA,NA,NA,NA,NA,NA,NA,1504,"DG_s08",54.672,55.344,56,56,16,4,10,10,0.656,"Left",16,4,12,12,0,0,-12,12,"Advent",6,-6,16,10,4,10
"333",20,"POL LIN2-Ref-POL LIN3-Ref",NA,NA,NA,NA,NA,NA,NA,NA,NA,NA,NA,NA,NA,NA,NA,NA,NA,NA,NA,NA,NA,NA,NA,NA,NA,NA,NA,NA,NA,NA,NA,NA,NA,NA,NA,NA,NA,NA,NA,NA,NA,NA,1504,"DG_s08",54.672,55.344,56,56,16,4,10,10,0.656,"Left",16,4,12,12,0,0,-12,12,"Advent",6,-6,16,10,4,10
"334",20,"POL RIN3-Ref-POL RIN4-Ref",NA,NA,NA,NA,NA,NA,NA,NA,NA,NA,NA,NA,NA,NA,NA,NA,NA,NA,NA,NA,NA,NA,NA,NA,NA,NA,NA,NA,NA,NA,NA,NA,NA,NA,NA,NA,NA,NA,NA,NA,NA,NA,1504,"DG_s08",54.672,55.344,56,56,16,4,10,10,0.656,"Left",16,4,12,12,0,0,-12,12,"Advent",6,-6,16,10,4,10
"335",20,"POL LAM9-Ref-POL LAM10-Ref",NA,NA,NA,NA,NA,NA,NA,NA,NA,NA,NA,NA,NA,NA,NA,NA,NA,NA,NA,NA,NA,NA,NA,NA,NA,NA,NA,NA,NA,NA,NA,NA,NA,NA,NA,NA,NA,NA,NA,NA,NA,NA,1504,"DG_s08",54.672,55.344,56,56,16,4,10,10,0.656,"Left",16,4,12,12,0,0,-12,12,"Advent",6,-6,16,10,4,10
"336",20,"POL LIN9-Ref-POL LIN10-Ref",NA,NA,NA,NA,NA,NA,NA,NA,NA,NA,NA,NA,NA,NA,NA,NA,NA,NA,NA,NA,NA,NA,NA,NA,NA,NA,NA,NA,NA,NA,NA,NA,NA,NA,NA,NA,NA,NA,NA,NA,NA,NA,1504,"DG_s08",54.672,55.344,56,56,16,4,10,10,0.656,"Left",16,4,12,12,0,0,-12,12,"Advent",6,-6,16,10,4,10
"337",21,"POL LIN9-Ref-POL LIN10-Ref",NA,NA,NA,NA,NA,NA,NA,NA,NA,NA,NA,NA,NA,NA,NA,NA,NA,NA,NA,NA,NA,NA,NA,NA,NA,NA,NA,NA,NA,NA,NA,NA,NA,NA,NA,NA,NA,NA,NA,NA,NA,NA,1505,"DG_s08",57,57.672,58.219,58.235,10,10,13,1,0.547,"Left",13,1,12,0,12,0,-12,12,"10-10",-3,9,10,13,10,1
"338",21,"POL RIN5-Ref-POL RIN6-Ref",NA,NA,NA,NA,NA,NA,NA,NA,NA,NA,NA,NA,NA,NA,NA,NA,NA,NA,NA,NA,NA,NA,NA,NA,NA,NA,NA,NA,NA,NA,NA,NA,NA,NA,NA,NA,NA,NA,NA,NA,NA,NA,1505,"DG_s08",57,57.672,58.219,58.235,10,10,13,1,0.547,"Left",13,1,12,0,12,0,-12,12,"10-10",-3,9,10,13,10,1
"339",21,"POL RIN4-Ref-POL RIN5-Ref",NA,NA,NA,NA,NA,NA,NA,NA,NA,NA,NA,NA,NA,NA,NA,NA,NA,NA,NA,NA,NA,NA,NA,NA,NA,NA,NA,NA,NA,NA,NA,NA,NA,NA,NA,NA,NA,NA,NA,NA,NA,NA,1505,"DG_s08",57,57.672,58.219,58.235,10,10,13,1,0.547,"Left",13,1,12,0,12,0,-12,12,"10-10",-3,9,10,13,10,1
"340",21,"POL LIN3-Ref-POL LIN4-Ref",NA,NA,NA,NA,NA,NA,NA,NA,NA,NA,NA,NA,NA,NA,NA,NA,NA,NA,NA,NA,NA,NA,NA,NA,NA,NA,NA,NA,NA,NA,NA,NA,NA,NA,NA,NA,NA,NA,NA,NA,NA,NA,1505,"DG_s08",57,57.672,58.219,58.235,10,10,13,1,0.547,"Left",13,1,12,0,12,0,-12,12,"10-10",-3,9,10,13,10,1
"341",21,"POL RIN3-Ref-POL RIN4-Ref",NA,NA,NA,NA,NA,NA,NA,NA,NA,NA,NA,NA,NA,NA,NA,NA,NA,NA,NA,NA,NA,NA,NA,NA,NA,NA,NA,NA,NA,NA,NA,NA,NA,NA,NA,NA,NA,NA,NA,NA,NA,NA,1505,"DG_s08",57,57.672,58.219,58.235,10,10,13,1,0.547,"Left",13,1,12,0,12,0,-12,12,"10-10",-3,9,10,13,10,1
"342",21,"POL LIN4-Ref-POL LIN5-Ref",NA,NA,NA,NA,NA,NA,NA,NA,NA,NA,NA,NA,NA,NA,NA,NA,NA,NA,NA,NA,NA,NA,NA,NA,NA,NA,NA,NA,NA,NA,NA,NA,NA,NA,NA,NA,NA,NA,NA,NA,NA,NA,1505,"DG_s08",57,57.672,58.219,58.235,10,10,13,1,0.547,"Left",13,1,12,0,12,0,-12,12,"10-10",-3,9,10,13,10,1
"343",21,"POL LIN1-Ref-POL LIN2-Ref",NA,NA,NA,NA,NA,NA,NA,NA,NA,NA,NA,NA,NA,NA,NA,NA,NA,NA,NA,NA,NA,NA,NA,NA,NA,NA,NA,NA,NA,NA,NA,NA,NA,NA,NA,NA,NA,NA,NA,NA,NA,NA,1505,"DG_s08",57,57.672,58.219,58.235,10,10,13,1,0.547,"Left",13,1,12,0,12,0,-12,12,"10-10",-3,9,10,13,10,1
"344",21,"POL RIN2-Ref-POL RIN3-Ref",NA,NA,NA,NA,NA,NA,NA,NA,NA,NA,NA,NA,NA,NA,NA,NA,NA,NA,NA,NA,NA,NA,NA,NA,NA,NA,NA,NA,NA,NA,NA,NA,NA,NA,NA,NA,NA,NA,NA,NA,NA,NA,1505,"DG_s08",57,57.672,58.219,58.235,10,10,13,1,0.547,"Left",13,1,12,0,12,0,-12,12,"10-10",-3,9,10,13,10,1
"345",21,"POL LIN10-Ref-POL LIN11-Ref",NA,NA,NA,NA,NA,NA,NA,NA,NA,NA,NA,NA,NA,NA,NA,NA,NA,NA,NA,NA,NA,NA,NA,NA,NA,NA,NA,NA,NA,NA,NA,NA,NA,NA,NA,NA,NA,NA,NA,NA,NA,NA,1505,"DG_s08",57,57.672,58.219,58.235,10,10,13,1,0.547,"Left",13,1,12,0,12,0,-12,12,"10-10",-3,9,10,13,10,1
"346",21,"POL RIN12-Ref-POL RIN13-Ref",NA,NA,NA,NA,NA,NA,NA,NA,NA,NA,NA,NA,NA,NA,NA,NA,NA,NA,NA,NA,NA,NA,NA,NA,NA,NA,NA,NA,NA,NA,NA,NA,NA,NA,NA,NA,NA,NA,NA,NA,NA,NA,1505,"DG_s08",57,57.672,58.219,58.235,10,10,13,1,0.547,"Left",13,1,12,0,12,0,-12,12,"10-10",-3,9,10,13,10,1
"347",21,"POL LIN12-Ref-POL LIN13-Ref",NA,NA,NA,NA,NA,NA,NA,NA,NA,NA,NA,NA,NA,NA,NA,NA,NA,NA,NA,NA,NA,NA,NA,NA,NA,NA,NA,NA,NA,NA,NA,NA,NA,NA,NA,NA,NA,NA,NA,NA,NA,NA,1505,"DG_s08",57,57.672,58.219,58.235,10,10,13,1,0.547,"Left",13,1,12,0,12,0,-12,12,"10-10",-3,9,10,13,10,1
"348",21,"POL RIN11-Ref-POL RIN12-Ref",NA,NA,NA,NA,NA,NA,NA,NA,NA,NA,NA,NA,NA,NA,NA,NA,NA,NA,NA,NA,NA,NA,NA,NA,NA,NA,NA,NA,NA,NA,NA,NA,NA,NA,NA,NA,NA,NA,NA,NA,NA,NA,1505,"DG_s08",57,57.672,58.219,58.235,10,10,13,1,0.547,"Left",13,1,12,0,12,0,-12,12,"10-10",-3,9,10,13,10,1
"349",21,"POL LAM9-Ref-POL LAM10-Ref",NA,NA,NA,NA,NA,NA,NA,NA,NA,NA,NA,NA,NA,NA,NA,NA,NA,NA,NA,NA,NA,NA,NA,NA,NA,NA,NA,NA,NA,NA,NA,NA,NA,NA,NA,NA,NA,NA,NA,NA,NA,NA,1505,"DG_s08",57,57.672,58.219,58.235,10,10,13,1,0.547,"Left",13,1,12,0,12,0,-12,12,"10-10",-3,9,10,13,10,1
"350",21,"POL RIN1-Ref-POL RIN2-Ref",NA,NA,NA,NA,NA,NA,NA,NA,NA,NA,NA,NA,NA,NA,NA,NA,NA,NA,NA,NA,NA,NA,NA,NA,NA,NA,NA,NA,NA,NA,NA,NA,NA,NA,NA,NA,NA,NA,NA,NA,NA,NA,1505,"DG_s08",57,57.672,58.219,58.235,10,10,13,1,0.547,"Left",13,1,12,0,12,0,-12,12,"10-10",-3,9,10,13,10,1
"351",21,"POL LIN11-Ref-POL LIN12-Ref",NA,NA,NA,NA,NA,NA,NA,NA,NA,NA,NA,NA,NA,NA,NA,NA,NA,NA,NA,NA,NA,NA,NA,NA,NA,NA,NA,NA,NA,NA,NA,NA,NA,NA,NA,NA,NA,NA,NA,NA,NA,NA,1505,"DG_s08",57,57.672,58.219,58.235,10,10,13,1,0.547,"Left",13,1,12,0,12,0,-12,12,"10-10",-3,9,10,13,10,1
"352",21,"POL RAM7-Ref-POL RAM8-Ref",NA,NA,NA,NA,NA,NA,NA,NA,NA,NA,NA,NA,NA,NA,NA,NA,NA,NA,NA,NA,NA,NA,NA,NA,NA,NA,NA,NA,NA,NA,NA,NA,NA,NA,NA,NA,NA,NA,NA,NA,NA,NA,1505,"DG_s08",57,57.672,58.219,58.235,10,10,13,1,0.547,"Left",13,1,12,0,12,0,-12,12,"10-10",-3,9,10,13,10,1
"353",21,"POL LAM8-Ref-POL LAM9-Ref",NA,NA,NA,NA,NA,NA,NA,NA,NA,NA,NA,NA,NA,NA,NA,NA,NA,NA,NA,NA,NA,NA,NA,NA,NA,NA,NA,NA,NA,NA,NA,NA,NA,NA,NA,NA,NA,NA,NA,NA,NA,NA,1505,"DG_s08",57,57.672,58.219,58.235,10,10,13,1,0.547,"Left",13,1,12,0,12,0,-12,12,"10-10",-3,9,10,13,10,1
"354",21,"POL LIN2-Ref-POL LIN3-Ref",NA,NA,NA,NA,NA,NA,NA,NA,NA,NA,NA,NA,NA,NA,NA,NA,NA,NA,NA,NA,NA,NA,NA,NA,NA,NA,NA,NA,NA,NA,NA,NA,NA,NA,NA,NA,NA,NA,NA,NA,NA,NA,1505,"DG_s08",57,57.672,58.219,58.235,10,10,13,1,0.547,"Left",13,1,12,0,12,0,-12,12,"10-10",-3,9,10,13,10,1
"355",21,"POL RIN9-Ref-POL RIN10-Ref",NA,NA,NA,NA,NA,NA,NA,NA,NA,NA,NA,NA,NA,NA,NA,NA,NA,NA,NA,NA,NA,NA,NA,NA,NA,NA,NA,NA,NA,NA,NA,NA,NA,NA,NA,NA,NA,NA,NA,NA,NA,NA,1505,"DG_s08",57,57.672,58.219,58.235,10,10,13,1,0.547,"Left",13,1,12,0,12,0,-12,12,"10-10",-3,9,10,13,10,1
"356",21,"POL RIN10-Ref-POL RIN11-Ref",NA,NA,NA,NA,NA,NA,NA,NA,NA,NA,NA,NA,NA,NA,NA,NA,NA,NA,NA,NA,NA,NA,NA,NA,NA,NA,NA,NA,NA,NA,NA,NA,NA,NA,NA,NA,NA,NA,NA,NA,NA,NA,1505,"DG_s08",57,57.672,58.219,58.235,10,10,13,1,0.547,"Left",13,1,12,0,12,0,-12,12,"10-10",-3,9,10,13,10,1
"357",21,"POL RAM8-Ref-POL RAM9-Ref",NA,NA,NA,NA,NA,NA,NA,NA,NA,NA,NA,NA,NA,NA,NA,NA,NA,NA,NA,NA,NA,NA,NA,NA,NA,NA,NA,NA,NA,NA,NA,NA,NA,NA,NA,NA,NA,NA,NA,NA,NA,NA,1505,"DG_s08",57,57.672,58.219,58.235,10,10,13,1,0.547,"Left",13,1,12,0,12,0,-12,12,"10-10",-3,9,10,13,10,1
"358",23,"POL LIN1-Ref-POL LIN2-Ref",NA,NA,NA,NA,NA,NA,NA,NA,NA,NA,NA,NA,NA,NA,NA,NA,NA,NA,NA,NA,NA,NA,NA,NA,NA,NA,NA,NA,NA,NA,NA,NA,NA,NA,NA,NA,NA,NA,NA,NA,NA,NA,1507,"DG_s08",62.907,63.579,64.469,64.469,10,10,6,11,0.89,"Right",6,11,5,0,5,5,0,-5,"10-10",4,-1,6,10,11,10
"359",23,"POL LIN10-Ref-POL LIN11-Ref",NA,NA,NA,NA,NA,NA,NA,NA,NA,NA,NA,NA,NA,NA,NA,NA,NA,NA,NA,NA,NA,NA,NA,NA,NA,NA,NA,NA,NA,NA,NA,NA,NA,NA,NA,NA,NA,NA,NA,NA,NA,NA,1507,"DG_s08",62.907,63.579,64.469,64.469,10,10,6,11,0.89,"Right",6,11,5,0,5,5,0,-5,"10-10",4,-1,6,10,11,10
"360",23,"POL LIN12-Ref-POL LIN13-Ref",NA,NA,NA,NA,NA,NA,NA,NA,NA,NA,NA,NA,NA,NA,NA,NA,NA,NA,NA,NA,NA,NA,NA,NA,NA,NA,NA,NA,NA,NA,NA,NA,NA,NA,NA,NA,NA,NA,NA,NA,NA,NA,1507,"DG_s08",62.907,63.579,64.469,64.469,10,10,6,11,0.89,"Right",6,11,5,0,5,5,0,-5,"10-10",4,-1,6,10,11,10
"361",23,"POL RIN12-Ref-POL RIN13-Ref",NA,NA,NA,NA,NA,NA,NA,NA,NA,NA,NA,NA,NA,NA,NA,NA,NA,NA,NA,NA,NA,NA,NA,NA,NA,NA,NA,NA,NA,NA,NA,NA,NA,NA,NA,NA,NA,NA,NA,NA,NA,NA,1507,"DG_s08",62.907,63.579,64.469,64.469,10,10,6,11,0.89,"Right",6,11,5,0,5,5,0,-5,"10-10",4,-1,6,10,11,10
"362",23,"POL LIN2-Ref-POL LIN3-Ref",NA,NA,NA,NA,NA,NA,NA,NA,NA,NA,NA,NA,NA,NA,NA,NA,NA,NA,NA,NA,NA,NA,NA,NA,NA,NA,NA,NA,NA,NA,NA,NA,NA,NA,NA,NA,NA,NA,NA,NA,NA,NA,1507,"DG_s08",62.907,63.579,64.469,64.469,10,10,6,11,0.89,"Right",6,11,5,0,5,5,0,-5,"10-10",4,-1,6,10,11,10
"363",23,"POL RIN4-Ref-POL RIN5-Ref",NA,NA,NA,NA,NA,NA,NA,NA,NA,NA,NA,NA,NA,NA,NA,NA,NA,NA,NA,NA,NA,NA,NA,NA,NA,NA,NA,NA,NA,NA,NA,NA,NA,NA,NA,NA,NA,NA,NA,NA,NA,NA,1507,"DG_s08",62.907,63.579,64.469,64.469,10,10,6,11,0.89,"Right",6,11,5,0,5,5,0,-5,"10-10",4,-1,6,10,11,10
"364",23,"POL RIN3-Ref-POL RIN4-Ref",NA,NA,NA,NA,NA,NA,NA,NA,NA,NA,NA,NA,NA,NA,NA,NA,NA,NA,NA,NA,NA,NA,NA,NA,NA,NA,NA,NA,NA,NA,NA,NA,NA,NA,NA,NA,NA,NA,NA,NA,NA,NA,1507,"DG_s08",62.907,63.579,64.469,64.469,10,10,6,11,0.89,"Right",6,11,5,0,5,5,0,-5,"10-10",4,-1,6,10,11,10
"365",23,"POL RIN5-Ref-POL RIN6-Ref",NA,NA,NA,NA,NA,NA,NA,NA,NA,NA,NA,NA,NA,NA,NA,NA,NA,NA,NA,NA,NA,NA,NA,NA,NA,NA,NA,NA,NA,NA,NA,NA,NA,NA,NA,NA,NA,NA,NA,NA,NA,NA,1507,"DG_s08",62.907,63.579,64.469,64.469,10,10,6,11,0.89,"Right",6,11,5,0,5,5,0,-5,"10-10",4,-1,6,10,11,10
