"","trial","electrodes","bin_1","bin_2","bin_3","bin_4","bin_5","bin_6","bin_7","bin_8","bin_9","bin_10","bin_11","bin_12","bin_13","bin_14","bin_15","bin_16","bin_17","bin_18","bin_19","bin_20","bin_21","bin_22","bin_23","bin_24","bin_25","bin_26","bin_27","bin_28","bin_29","bin_30","bin_31","bin_32","bin_33","bin_34","bin_35","bin_36","bin_37","bin_38","X","SID","newround_time","choice_time","buttonpress_time","reveal_time","self_payoff","other_payoff","self_foregone","other_foregone","RT","side_chosen","self_var_payoff","other_var_payoff","ineq_var_abs","ineq_choice_abs","ineq_foregone_abs","ineq_disadvent","ineq_advent","ineq_choice","chose_equality","self_diff","other_diff","L_self","R_self","L_other","R_other"
"1",1,"POL RIN12-Ref-POL RIN13-Ref",-0.179388114,-0.16930925,0.0354881966666667,0.135553590666667,0.238382281333333,0.077120968,0.060041728,-0.107869062666667,-0.0796206173333333,-0.153009189333333,-0.0825253023666667,-0.116961898366667,-0.176622555033333,-0.143167287333333,-0.134558327333333,-0.00864155160000001,-0.0716555796,0.0635944497333333,0.0830152446666667,0.195939918666667,0.149021680666667,0.234509392,0.0694547166666667,0.207648769333333,0.117014426,0.219045820666667,0.140274648,0.0506167626666667,0.003537136,-0.040365968,0.0738709906666667,0.148013097333333,0.0934062873333333,0.00620023066666667,-0.0296834026666667,-0.0885491293333333,-0.037919556,-0.136840097666667,1485,"DG_s08",-0.671,0,1.25,1.266,10,10,10,18,1.25,"Left",10,18,8,0,8,8,0,-8,"10-10",0,-8,10,10,10,18
"2",1,"POL LIN11-Ref-POL LIN12-Ref",-0.28239555785,-0.321066229183333,-0.299590460716667,-0.225453058716667,-0.303271456716667,-0.358019239183333,-0.356278432716667,-0.290472744583333,-0.26600435525,-0.258473174383333,-0.18973663585,-0.27866900185,-0.0992529311833333,-0.127304013183333,0.05105291815,-0.0924969351833333,-0.0761475065166667,-0.07939941225,-0.0401334309166667,-0.0783092795833333,-0.125069734516667,-0.00315090385,0.04028225535,0.00364766001666667,-0.0968684519833333,-0.0422383491833333,0.0165721228166667,0.0700727834833333,0.0509515168166667,0.09408961815,0.01377064415,0.01213356015,-0.05613404185,-0.0204965551833333,-0.0463191111833333,-0.0359853731833333,-0.109083350516667,-0.131267390516667,1485,"DG_s08",-0.671,0,1.25,1.266,10,10,10,18,1.25,"Left",10,18,8,0,8,8,0,-8,"10-10",0,-8,10,10,10,18
"3",1,"POL RAM8-Ref-POL RAM9-Ref",-0.421657938666667,-0.451654493333333,-0.39579165,-0.337102637333333,-0.325141389333333,-0.326323107466667,-0.293571098133333,-0.287231384133333,-0.234077517333333,-0.210807315333333,-0.121370057333333,-0.143752876,-0.128024395333333,-0.257557767333333,-0.237023201333333,-0.315833996,-0.235729128,-0.207979837333333,-0.186525864666667,-0.0885518926666667,-0.109537034666667,-0.0532295473333333,-0.134226167333333,-0.157581434666667,-0.130977832,-0.0994272953333333,-0.10230315,-0.06659438,-0.05918037,-0.0537677626666667,-0.0666902986666666,-0.147318472,-0.143860078666667,-0.291556365333333,-0.220777656,-0.205003144666667,-0.0918710726666667,-0.136836853333333,1485,"DG_s08",-0.671,0,1.25,1.266,10,10,10,18,1.25,"Left",10,18,8,0,8,8,0,-8,"10-10",0,-8,10,10,10,18
"4",1,"POL LIN10-Ref-POL LIN11-Ref",0.03909488025,0.146551299583333,0.07153094425,0.11778511085,-0.0801697544833333,-0.10111553915,-0.122206137083333,-0.0978483610833333,-0.181709221083333,-0.25298469775,-0.202929523616667,-0.173097090283333,-0.03627422095,-0.0651950570833333,0.0268841429166667,-0.0267765624166667,0.02881975625,0.0125448469166667,0.03805005425,-0.0162387944166667,-0.0358042510833333,0.01316527825,0.114520287583333,0.21290732025,0.34644334625,0.330546099583333,0.25423616625,0.286250899583333,0.24255934225,0.286774713583333,0.12321597625,0.207988701916667,0.179413114583333,0.265047854583333,0.229303672916667,0.25879413425,0.116425951583333,0.122091144916667,1485,"DG_s08",-0.671,0,1.25,1.266,10,10,10,18,1.25,"Left",10,18,8,0,8,8,0,-8,"10-10",0,-8,10,10,10,18
"5",1,"POL RIN3-Ref-POL RIN4-Ref",-0.2728358915,-0.258091580833333,-0.290009322166667,-0.269918668166667,-0.4070810255,-0.345814008833333,-0.2889566175,-0.243939914833333,-0.2339014235,-0.2435529575,-0.2276957715,-0.241102960966667,-0.2510545483,-0.294630656966667,-0.438261572166667,-0.487026102166667,-0.437610758166667,-0.2671303295,-0.1011908495,-0.105867322833333,-0.0618685981666666,-0.153054498166667,-0.218285906166667,-0.3452818495,-0.324691004966667,-0.241973552966667,-0.175912880966667,-0.0443534988333333,-0.0138630928333333,-0.0264962928333333,-0.1900905195,-0.178041944166667,-0.0247904861666666,-0.0284264855,-0.0345088241666666,-0.2428829075,-0.157054574833333,-0.215648460833333,1485,"DG_s08",-0.671,0,1.25,1.266,10,10,10,18,1.25,"Left",10,18,8,0,8,8,0,-8,"10-10",0,-8,10,10,10,18
"6",1,"POL RIN2-Ref-POL RIN3-Ref",-0.0535538166,-0.1344412266,-0.0973633659333333,0.0321493834,-0.00235875466666667,0.0479431686666667,-0.00169812466666667,0.0163195324666667,0.0704055258,0.00744607646666667,0.0635229273333333,0.0121048524,0.113983765733333,0.138395703733333,0.0738567273333333,0.127801387333333,0.0638262993333333,0.219467852666667,0.166134764666667,0.167076414666667,0.0264696286666667,-0.0029004,-0.00711043333333333,0.15672512,0.191034258,0.208408611333333,0.156610287866667,0.181258926533333,0.166695536533333,0.15441307,0.049526736,0.0644489053333333,-0.0230788713333333,0.016194908,0.186273068666667,0.270922748666667,0.308017122,0.154693355333333,1485,"DG_s08",-0.671,0,1.25,1.266,10,10,10,18,1.25,"Left",10,18,8,0,8,8,0,-8,"10-10",0,-8,10,10,10,18
"7",1,"POL LIN1-Ref-POL LIN2-Ref",0.0569589148333333,0.120657348166667,0.0609358955,0.0820953995666667,-0.0218570951,0.1040983069,0.120785106166667,0.224655274166667,0.214410412166667,0.285147314833333,0.3010341635,0.1899673035,0.1689615875,0.142624240833333,0.169837031633333,0.0743659269666667,-0.0461048750333333,-0.1082071303,-0.0687521883,0.108778475033333,0.142824976833333,0.352537404166667,0.363675860833333,0.3620713795,0.1025508395,-0.0475935871666667,-0.100600949833333,-0.102328869166667,-0.0779052158333333,0.0280094628333333,0.0419627461666667,0.0379253461666667,-0.0411852925,-0.0762959565,0.102333630166667,0.227808134166667,0.381067559833333,0.279217773166667,1485,"DG_s08",-0.671,0,1.25,1.266,10,10,10,18,1.25,"Left",10,18,8,0,8,8,0,-8,"10-10",0,-8,10,10,10,18
"8",1,"POL RIN9-Ref-POL RIN10-Ref",-0.2401781639,-0.286508915433333,-0.287053677433333,-0.2585022953,-0.199600482633333,-0.1964170713,-0.253988088366667,-0.359010798366667,-0.332472743033333,-0.2716130257,-0.1232272157,-0.1641777837,-0.156188267033333,-0.2837942857,-0.113224215033333,-0.0403548177,-0.0584092057,-0.216991443033333,-0.226694661033333,-0.1040001757,0.118942021633333,0.170788951033333,0.0799800017,-0.0633555723666667,-0.137629010433333,-0.105296771766667,-0.271443491033333,-0.4129626357,-0.462069502366667,-0.440095469033333,-0.2873483157,-0.291015382966667,-0.245170226966667,-0.312115061633333,-0.325736900366667,-0.300852499033333,-0.251696004366667,-0.159540180566667,1485,"DG_s08",-0.671,0,1.25,1.266,10,10,10,18,1.25,"Left",10,18,8,0,8,8,0,-8,"10-10",0,-8,10,10,10,18
"9",1,"POL LIN2-Ref-POL LIN3-Ref",0.0342417024166667,0.05404921575,0.0374573904166667,0.000185135083333333,0.0375378724166667,0.00490558441666667,0.0704570210833333,0.0826614604166667,0.10320008575,0.05976496375,0.148010084416667,0.154025354416667,0.25865412575,0.273279177083333,0.17837730175,0.0568273830833333,-0.07396061225,-0.107440798916667,-0.0509109215833333,0.0810587050833333,0.108618245083333,0.179707584416667,-0.0244940955833333,0.00872388775,-0.0995501675833333,0.06055864695,0.06628148895,0.136590842283333,0.0705411964166667,0.167105050416667,0.17538278975,0.205283081083333,0.137209915083333,0.0416951142833333,0.0448521456166667,0.0714727436166667,0.14604363775,0.106516819083333,1485,"DG_s08",-0.671,0,1.25,1.266,10,10,10,18,1.25,"Left",10,18,8,0,8,8,0,-8,"10-10",0,-8,10,10,10,18
"10",1,"POL LIN3-Ref-POL LIN4-Ref",-0.0820752463333333,-0.0597079556666667,-0.0533513830666667,-0.0458458870666667,-0.0110303770666667,0.0376567425333333,0.00489430853333333,-0.0333127341333333,-0.0793116195333333,-0.0288371655333333,0.0215441344666667,0.00441356246666667,0.0507456244666667,0.0948881558,0.0313312032,-0.0789719188,-0.166353819066667,-0.170191053733333,-0.0992936990666667,-0.0375399948,0.0582088198666667,-0.0387972881333333,-0.0970416248,-0.124738678266667,0.0100213477333333,0.0852404010666667,0.166892973866667,0.1369948452,0.126579770533333,0.0928549245333333,0.0684407952,0.0489282445333333,0.0231163792,-0.0137653641333333,0.0146587945333333,0.0236075865333333,0.1265487312,0.0322104238666667,1485,"DG_s08",-0.671,0,1.25,1.266,10,10,10,18,1.25,"Left",10,18,8,0,8,8,0,-8,"10-10",0,-8,10,10,10,18
"11",1,"POL RIN11-Ref-POL RIN12-Ref",-0.031038062,-0.0698610393333333,0.0201254426666667,-0.0879998666666667,-0.117403549333333,-0.258600677066667,-0.212030123733333,-0.1163812044,-0.0143783366666667,0.0500523087333333,-0.0301997912666667,-0.0581765412666667,-0.00104297733333333,0.00614885466666668,0.0667925486666667,0.014150602,-0.0936973213333333,-0.149425518953333,-0.0584003669533333,0.0413018917133333,0.114608156666667,0.065799516,-0.0575735713333333,-0.103329806,-0.223397674666667,-0.166532531933333,-0.2221187966,-0.102041175266667,-0.00860313466666666,0.00139072353333333,-0.0973227731333333,-0.106006096466667,-0.0833972933333333,-0.00932716513333333,0.130522314866667,0.170220517533333,0.196948906,-0.0220571413333333,1485,"DG_s08",-0.671,0,1.25,1.266,10,10,10,18,1.25,"Left",10,18,8,0,8,8,0,-8,"10-10",0,-8,10,10,10,18
"12",1,"POL LIN9-Ref-POL LIN10-Ref",0.056576058,0.0745224973333334,0.00978587266666667,-0.070353102,-0.0898412693333333,-0.105533054666667,-0.188394202733333,-0.203695768733333,-0.219568628733333,-0.041813652,-0.118060182666667,-0.142868812666667,-0.250280039333333,-0.181984555,-0.166537361666667,-0.252353337,-0.263158923333333,-0.259437021333333,-0.187267932,-0.1849320206,-0.143725921933333,-0.165308433933333,-0.002189406,0.009617406,0.0769697773333334,-0.121819389333333,-0.146524832666667,-0.124425143333333,-0.047290214,0.0207242473333333,-0.01412466,0.018082344,0.037093444,0.106254156,0.0368810426666667,0.047695112,-0.0325384946666667,0.175450692,1485,"DG_s08",-0.671,0,1.25,1.266,10,10,10,18,1.25,"Left",10,18,8,0,8,8,0,-8,"10-10",0,-8,10,10,10,18
"13",1,"POL RAM7-Ref-POL RAM8-Ref",-0.144534529866667,-0.126706990533333,-0.0350912272,-0.147400083666667,-0.249166529666667,-0.259320434333333,-0.054890081,0.0547581793333333,0.051015048,-0.083891772,-0.201750159,-0.189728213066667,-0.0545586777333333,0.0333125889333333,-0.032905571,-0.0482138675333333,-0.0697525635333333,0.000975050466666669,-0.0197468263333333,-0.000201240333333338,-0.0262823703333333,-0.111142359,-0.105103408333333,-0.115174952333333,-0.0842584712,-0.0680604061333333,-0.0719772928,0.0440555860666667,0.0752603016666667,0.129485577,0.032093817,0.0505881956666667,0.0365639936666667,0.043937181,0.0278263636666667,0.0283188398666667,0.0639439712,-0.0143795811333333,1485,"DG_s08",-0.671,0,1.25,1.266,10,10,10,18,1.25,"Left",10,18,8,0,8,8,0,-8,"10-10",0,-8,10,10,10,18
"14",1,"POL RIN4-Ref-POL RIN5-Ref",-0.0999230659333333,-0.128976387933333,-0.199243495266667,-0.2179797486,-0.246155081933333,-0.205179887266667,-0.130283348066667,-0.137941030066667,-0.1580810294,-0.166698757933333,0.0211314774,0.0517782747333333,0.0641031860666667,-0.120822891266667,-0.154581501933333,-0.160654255933333,-0.132397816666667,-0.146861542666667,-0.1091238394,-0.214125096666667,-0.111442550666667,-0.134815323266667,-0.106432939066667,-0.186828477733333,-0.264199185733333,-0.153691201266667,-0.1414724226,0.0541061667333333,0.102540046733333,0.1447674054,0.0952809987333333,-0.0660961659333333,-0.0419084039333333,-0.0854385412,-0.070775866,-0.132935222666667,-0.141232494733333,-0.1260634326,1485,"DG_s08",-0.671,0,1.25,1.266,10,10,10,18,1.25,"Left",10,18,8,0,8,8,0,-8,"10-10",0,-8,10,10,10,18
"15",1,"POL RIN10-Ref-POL RIN11-Ref",-0.154149604433333,-0.0250634817666667,0.202366152833333,0.256202473433333,0.0642097508333333,-0.134118749833333,-0.0890596407666667,0.0972350498333333,0.158538301166667,0.0736080118333333,-0.0429163321666667,-0.0903547188333333,-0.0836121188333333,-0.125609328166667,-0.0905306781666667,-0.0622142915,-0.0103671837666667,0.0622439801,0.0964388508333333,0.0491014364333333,-0.0144714681,-0.0495139028333333,0.0174381318333333,0.0593793185,0.0160772818333333,0.0898684338333333,0.0718072671666667,0.1601109945,0.134413521166667,-0.00883052550000001,-0.0679905148333333,-0.0980165682333333,-0.0018252949,-0.0355584325,-0.124376907766667,-0.151172309766667,-0.0756606035,-0.00911572816666667,1485,"DG_s08",-0.671,0,1.25,1.266,10,10,10,18,1.25,"Left",10,18,8,0,8,8,0,-8,"10-10",0,-8,10,10,10,18
"16",1,"POL LIN12-Ref-POL LIN13-Ref",-0.03080612,-0.174537846,-0.285533968666667,-0.2957833,-0.318249276666667,-0.2588870806,-0.299363119666667,-0.304782671,-0.3314452744,-0.272062048666667,-0.246992494666667,-0.168649694666667,-0.0832319213333333,-0.0487850013333334,-0.057282166,-0.025935366,0.0392710826666667,0.048858332,-0.158519893333333,-0.163450208733333,0.0244907539333333,0.160089545933333,0.102310899266667,0.0148704859333333,0.0391070859333333,0.151735066,0.173946879333333,0.0675275433333333,-0.0364644733333333,-0.112455153333333,-0.129882415333333,-0.277613618666667,-0.224077650666667,-0.198568690666667,-0.0999233213333333,-0.244986906,-0.251334782666667,-0.172039919333333,1485,"DG_s08",-0.671,0,1.25,1.266,10,10,10,18,1.25,"Left",10,18,8,0,8,8,0,-8,"10-10",0,-8,10,10,10,18
"17",1,"POL LIN4-Ref-POL LIN5-Ref",-0.187103934083333,-0.121427226083333,-0.0638197694166667,-0.01725209495,-0.0472004074166667,-0.213428162083333,-0.300233785416667,-0.32889870737,-0.14830200737,-0.163526040703333,-0.123035962283333,-0.27404679295,-0.24772498295,-0.235919086283333,-0.117993836283333,-0.034300620868,-0.149921076201333,-0.176516115534667,-0.174855118283333,0.0346527683833333,0.0210482537166667,0.0303498937166667,0.0867647883833333,0.143995025716667,0.07634229425,-0.114515067083333,-0.24127364975,-0.260563714283333,-0.204510912883333,-0.00394001954999999,0.06375227645,0.15202235285,-0.04322850315,-0.04883588315,-0.247702047616667,-0.08718052495,0.00572325905,0.0507561423833333,1485,"DG_s08",-0.671,0,1.25,1.266,10,10,10,18,1.25,"Left",10,18,8,0,8,8,0,-8,"10-10",0,-8,10,10,10,18
"18",1,"POL LAM9-Ref-POL LAM10-Ref",-0.2647454396,-0.189299482666667,-0.172589271333333,-0.141122954666667,-0.216558376,-0.204548670626667,-0.0185271006266667,0.215679955373333,0.160201589333333,0.0136856190666667,-0.165004924266667,-0.0582199142666667,-0.102716409333333,0.010854054,-0.0644372786666667,-0.110467152666667,-0.196402613333333,-0.0773630053333333,-0.0733000766666667,-0.130185046,-0.22425396,-0.202154615866667,-0.1190946732,-0.0285193845333333,-0.016862856,-0.145651582,-0.22529194,-0.145954898,0.0740773353333333,0.166317346666667,0.117906324466667,0.0182214044666667,0.00200374446666668,-0.00176113866666666,-0.036097296,-0.0620442406666667,-0.112946706,-0.0881380486666667,1485,"DG_s08",-0.671,0,1.25,1.266,10,10,10,18,1.25,"Left",10,18,8,0,8,8,0,-8,"10-10",0,-8,10,10,10,18
"19",1,"POL LAM8-Ref-POL LAM9-Ref",-0.101790199,0.00282133433333333,0.0933510776666667,0.166706403666667,0.167918850333333,0.188219150333333,0.116899137,0.0720872703333333,-0.064243501,-0.115142449666667,-0.234641904333333,-0.130024765466667,-0.137367321466667,-0.0517045608,-0.114050371666667,-0.172251493666667,-0.167598813,-0.00293354300000001,0.0490468874,-0.00948842726666667,0.0194057727333333,0.0548378103333333,0.120826477,-0.097193243,-0.115156491666667,-0.180794843666667,-0.1877134036,-0.2049833176,-0.0518988376,-0.034597777,-0.073867107,-0.172624140333333,-0.0867334743333333,0.0646278356666667,0.051259149,0.0773464143333333,0.023394561,0.091544341,1485,"DG_s08",-0.671,0,1.25,1.266,10,10,10,18,1.25,"Left",10,18,8,0,8,8,0,-8,"10-10",0,-8,10,10,10,18
"20",1,"POL RIN1-Ref-POL RIN2-Ref",0.12385873375,0.0528625164166667,0.00738405175,0.0789967564166667,0.189361363083333,0.183293701083333,0.120880281083333,0.0674842610833333,0.0618783382833333,0.08166864495,0.24263892495,0.299249235683333,0.247992591683333,0.123912435483333,0.110929578226667,0.108137366226667,0.0692705044266667,0.26026845375,0.303769220416667,0.327739585083333,0.0986447410833333,0.0935845070833333,0.0889936050833333,0.147506385083333,0.09481463975,0.105268496416667,0.0526697570833333,0.11886583595,0.07855760795,0.140226291283333,0.112010017083333,0.0712959170833333,-0.0531028955833333,-0.08977957025,-0.0334784595833333,0.0840530404166667,0.01991166575,0.006875006462,1485,"DG_s08",-0.671,0,1.25,1.266,10,10,10,18,1.25,"Left",10,18,8,0,8,8,0,-8,"10-10",0,-8,10,10,10,18
"21",1,"POL RIN5-Ref-POL RIN6-Ref",0.211157716116667,0.08336280945,0.10805967345,-0.000492369883333333,-0.0249631318833333,-0.0743524738833333,-0.105988313216667,-0.133036231216667,-0.145370295883333,-0.0308086492166667,0.0875817441166667,0.0930315003166667,0.000269160983333332,-0.14992790835,-0.147616523216667,-0.172766875883333,-0.103532917216667,-0.12947049855,-0.13700506655,-0.18665856255,-0.18190361255,-0.216702265883333,-0.190935645216667,-0.183114227883333,-0.0627126278833333,-0.0253895912166667,-0.00415543988333333,0.0262508641166667,-0.0438466638833333,-0.0742035018833333,-0.174510425883333,-0.11637855455,0.00510021545,0.09121948945,0.0409576087833333,-0.06471855855,-0.0515677258833333,-0.02222751255,1485,"DG_s08",-0.671,0,1.25,1.266,10,10,10,18,1.25,"Left",10,18,8,0,8,8,0,-8,"10-10",0,-8,10,10,10,18
"22",2,"POL RIN5-Ref-POL RIN6-Ref",-0.0587583546166667,-0.0173461812833333,0.0157012527166667,-0.0252576292833333,-0.118729204616667,-0.144545432616667,-0.175945661283333,-0.0433502095966667,-0.0163329922633333,-0.0580213595966667,-0.141676472616667,-0.166298095283333,-0.14526545195,-0.192637293283333,-0.21211857195,-0.0864298172833333,0.0187853707166667,0.0627620033833333,-0.0412639026166667,-0.0727638632833333,-0.113576786616667,-0.212950607283333,-0.231678121283333,-0.154707629283333,-0.0320699752833333,0.00854133271666667,-0.0189610592833333,-0.0329866792833333,-0.07930354395,-0.0249547552833333,-0.101328035283333,-0.0623711666166667,-0.0494977786166667,-0.0525640914166667,-0.0533941700833333,-0.114099117416667,-0.119780625283333,-0.151497837283333,1486,"DG_s08",2.266,2.938,4.079,4.079,10,10,12,12,1.141,"Right",12,12,0,0,0,0,0,0,"10-10",-2,-2,12,10,12,10
"23",2,"POL RIN1-Ref-POL RIN2-Ref",-0.106988364666667,-0.211333472,-0.26270098,-0.1715101004,-0.0081493112,0.161568202133333,0.0634448625333333,-0.0124070246666667,-0.106199004,-0.0372214680666667,0.00538661193333334,0.0096243216,-0.0116780056666667,0.0160582036666667,-0.0411693413333333,-0.038789508,-0.108574050666667,-0.123570694,-0.092595898,-0.09865398,0.0341900726666667,-0.0442636453333333,-0.00797703713333333,-0.0221716651333333,0.0143915430666667,-0.0391926828,-0.139571843333333,-0.0894734062,-0.0201725545333333,-0.0115136406666667,0.160195487333333,0.0802379,0.106062476866667,-0.0401421791333333,0.10521340724,0.05533510524,-0.0335562120933333,-0.0691281011333333,1486,"DG_s08",2.266,2.938,4.079,4.079,10,10,12,12,1.141,"Right",12,12,0,0,0,0,0,0,"10-10",-2,-2,12,10,12,10
"24",2,"POL LAM8-Ref-POL LAM9-Ref",-0.009023131,-0.0247288156666667,-0.044789449,0.0280612376666667,0.038687675,0.0511930283333333,-0.0306612516666667,0.000386162999999995,0.0942148623333333,0.165036189666667,0.109013574333333,0.017755269,-0.025422625,-0.00256350473333333,0.0255376912666667,0.0623058512666667,0.115558733,0.172166266333333,0.180184067666667,0.0567682056666667,0.0795256302,0.0361530702,0.146619643533333,0.158825315,0.106277647,0.085750833,0.0341044175,0.113841838833333,0.133959066166667,0.215713303666667,0.257685475666667,0.237141290333333,0.148734022333333,0.141763045666667,0.117516513666667,0.191937513666667,0.149200675,0.235788973,1486,"DG_s08",2.266,2.938,4.079,4.079,10,10,12,12,1.141,"Right",12,12,0,0,0,0,0,0,"10-10",-2,-2,12,10,12,10
"25",2,"POL RIN12-Ref-POL RIN13-Ref",-0.0401340121833333,-0.0387307735166667,-0.05967948085,-0.05818136685,-0.06515153085,0.00556836115000001,-0.08344694045,-0.110169475116667,-0.15197229845,-0.0924031541833333,-0.164240052983333,-0.18564885165,-0.208859304316667,-0.16685129665,-0.22522164265,-0.148454971983333,0.0150575144833333,0.07159533915,0.0186468132833333,-0.0874749153833333,0.0723145332833333,0.143768681816667,0.0757166598166667,-0.110168201516667,-0.196564869583333,-0.208167298783333,-0.19927518945,-0.12530076805,-0.05457491685,0.0343274898166667,-0.0262699901833333,-0.03836264285,-0.0623969761833333,-0.01146955685,-0.0262166435166667,-0.0623819780033333,-0.173893362003333,-0.216030607003333,1486,"DG_s08",2.266,2.938,4.079,4.079,10,10,12,12,1.141,"Right",12,12,0,0,0,0,0,0,"10-10",-2,-2,12,10,12,10
"26",2,"POL LIN2-Ref-POL LIN3-Ref",0.0019780575,-0.0270880225,-0.0686430358333333,-0.0984927413666667,-0.0632839814,-0.0405040486666667,-0.0430902998,-0.0235216371,0.02708426322,0.121459618553333,0.111145862553333,0.1070624855,0.0358749655,0.0099245055,0.0133557761666667,-0.0599357551666667,-0.110531931166667,-0.207311057833333,-0.1452781645,-0.1867955945,-0.201031887833333,-0.2047875045,-0.143158660566667,-0.0710998152333333,-0.1290603719,-0.117721559833333,-0.235103205166667,-0.323938931833333,-0.308107589573333,-0.0789357095733333,0.0262927904266667,0.0660159621666667,0.0156115767,-0.0246277813,-0.0725422119666667,-0.145877946166667,-0.0726764995,-0.0913231741666667,1486,"DG_s08",2.266,2.938,4.079,4.079,10,10,12,12,1.141,"Right",12,12,0,0,0,0,0,0,"10-10",-2,-2,12,10,12,10
"27",2,"POL LIN12-Ref-POL LIN13-Ref",-0.176796496666667,-0.234466372666667,-0.370144218666667,-0.332720665066667,-0.2650493624,0.0518767599333333,0.142063035666667,0.188701951,-0.0261545553333333,0.00453736013333333,-0.0886845012,-0.0836998944,-0.0784820532,-0.0490684938666667,0.0655473166666666,-0.015516926,-0.0257784313333334,-0.225171169333333,-0.2879857206,-0.3125480126,-0.250992442733333,-0.223141402133333,-0.2379938848,-0.2036949922,-0.2238406302,-0.217514448866667,-0.288640513333333,-0.262490124666667,-0.291585285333333,-0.252175274,-0.328588438,-0.278921569333333,-0.296706474,-0.283822619466667,-0.3011106888,-0.275940737466667,-0.199693017333333,-0.169816243333333,1486,"DG_s08",2.266,2.938,4.079,4.079,10,10,12,12,1.141,"Right",12,12,0,0,0,0,0,0,"10-10",-2,-2,12,10,12,10
"28",2,"POL RIN3-Ref-POL RIN4-Ref",0.153884780083333,0.185268166483333,0.183756960483333,0.19069400115,0.134683847816667,0.122857486683333,0.02752675335,0.0297360666833333,0.04851080315,0.0270330384833333,0.01213090915,-0.00834273551666667,0.05592940915,0.124669019816667,0.0927825038166667,0.0850605038166667,0.0108923124166667,0.0106462530833333,-0.0825927735833333,-0.07856194285,0.00709495248333333,0.194951365816667,0.153788549816667,0.0979519078166667,-0.06141921485,0.10249365115,0.147755425816667,0.197445775816667,0.0720928524833333,0.00115688848333333,0.01239330315,0.0935349904833333,0.249240877816667,0.281847378683333,0.34363146535,0.22734797935,0.154378969956667,0.0582160366233333,1486,"DG_s08",2.266,2.938,4.079,4.079,10,10,12,12,1.141,"Right",12,12,0,0,0,0,0,0,"10-10",-2,-2,12,10,12,10
"29",2,"POL LAM9-Ref-POL LAM10-Ref",-0.160528143666667,-0.150421457,-0.201557325,-0.141809561,-0.115341410333333,-0.0286996236666667,-0.0802630463333333,-0.0643721123333333,-0.115131447666667,-0.151746391,-0.270731185666667,-0.209168337,-0.157178214333333,-0.0674691543333333,-0.003853545,-0.0538407563333333,2.32543333333335e-05,-0.0520179183333333,0.0102358783333333,-0.0493164196666667,-0.0243592896666667,-0.0567006056666667,0.00485822033333333,0.018141961,0.0307931996666667,-0.067153585,-0.226332125666667,-0.303741377666667,-0.285408040333333,-0.181969796933333,-0.0278373769333333,0.0427831664,0.0810001618,0.0903649351333333,-1.30215333333378e-05,-0.00699895366666666,-0.0464495696666667,0.0851152783333333,1486,"DG_s08",2.266,2.938,4.079,4.079,10,10,12,12,1.141,"Right",12,12,0,0,0,0,0,0,"10-10",-2,-2,12,10,12,10
"30",2,"POL LIN11-Ref-POL LIN12-Ref",0.0647765988333333,-0.0292311405,-0.0613225678333333,-0.0899433211666667,0.0624450455,0.135947238833333,0.0891704113666667,0.0190968359,-0.0443913374333333,0.0840412533066667,0.12769620944,0.06394304004,-0.0466449125666667,-0.1434097319,-0.0117932285,-0.0324016555666667,-0.0488040682333333,-0.1299287929,-0.105991641166667,-0.177724765833333,-0.224664141833333,-0.216216513833333,-0.1175894825,-0.0670957425,0.00478045683333334,0.0565721935,-0.0205626598333333,-0.196170943166667,-0.2214298525,-0.1246905045,0.0147793208333333,-0.00643242183333333,-0.00930887916666667,-0.0905090618333333,-0.0866718078333333,-0.0868771045,-0.0486218405,-0.0474351571666667,1486,"DG_s08",2.266,2.938,4.079,4.079,10,10,12,12,1.141,"Right",12,12,0,0,0,0,0,0,"10-10",-2,-2,12,10,12,10
"31",2,"POL RAM7-Ref-POL RAM8-Ref",0.00708148053333333,0.1241365792,0.0667673305333333,0.123917372533333,-0.0676347728,-0.0259272974666667,-0.00946506946666667,0.0734338438666667,0.0918343752,0.0540445938666667,0.0728968212,-0.0680158301333333,0.0300914952,0.0283214838666667,0.0361864978,-0.0239120136,-0.0654498229333333,-0.0446581148666667,0.0108137405333333,0.0737568648666667,0.180607743533333,0.134949529533333,0.0835485772,0.0811710672,0.195784096533333,0.153246142533333,0.1130452292,0.0109927272,0.0886638225333333,0.158560215866667,0.156317213493333,0.0998300534933333,0.0905215268266667,0.1530731132,0.355918230533333,0.2815578172,0.264553599866667,0.138218322533333,1486,"DG_s08",2.266,2.938,4.079,4.079,10,10,12,12,1.141,"Right",12,12,0,0,0,0,0,0,"10-10",-2,-2,12,10,12,10
"32",2,"POL LIN3-Ref-POL LIN4-Ref",0.265385007333333,0.117771268,-0.0784114553333333,-0.148282910666667,0.0204116553333333,0.0988604093333333,0.134233434666667,0.0446896906666667,-0.019194182,0.067474784,-0.0048286554,-0.0125895867333333,-0.1724925934,-0.05177682,-0.0402706973333333,-0.051579714,-0.1110231428,-0.100273309466667,-0.0479308288,-0.067797912,-0.0586611093333333,-0.0993100466666667,-0.0820216595133333,-0.100551608246667,-0.0475630601133333,-0.0994053319333333,-0.0109249538666667,-0.0992410153333333,-0.0648117133333333,-0.065203328,0.00132575466666666,0.0341387962666667,-0.0165791850666667,-0.0398678517333333,-0.00281832466666667,0.042507802,0.0840453726666667,0.0834253686666667,1486,"DG_s08",2.266,2.938,4.079,4.079,10,10,12,12,1.141,"Right",12,12,0,0,0,0,0,0,"10-10",-2,-2,12,10,12,10
"33",2,"POL LIN1-Ref-POL LIN2-Ref",0.0286696912333333,0.0499436885666667,-0.0555926547666667,-0.0340432163666667,-0.0356258030333333,0.00481483163333333,0.109098366566667,-0.000347829433333334,0.0957895992333333,-0.0823126474333333,0.0642841119666667,0.0110437179666667,0.165300164633333,0.0745440979666667,0.115696101966667,0.0492692103,-0.0329729326333333,-0.133637813966667,-0.189416455633333,-0.177269002766667,-0.124204812766667,-0.134147120366667,-0.103058929033333,-0.1489448489,-0.1111420833,-0.121703807966667,-0.105208983433333,-0.0793700881,0.0480355319,0.0490808339,0.0683553605666667,0.00256658256666667,0.0679724485666667,-0.0102496914333333,-0.121599369433333,-0.219067843433333,-0.141792117433333,-0.00857683476666667,1486,"DG_s08",2.266,2.938,4.079,4.079,10,10,12,12,1.141,"Right",12,12,0,0,0,0,0,0,"10-10",-2,-2,12,10,12,10
"34",2,"POL LIN10-Ref-POL LIN11-Ref",-0.171623145666667,-0.162067725666667,-0.114407445666667,-0.193895203666667,-0.0969576076666667,0.024874159,0.0725026463333333,0.0711797143333333,-0.151092509,-0.0914656956666667,-0.183209665,-0.083257113,-0.127350960333333,-0.144592782134,-0.0318421494673334,0.040211001866,0.027167813,-0.139974982333333,-0.155047966333333,-0.112380372333333,-0.052438005,-0.105388205133333,-0.0524585964666667,-0.0587589351333333,0.090235887,0.120592107,0.0854752883333333,-0.1001886794,-0.1245045474,-0.1233864834,-0.0780077023333333,-0.126352321,-0.103098747666667,-0.165050400333333,-0.249132433666667,-0.285562973666667,-0.222561291666667,-0.176631279666667,1486,"DG_s08",2.266,2.938,4.079,4.079,10,10,12,12,1.141,"Right",12,12,0,0,0,0,0,0,"10-10",-2,-2,12,10,12,10
"35",2,"POL RIN4-Ref-POL RIN5-Ref",-0.0028182593,-0.0340623748333333,-0.0420730688333333,-0.0887103754333333,-0.1053387219,-0.1449671039,-0.0575786241666667,-0.0713410635,-0.0927097648333333,-0.252099278166667,-0.302315006166667,-0.247085774166667,-0.143483348833333,-0.0784006335,-0.160970620833333,-0.110412968166667,-0.0613079855,-0.0473936288333333,-0.189994526833333,-0.2197466875,-0.1428971355,0.0136793348333333,0.0195248448333333,-0.0510474793666667,-0.135729363033333,-0.0511045117,-0.00596034349999999,0.0196097085,-0.122166054833333,-0.0173476215,-0.0642485248333333,0.123253079833333,0.107006579833333,0.1397848665,0.0885956078333333,-0.0521712781666667,-0.141949900166667,-0.271173928166667,1486,"DG_s08",2.266,2.938,4.079,4.079,10,10,12,12,1.141,"Right",12,12,0,0,0,0,0,0,"10-10",-2,-2,12,10,12,10
"36",2,"POL RAM8-Ref-POL RAM9-Ref",0.0854583961666667,0.324259558166667,0.3487732695,0.299245358366667,0.0969581403666667,0.0692943452013333,0.0898908710013333,0.109886653001333,0.0645048321666667,0.0325884201666667,0.116825606166667,0.108579887166667,0.0495209291666667,0.0619296585666667,0.0819379655666667,0.0955315575666667,0.0623402729666667,0.1074551103,0.2422502763,0.245383982166667,0.224535573033333,0.171916618366667,0.0840279530333333,0.0948625328333333,0.0794398908333333,0.0122885755,0.0419043375,0.0782110015,0.2470205515,0.1804909895,0.189391358166667,0.1740051403,0.318091148966667,0.453142786966667,0.491590188166667,0.555439188166667,0.580659588166667,0.5335855235,1486,"DG_s08",2.266,2.938,4.079,4.079,10,10,12,12,1.141,"Right",12,12,0,0,0,0,0,0,"10-10",-2,-2,12,10,12,10
"37",2,"POL RIN11-Ref-POL RIN12-Ref",-0.269647198533333,0.0580878681333333,0.169814388333333,0.189332961733333,0.0651731284,-0.121224658266667,-0.265997517666667,-0.268215184333333,-0.206830299666667,-0.129553997,-0.2098072858,-0.3053871178,-0.349910414466667,-0.392199799666667,-0.363537234333333,-0.348511994333333,-0.203259863666667,-0.246236750333333,-0.285937263666667,-0.261074153666667,-0.115459140333333,-0.0907272956666667,-0.227494549,-0.290098406333333,-0.256315845666667,-0.0948704723333333,-0.124619913,-0.115145900333333,-0.275464636266667,-0.311370312266667,-0.3362747636,-0.264480694333333,-0.238231745733333,-0.264529785733333,-0.3252170924,-0.223382473666667,-0.327357567,-0.397293019666667,1486,"DG_s08",2.266,2.938,4.079,4.079,10,10,12,12,1.141,"Right",12,12,0,0,0,0,0,0,"10-10",-2,-2,12,10,12,10
"38",2,"POL RIN10-Ref-POL RIN11-Ref",0.27765282325,0.139765538983333,0.11846815965,0.321515338983333,0.19550407525,0.00861062191666667,-0.0593074514166667,0.35446302325,0.624562652583333,0.55551363725,0.19239383725,-0.00829039008333333,-0.00805328128333333,0.16330105205,0.33511209005,0.265039424583333,0.173897027916667,0.0329867905833333,0.15707631925,0.0232138645833333,0.126210062583333,0.12545948525,0.314124431916667,0.189482726583333,0.10424813325,0.0874024699166667,0.0531875059166667,0.0983007719166667,-0.01584076255,-0.03033416215,-0.0545844764833333,-0.129491574016667,-0.07251008975,-0.140852346883333,0.00289888578333333,0.01571185245,0.0422723185833333,0.00784501325,1486,"DG_s08",2.266,2.938,4.079,4.079,10,10,12,12,1.141,"Right",12,12,0,0,0,0,0,0,"10-10",-2,-2,12,10,12,10
"39",2,"POL LIN9-Ref-POL LIN10-Ref",-0.285566864666667,-0.213687194,-0.1138776362,0.00828471246666668,0.0676506503333333,0.0983197725333333,0.0405049652,0.0318436566666667,-0.100799723333333,-0.0575771313333333,-0.0945358206666667,-0.101719770666667,-0.184258684,-0.254421361333333,-0.273686187466667,-0.328863395466667,-0.194687742133333,-0.1533492626,-0.105186263266667,-0.192246389933333,-0.217157246666667,-0.0578155233333333,0.0460947406666667,0.105584244,0.104383336,0.051878768,0.0124776613333333,-0.040064174,-0.015373842,-0.07746027,-0.1618001,-0.272478052666667,-0.284416221333333,-0.34224834,-0.349267490666667,-0.272593116666667,-0.224174516666667,-0.174082001066667,1486,"DG_s08",2.266,2.938,4.079,4.079,10,10,12,12,1.141,"Right",12,12,0,0,0,0,0,0,"10-10",-2,-2,12,10,12,10
"40",2,"POL LIN4-Ref-POL LIN5-Ref",0.101123573333333,0.113117988,0.193402702666667,0.018844198,-0.106493220666667,-0.164864648,-0.0648998273333333,0.022404132,-0.007893408,-0.061643876,-0.0572444773333333,-0.01440424,0.0163843558,-0.0347752882,-0.104589618866667,-0.163984606,-0.154983168,-0.104576974,-0.0530081913333333,0.0144818468,-0.0343595598666667,-0.0998863865333333,-0.23344611,-0.234139441333333,-0.291549884,-0.291424937333333,-0.34528089,-0.271576164666667,-0.0737109446666667,0.079245642,0.13544175,-0.026044492,-0.0445831453333333,-0.0335727313333333,0.0808133793333333,0.033079078,-0.0792171833333333,-0.0937348022,1486,"DG_s08",2.266,2.938,4.079,4.079,10,10,12,12,1.141,"Right",12,12,0,0,0,0,0,0,"10-10",-2,-2,12,10,12,10
"41",2,"POL RIN9-Ref-POL RIN10-Ref",0.295225883166667,0.196113745833333,0.0047980805,0.3239393325,0.332822025166667,0.4215589045,0.0772614551666667,0.162846557166667,0.228160905166667,0.192639627833333,0.100453741166667,0.00417050983333334,0.110514429833333,0.220189776033333,0.2886301067,0.179438486033333,-0.0435607215,-0.0834099228333333,0.107089857833333,0.197643379166667,0.0887780545,-0.0808687968333333,-0.1401556835,-0.1500368815,-0.0732068295,-0.1084936475,-0.0150779348333333,0.1097004445,0.133791408166667,0.0324338868333333,-0.0638974465,0.0545924345,0.0934632398333333,0.0270654631666667,0.0556296965,0.0686611845,0.0650160438333333,-0.0161725868333333,1486,"DG_s08",2.266,2.938,4.079,4.079,10,10,12,12,1.141,"Right",12,12,0,0,0,0,0,0,"10-10",-2,-2,12,10,12,10
"42",2,"POL RIN2-Ref-POL RIN3-Ref",-0.0675164837333333,-0.0659559522666667,0.0025555744,-0.168495496266667,-0.194163599733333,-0.2147678664,-0.19143903,-0.0429958262666667,0.0162448138,0.0478453746666667,-0.051273202,-0.0687505872,-0.064207197,-0.016949097,-0.0160896452,0.03496545,-0.0339093146666667,0.0244322866666667,0.059663134,0.148472456,0.129957900666667,0.00408837466666667,-0.087514026,-0.150913742666667,-0.068696312,-0.0101531566666667,0.110341540666667,-0.0172186446666667,-0.000750004666666665,-0.0611034286666667,0.0258871393333333,-0.0142478191333333,-0.0334874244666667,-0.0217660244666667,0.0217791993333333,0.0756688386666667,0.02493697726,0.01623020526,1486,"DG_s08",2.266,2.938,4.079,4.079,10,10,12,12,1.141,"Right",12,12,0,0,0,0,0,0,"10-10",-2,-2,12,10,12,10
"43",3,"POL RIN10-Ref-POL RIN11-Ref",0.110583299833333,0.1701050585,0.0893507165,0.234266591166667,0.238389659833333,0.182881515166667,0.0239250205,0.112422411833333,0.134526365166667,0.2713840623,0.179621921633333,0.1658067963,-0.00683447283333333,0.0544269411666667,0.0890139065,0.2864230665,0.3085989265,0.409178219833333,0.333625506586667,0.198589233253333,0.0820172765866667,0.248069989833333,0.371638107833333,0.437201637833333,0.2999632245,0.2570235865,0.255963179833333,0.182360747833333,0.0610743311666667,-0.0961139181666667,-0.0372144728333333,-0.0232397961666667,-0.0169554268333333,-0.00849905416666667,0.131341399833333,0.244342419833333,0.238538329833333,0.0560513718333333,1487,"DG_s08",5.094,5.766,7.047,7.047,10,10,8,8,1.281,"Left",8,8,0,0,0,0,0,0,"10-10",2,2,10,8,10,8
"44",3,"POL RIN4-Ref-POL RIN5-Ref",0.11431873,0.157333076666667,0.201137825333333,0.213759021333333,0.218631553333333,0.116757899333333,0.00319213733333333,-0.0734569573333334,0.0102832533333333,0.082748764,0.112453862666667,0.148051937333333,0.234621206,0.388039216666667,0.316035163333333,0.336353336666667,0.291989483333333,0.367920416666667,0.275481010666667,0.097444604,-0.027655786,-0.148584040666667,-0.184904502,-0.090519832,0.0266111673333333,0.12127954,0.04310742,-0.046199426,0.0528347826666667,0.137610082666667,0.125806660066667,-0.0054162266,-0.0232660399333333,0.008924706,0.0430741573333333,-0.020680725,-0.099523081,-0.123211840333333,1487,"DG_s08",5.094,5.766,7.047,7.047,10,10,8,8,1.281,"Left",8,8,0,0,0,0,0,0,"10-10",2,2,10,8,10,8
"45",3,"POL RIN2-Ref-POL RIN3-Ref",-0.05392229313,-0.00761920379666667,0.0167845280166667,0.0334862746833333,0.0266594526833333,0.0557656540166667,-0.02751443265,-0.0262333493166667,-0.09575675265,-0.152216979316667,-0.10486590065,-0.0485816213166667,-0.0121557679833333,-0.0619639793166667,-0.04653444665,-0.02598046665,-0.00170238731666666,0.0162831106833333,0.104754922683333,0.127701654683333,0.0823271146833333,-0.05130300105,-0.10302437105,-0.13674765305,-0.110671129983333,-0.0581101699833333,-0.0472455713166667,-0.0677309921833333,-0.0717181225166667,0.111784983483333,0.09150447435,0.0554894906833333,-0.0664573473166667,-0.02638335665,-0.00643097331666666,0.0843501180166667,0.264334504683333,0.240572397001333,1487,"DG_s08",5.094,5.766,7.047,7.047,10,10,8,8,1.281,"Left",8,8,0,0,0,0,0,0,"10-10",2,2,10,8,10,8
"46",3,"POL LIN4-Ref-POL LIN5-Ref",0.0856888431666667,0.105806673833333,0.0435754218333333,0.0901988398333333,0.0571740551666667,0.0404713631666667,-0.000863862166666667,0.0758348951666667,0.1518030085,0.117610963166667,0.0748629075,0.0670169975,0.115212362766667,0.0922755304333333,0.0640231157666667,0.0999145011666667,0.0199385822026667,-0.0226877491306667,-0.0417619465306667,0.0364875197666667,0.0958992537666667,0.1581050845,0.0806392651666667,0.0937010265,0.0178689665,0.133710993166667,0.0723832265,0.103734433166667,0.0928783065,0.129475131166667,0.0732305955,0.0542002621666667,0.212347848833333,0.269196965833333,0.302536237833333,0.195787809833333,0.283086815166667,0.2220085565,1487,"DG_s08",5.094,5.766,7.047,7.047,10,10,8,8,1.281,"Left",8,8,0,0,0,0,0,0,"10-10",2,2,10,8,10,8
"47",3,"POL RIN11-Ref-POL RIN12-Ref",-0.190113706166667,-0.271473798833333,-0.226254974566667,-0.2797112959,-0.2525749219,-0.272752074166667,-0.2761417951,-0.316979594033333,-0.3467415787,-0.410655921766667,-0.383083080166667,-0.3682335175,-0.2151758735,-0.242557148833333,-0.171679602166667,-0.133407428833333,-0.0586470795,-0.0895377621666666,-0.1184812273,-0.0759141786333333,-0.139799233966667,-0.175206835566667,-0.212159746233333,-0.133680284233333,-0.1468533475,-0.1327487755,-0.0977263688333333,-0.149875362233333,-0.1899374317,-0.2691702697,-0.140671575633333,-0.0431750388333333,-0.0601469308333333,-0.0653466715,0.0328893731666667,0.182479063166667,0.2317053465,0.0221499598333333,1487,"DG_s08",5.094,5.766,7.047,7.047,10,10,8,8,1.281,"Left",8,8,0,0,0,0,0,0,"10-10",2,2,10,8,10,8
"48",3,"POL LIN12-Ref-POL LIN13-Ref",-0.0138262583333333,0.030110635,-0.0862267396666667,-0.0157555776666667,0.00172045566666667,0.0368800616666667,0.0116582418,0.1747299778,0.203726691133333,0.259754769666667,0.095915853,0.196630548333333,0.205579366333333,0.351899760333333,0.326556936,0.337046204,0.209354468666667,0.105425729,0.0283816503333333,-0.0158008096666667,-0.109011903,-0.077221661,0.0138168056666667,0.00085445633333333,-0.109765641666667,-0.0771113436666667,0.0162325863333333,0.046381619,-0.0272046363333333,-0.0775571596666667,0.0988967076666667,0.282928164333333,0.415270857666667,0.2875286646,0.144201533933333,-0.0292448860666667,-0.0336835436666667,0.0730840243333333,1487,"DG_s08",5.094,5.766,7.047,7.047,10,10,8,8,1.281,"Left",8,8,0,0,0,0,0,0,"10-10",2,2,10,8,10,8
"49",3,"POL LAM9-Ref-POL LAM10-Ref",0.0883301883333333,0.113195492666667,0.169551602,0.160770766666667,0.07557141,-0.041342444,-0.0687927119333333,-0.0770876612666667,-0.00966792326666667,-0.0491503266666667,0.00790857866666667,0.0881326073333333,0.184023481333333,0.212876678666667,0.163760244,0.1109885756,0.00469256160000001,-0.0742078064,-0.0723378626666667,0.0532512773333333,0.125176222,0.117901976,0.161477496,0.199846593333333,0.212895765333333,0.0954321084666667,0.113167581133333,0.1146842584,0.0477792886,-0.0516542047333333,-0.0714500313333333,0.008105362,0.132629952333333,0.153993245,0.0921635983333333,-0.028050043,-0.0282001983333333,-0.0114895563333333,1487,"DG_s08",5.094,5.766,7.047,7.047,10,10,8,8,1.281,"Left",8,8,0,0,0,0,0,0,"10-10",2,2,10,8,10,8
"50",3,"POL RIN3-Ref-POL RIN4-Ref",-0.16630084625,-0.15313363225,-0.120962367183333,-0.126903842383333,-0.14466723905,-0.11385068145,-0.09384190345,-0.0615400947833333,0.01451140255,-0.06021229545,-0.105282219316667,-0.126254045316667,0.00934050701666667,0.277812596883333,0.256460834216667,0.554287781883333,0.450467641883333,0.471201145216667,0.191111605216667,0.0719051032166667,0.0506914878833333,-0.0226392387833333,-0.0134682001166667,0.04636414055,0.0349833138833333,0.0581272058833333,-0.06797881345,-0.0172945767833333,0.0147651300833333,0.143183046483333,0.0686320876166667,0.0600831320833333,0.14789296835,0.245360383216667,0.250647139883333,0.146784837216667,0.0443784378833333,-0.0625913647833333,1487,"DG_s08",5.094,5.766,7.047,7.047,10,10,8,8,1.281,"Left",8,8,0,0,0,0,0,0,"10-10",2,2,10,8,10,8
"51",3,"POL LIN11-Ref-POL LIN12-Ref",0.401040712116667,0.398410036783333,0.161718700783333,0.225861426783333,0.244976882116667,0.327321640116667,0.501871040116667,0.538311826783333,0.58286138945,0.408055802783333,0.412104536116667,0.378471818116667,0.46728135945,0.42780463945,0.429860902116667,0.26624687265,0.201047615983333,0.0916330713166667,0.0312757661166667,-0.10390433655,-0.19075734675,-0.18253435075,-0.05930776475,0.0722967505566667,0.0925574892233333,0.126248493223333,0.0241749561166667,0.0540314681166667,-0.01091398855,0.05053409745,0.0945789767833333,0.30311003745,0.23747476545,0.16905779945,0.05109919145,0.102161984116667,0.15388829565,0.0679892223166667,1487,"DG_s08",5.094,5.766,7.047,7.047,10,10,8,8,1.281,"Left",8,8,0,0,0,0,0,0,"10-10",2,2,10,8,10,8
"52",3,"POL RAM8-Ref-POL RAM9-Ref",0.201781429316667,0.226338399316667,0.12920439265,-0.00231265268333333,-0.00749666401666667,0.0230619113166667,-0.01219514535,-0.0407397526833333,-0.108224472683333,-0.0186271440166667,-0.0698398860166667,0.04263487865,-0.0418420660166667,0.0562089733166667,0.0151659899833333,0.06334623265,0.0841453279833333,0.06863550465,-0.0177634066833333,-0.13443846335,-0.188073328016667,-0.173286542683333,-0.123227629083333,0.0927602089166667,0.144661976916667,0.0983334567833333,-0.0180363298833333,-0.02914617655,0.10113861265,0.0248032393166667,0.04199023265,-0.0529639540166667,-0.06645707935,-0.0699938820166667,-0.131721862016667,-0.110676004683333,-0.0794775740166667,-0.0746949806833333,1487,"DG_s08",5.094,5.766,7.047,7.047,10,10,8,8,1.281,"Left",8,8,0,0,0,0,0,0,"10-10",2,2,10,8,10,8
"53",3,"POL LIN1-Ref-POL LIN2-Ref",-0.0817998275166667,0.0235267858166667,-0.0821783681833333,-0.0907448315166667,-0.12764860685,-0.0495312603166667,-0.0381162969833333,-0.07564961765,-0.15653812685,-0.211791840183333,-0.11040277685,-0.07133010885,0.19377393115,0.116951300483333,0.0575577344833333,-0.141504724183333,-0.199435582183333,-0.157331375516667,-0.19134917085,-0.135489043516667,-0.163414427516667,-0.11515536685,-0.03914659285,0.00566334315,0.00743210714999999,0.11852470715,0.0913178164833333,0.03253327915,-0.139244959516667,-0.0788448701833333,0.16481898315,0.22715294315,0.12624158115,-0.0303243121833333,-0.0912359433166667,0.0691184560166666,0.16126594935,0.27236293915,1487,"DG_s08",5.094,5.766,7.047,7.047,10,10,8,8,1.281,"Left",8,8,0,0,0,0,0,0,"10-10",2,2,10,8,10,8
"54",3,"POL RIN1-Ref-POL RIN2-Ref",0.0589385610666667,0.0341826630666667,-0.0414334256,-0.159738558266667,-0.0105556029333333,0.115564999066667,0.250024845733333,0.126671163733333,0.0156800842666667,-0.0870303748666667,-0.0795721328666667,0.0527896892666667,0.0392760777333333,0.0762441084,-0.0151481691333333,0.0938513055333333,0.100035423533333,0.142076961066667,0.1167107944,0.00952532173333333,-0.0776606929333333,-0.118253458,-0.0921855426666667,-0.0441394250666667,-0.0156985172666667,0.0349966527333333,0.0478108464666667,0.2385476124,0.214288583066667,0.20076740582,-0.0616825815133333,-0.0244634035133333,-0.0541919522666667,-0.0285782976,0.0200074164,0.0062389324,-0.0193599456,-0.108940594266667,1487,"DG_s08",5.094,5.766,7.047,7.047,10,10,8,8,1.281,"Left",8,8,0,0,0,0,0,0,"10-10",2,2,10,8,10,8
"55",3,"POL RIN9-Ref-POL RIN10-Ref",-0.0242826632666667,0.0359425100666667,-0.0178537016666667,0.203705717,0.245209297,0.219426415,0.000664004333333334,0.0274921776666667,0.0390180083333333,0.050380525,-0.001720255,-0.000858555,0.0249570283333333,0.015995317,0.109404317666667,0.04822881842,0.135357929753333,0.05525803442,0.095663971,0.0514994516666667,0.0610177416666667,0.260316435,0.236710978333333,0.249607162333333,0.106212108333333,0.108859544333333,0.0536387403333333,0.0862943996666667,0.110325605,0.131093923666667,0.121442245,0.059818331,0.0756328916666667,-0.0111959616666667,0.0521350235333333,0.106509251533333,0.0410903268666667,-0.0455158763333333,1487,"DG_s08",5.094,5.766,7.047,7.047,10,10,8,8,1.281,"Left",8,8,0,0,0,0,0,0,"10-10",2,2,10,8,10,8
"56",3,"POL RIN5-Ref-POL RIN6-Ref",-0.123397072166667,-0.1240321945,-0.1585683425,-0.1630790005,-0.1432093575,-0.1483992135,-0.196488184166667,-0.249957805046,-0.258099357779333,-0.214799229112667,-0.1296878147,0.0307586353666667,-0.0211158653,-0.0579265995,-0.1013863075,0.169301213166667,0.353039595833333,0.2746650629,0.0736367902333333,-0.160984646433333,-0.1916812175,-0.220153158166667,-0.227208076833333,-0.2315744915,-0.232511606166667,-0.104412816833333,-0.0742349848333333,-0.0294035088333333,-0.0691799468333333,-0.0147315381666667,-0.0395321375,-0.0129296161666667,-0.1429899315,-0.184727864833333,-0.222300002166667,-0.212161282166667,-0.285127090833333,-0.245506228833333,1487,"DG_s08",5.094,5.766,7.047,7.047,10,10,8,8,1.281,"Left",8,8,0,0,0,0,0,0,"10-10",2,2,10,8,10,8
"57",3,"POL LIN10-Ref-POL LIN11-Ref",0.151742615683333,0.170384621016667,0.206362809016667,0.211129707016667,0.318075993683333,0.180325505016667,0.280608387016667,0.139934875016667,0.241038153683333,0.11031717175,0.269179726416667,0.27050160175,0.242762567016667,0.0743393324833333,0.03852106315,0.12283932315,0.15509410835,0.01470676435,-0.142259278983333,-0.17749934965,-0.149627476316667,0.00755061035,0.08321789435,0.304716287683333,0.19195995095,0.13860027095,0.0169739062833333,0.105690433223333,0.0835239732233333,0.0281706685566667,-0.00645387165,0.15297238835,0.304612197683333,0.33330309835,0.22734909835,0.163706297216667,0.103519451616667,0.110427451616667,1487,"DG_s08",5.094,5.766,7.047,7.047,10,10,8,8,1.281,"Left",8,8,0,0,0,0,0,0,"10-10",2,2,10,8,10,8
"58",3,"POL RAM7-Ref-POL RAM8-Ref",0.0132733975666667,0.0160193455666667,0.00759152156666667,-0.0607941797666667,0.0406827329,0.216021025566667,0.250757485566667,0.2697384389,0.111610238233333,0.0316568489,-0.110975710433333,-0.1441132771,-0.174172959766667,-0.139994782433333,-0.154528348433333,-0.152904261766667,-0.0827373964333333,-0.0122086551,0.0639348049,-0.0332955517666667,-0.144482359766667,-0.177656188433333,-0.0776018969,0.104698116433333,0.133613339766667,0.1431004149,0.1023152729,0.222816358233333,0.2482298849,0.1732724069,0.0813242469,-0.0308482283666667,-0.0789140150333333,-0.1652973217,-0.195472116433333,-0.1170152791,-0.0503755617666667,0.00711676756666666,1487,"DG_s08",5.094,5.766,7.047,7.047,10,10,8,8,1.281,"Left",8,8,0,0,0,0,0,0,"10-10",2,2,10,8,10,8
"59",3,"POL LIN9-Ref-POL LIN10-Ref",0.0240311053333333,0.001807084,-0.121383416666667,-0.115228684666667,0.123929076666667,0.184547084,0.128008154,0.0331456018,-0.0271112315333333,0.0422307784666667,-0.0570750353333333,0.168475484666667,0.0557092626666667,0.062290258,-0.065726024,0.131776152666667,0.213466481333333,0.153933899,-0.059183911,-0.250592035666667,-0.309475756666667,-0.2154411798,-0.176982474466667,-0.1495823448,-0.170426183666667,-0.0779601876666667,-0.0867702626666667,0.0661828426666667,0.111630362,0.218019403333333,0.200625656666667,0.1676059426,0.185794131933333,0.0690062159333333,0.045636226,-0.0628006806666667,-0.0605711986666667,-0.0370207726666667,1487,"DG_s08",5.094,5.766,7.047,7.047,10,10,8,8,1.281,"Left",8,8,0,0,0,0,0,0,"10-10",2,2,10,8,10,8
"60",3,"POL LIN3-Ref-POL LIN4-Ref",0.00165684516666667,0.0743495938333333,0.0276793671666667,0.0686804305,-0.0676353828333333,-0.0766512895,-0.0869398929666667,-0.0117687609666667,-0.0294639163,-0.0758006547666667,-0.0872015327666667,-0.0341575701,-0.0259143295,0.0600474271666667,0.0528255411666667,0.0874878218333333,0.0521672838673333,0.0583661632006667,0.060926722534,0.0040526185,-0.0350300761666667,0.00465700983333333,0.1038115645,0.138340323166667,0.216427941833333,0.143881110033333,0.0964051793666667,-0.000293613966666668,-0.0256367721666667,0.0362082071666667,-0.0184144895666667,-0.000988043566666666,-0.0225336895666667,0.0745833525,0.1447567845,0.169111305166667,0.1467591105,-0.0289419008333333,1487,"DG_s08",5.094,5.766,7.047,7.047,10,10,8,8,1.281,"Left",8,8,0,0,0,0,0,0,"10-10",2,2,10,8,10,8
"61",3,"POL RIN12-Ref-POL RIN13-Ref",-0.0702201255333333,-0.103858885533333,0.018101241,-0.0208502376666667,-0.076690891,-0.188645064933333,-0.251373732266667,-0.271022702303333,-0.30250425237,-0.23832557437,-0.203333334333333,-0.037367661,0.175648685666667,0.111451262333333,0.0245702423333334,-0.320633819,-0.293371883666667,-0.329023564333333,-0.166280858333333,-0.112561540333333,-0.0875215396666667,-0.123902849666667,-0.212084085666667,-0.176707965666667,-0.173126492333333,-0.153783867,-0.212466496333333,-0.185846902333333,-0.074985155,-0.00592820833333332,0.0526220896666667,0.039274417,0.0330818383333333,-0.0557837616666667,-0.1155225538,-0.119735292466667,-0.1153499478,-0.0595855016666667,1487,"DG_s08",5.094,5.766,7.047,7.047,10,10,8,8,1.281,"Left",8,8,0,0,0,0,0,0,"10-10",2,2,10,8,10,8
"62",3,"POL LAM8-Ref-POL LAM9-Ref",0.13310072501,0.122011132816667,0.11808754815,0.223564094816667,0.210115311016667,0.183221389016667,0.23248158235,0.23195602615,0.231880452816667,0.144559272816667,0.0767183888166666,0.13680872815,0.101959937816667,0.10074150395,0.00532946795,-0.0346868883833333,-0.06528552385,0.00916875881666666,0.09831574855,0.126662921883333,0.111777007676667,0.146210925276667,0.190483985276667,0.227853833483333,0.211153572816667,0.24009206615,0.25678594815,0.203973570816667,0.14456988415,0.0975497462833333,0.173602540283333,0.26255848695,0.332778055483333,0.216375885483333,0.06995025215,0.00703119773666666,0.144033477736667,0.205943556003333,1487,"DG_s08",5.094,5.766,7.047,7.047,10,10,8,8,1.281,"Left",8,8,0,0,0,0,0,0,"10-10",2,2,10,8,10,8
"63",3,"POL LIN2-Ref-POL LIN3-Ref",-0.0630941951,-0.00931625376666667,0.0273031798333333,0.0154640331666667,0.00699153783333333,-0.00815492443333334,-0.0647889184333333,-0.126535565766667,-0.225996103766667,-0.152005387766667,-0.118276691766667,-0.0325290584333333,-0.0867991551,-0.0172049144333333,-0.0633081611,-0.103838938166667,-0.1567190775,-0.0808897328333333,0.00249641723333333,0.0342777812333333,0.0226269672333333,0.0334478315666667,0.0627876842333333,0.0600149269,0.1475897269,0.0581060502,0.0300805456666667,-0.0562304923333333,0.0229910450333333,0.0900436095666667,0.1644155209,0.0811697609,0.0655979329,-0.0338967704333333,0.0750280335666667,0.0863991617,0.117822278366667,0.114541373033333,1487,"DG_s08",5.094,5.766,7.047,7.047,10,10,8,8,1.281,"Left",8,8,0,0,0,0,0,0,"10-10",2,2,10,8,10,8
"64",4,"POL LAM8-Ref-POL LAM9-Ref",-0.2608893,-0.281014994666667,-0.319986207633333,-0.314811264966667,-0.313760976966667,-0.270081078666667,-0.324410547333333,-0.326811408266667,-0.318921126933333,-0.246597514266667,-0.236768613333333,-0.337717290666667,-0.29495437,-0.267578749333333,-0.187132957333333,-0.211119010666667,-0.254588131333333,-0.239195442666667,-0.200010373333333,-0.237364949333333,-0.329864106,-0.331931531266667,-0.295539641933333,-0.105978231266667,-0.202773382,-0.2092570286,-0.422787049266667,-0.338906163266667,-0.2965773,-0.208103852973333,-0.123832036973333,-0.0537940269733333,-0.028601322,-0.152176827333333,-0.204785226666667,-0.3119585976,-0.315509676933333,-0.4337628176,1488,"DG_s08",8.047,8.719,10.454,10.469,10,10,28,4,1.735,"Right",28,4,24,0,24,0,-24,24,"10-10",-18,6,28,10,4,10
"65",4,"POL RIN1-Ref-POL RIN2-Ref",0.0521275932,0.0608864523333333,0.105136395666667,0.125891175133333,-0.056562584,0.066307954,0.113673006666667,0.161385311333333,0.0298297966666667,0.0282251866666667,0.0300223186666667,-0.04364936,-0.101695069333333,-0.0729142726666667,0.0918438413333333,0.123984830733333,0.0739500706,-0.0980755947333333,-0.118484440133333,-0.01338864,0.10011237926,0.170676971926667,0.17540852526,0.0561396766666667,-0.0390352846666667,-0.115196206,-0.0333341353333333,0.00547805666666667,-0.0180259246666667,-0.066883508,0.030552198,0.196015514,0.266664941333333,0.22944912208,0.106197528746667,-0.00794623525333333,-0.0696055486666667,-0.154714035333333,1488,"DG_s08",8.047,8.719,10.454,10.469,10,10,28,4,1.735,"Right",28,4,24,0,24,0,-24,24,"10-10",-18,6,28,10,4,10
"66",4,"POL RAM7-Ref-POL RAM8-Ref",-0.0718844053333333,-0.0575415936,-0.0103205176,0.282717031733333,0.193730089333333,0.086871668,-0.127946728666667,-0.0773346086666667,-0.0552209813333333,-0.0675767913333333,-0.0185635713333333,0.0138097653333333,0.093604072,0.0382613493333333,0.0557636636,-0.0329405224,-0.0271003450666667,-0.0574810856,-0.1269783996,-0.174813546266667,-0.137397278,-0.0812480273333333,-0.0588692184,-0.0132398144,0.0265090916,0.0319337645333333,-0.0568212881333333,0.0360687378666667,0.165045559333333,0.171164321333333,0.130662483333333,0.0709678874666667,0.0455978748,0.0547978128,-0.0812153493333333,0.010177936,-0.0851876246666667,0.00773038466666667,1488,"DG_s08",8.047,8.719,10.454,10.469,10,10,28,4,1.735,"Right",28,4,24,0,24,0,-24,24,"10-10",-18,6,28,10,4,10
"67",4,"POL LIN9-Ref-POL LIN10-Ref",-0.197198672416667,-0.36081767175,-0.385616638416667,-0.36983621395,-0.36032751595,-0.324545853283333,-0.282781729083333,-0.167240284416667,-0.158870374416667,-0.211144818416667,-0.295631935083333,-0.374497596416667,-0.56269928575,-0.59520302175,-0.616635732416667,-0.575532393816667,-0.504034641816667,-0.45978260115,-0.27477521975,-0.28222504975,-0.293086060416667,-0.39791059175,-0.389530751083333,-0.27403148375,-0.321383612416667,-0.29551676695,-0.397684522883333,-0.348543068216667,-0.403655569603333,-0.459490970336667,-0.506165609003333,-0.479262972416667,-0.32073677575,-0.243234164416667,-0.109512218416667,-0.100960502416667,-0.0865127408833333,-0.25937164955,1488,"DG_s08",8.047,8.719,10.454,10.469,10,10,28,4,1.735,"Right",28,4,24,0,24,0,-24,24,"10-10",-18,6,28,10,4,10
"68",4,"POL RIN3-Ref-POL RIN4-Ref",-0.0306245676666667,0.0219081117333333,-0.0579746436,0.0194524697333333,-0.0767313643333333,0.006628821,-0.0456150723333333,-0.101089628333333,-0.163859173,-0.134134114333333,-0.0384197248666667,0.0187864618,0.0400947224666667,-0.046384391,-0.078538665,-0.213266744333333,-0.159264225,-0.202055611666667,-0.155881931666667,-0.1389200326,-0.0198070559333333,0.0031464774,0.0394262323333333,0.0127961676666667,0.0316128063333333,-0.0613025416666667,-0.049514257,-0.144674089,0.00808138233333333,-0.0443700839333333,0.1085482334,-0.0328472779333333,-0.0222293201333333,-0.138500910133333,-0.0841098875133333,-0.10760406238,-0.0443172570466667,0.00862558366666667,1488,"DG_s08",8.047,8.719,10.454,10.469,10,10,28,4,1.735,"Right",28,4,24,0,24,0,-24,24,"10-10",-18,6,28,10,4,10
"69",4,"POL RIN4-Ref-POL RIN5-Ref",-0.1095805187,-0.0580798055,0.0149551365,0.0500115345,0.0689358479666667,0.0443648860333333,0.0297755550333333,-0.0358308116333333,0.0784934636333333,0.0282484699666667,0.1190815799,0.109617446566667,0.147174454566667,0.0845722931,-0.0536174269,-0.131892324233333,-0.1743124547,-0.121951645166667,-0.0430319471666667,-0.0579094451666667,-0.199398288033333,-0.2044027147,-0.0923197213666667,0.0370804879666667,0.0501588493,-0.0413108227,-0.112984295366667,-0.172902863366667,-0.0614328753866667,0.09252637528,0.147363974613333,0.178047604633333,0.0262716399666667,0.0460345366333333,-0.0894106960333333,-0.04821661038,-0.0180688559133333,0.14350243742,1488,"DG_s08",8.047,8.719,10.454,10.469,10,10,28,4,1.735,"Right",28,4,24,0,24,0,-24,24,"10-10",-18,6,28,10,4,10
"70",4,"POL RIN12-Ref-POL RIN13-Ref",0.173596873966667,0.169109207833333,0.272916561166667,0.138744921166667,0.0864552399666667,0.0991336175666667,0.166358627566667,0.233993065433333,0.183545082766667,0.1892416561,0.0772857194333333,0.0354157487513333,0.052384469418,0.0476414967513333,0.0807689678333333,0.166736811833333,0.267743137166667,0.3428958685,0.205671797166667,0.1546355865,0.0648191658333333,-0.00261095323333334,-0.0344155179,0.00137668943333333,0.140307233166667,0.1383423345,0.1635197165,0.106301377833333,0.306844839166667,0.3527385065,0.435648057166667,0.2008144065,0.0522327751666667,-0.150242670166667,-0.0642880028333333,0.0263272885,0.147020927833333,0.133029774566667,1488,"DG_s08",8.047,8.719,10.454,10.469,10,10,28,4,1.735,"Right",28,4,24,0,24,0,-24,24,"10-10",-18,6,28,10,4,10
"71",4,"POL RIN2-Ref-POL RIN3-Ref",-0.0982201158333333,-0.1507195825,-0.131651375833333,-0.205250015166667,-0.249620319166667,-0.224338819166667,-0.193795653566667,-0.176446114166667,-0.256199826833333,-0.211110096433333,-0.186464981166667,-0.1781388525,-0.110711115833333,-0.0633327511666667,-0.00110224049999999,-0.0872969365666667,-0.0733650412333333,-0.2326194379,-0.296962839233333,-0.371012679233333,-0.3172776639,-0.207952997166667,-0.186483875166667,-0.1486728065,-0.101876853221333,-0.169028081221333,-0.180587688554667,-0.177744303833333,-0.0345062711666667,0.000184762166666658,-0.0405688311666667,-0.1661435845,-0.188401685166667,-0.208031323166667,-0.194812885166667,-0.2006150905,-0.219944963166667,-0.137237467833333,1488,"DG_s08",8.047,8.719,10.454,10.469,10,10,28,4,1.735,"Right",28,4,24,0,24,0,-24,24,"10-10",-18,6,28,10,4,10
"72",4,"POL RIN11-Ref-POL RIN12-Ref",-0.02036656225,-0.000505695583333327,-0.0375210935833333,-0.16029614425,-0.225879511583333,-0.219930177716667,-0.206887844383333,-0.212761577716667,-0.200276051583333,-0.170130844916667,-0.0971491229166667,-0.0645733815833333,-0.0574431415833333,-0.149083754983333,-0.183400490316667,-0.107593666983333,-0.149962674916667,0.0108423684166667,0.09034756575,0.21618130575,0.0987140050833333,0.00400130441666667,-0.14212715725,-0.09128304925,0.0389217840833333,0.142436933556667,0.102144088223333,-0.0350546117766667,-0.0181522749166667,-0.0541384154766667,-0.08696654881,-0.12764198119,-0.0899435740966667,-0.00609870076333333,0.02694316295,-0.0250538901833333,-0.0379367221833333,-0.0533307597833333,1488,"DG_s08",8.047,8.719,10.454,10.469,10,10,28,4,1.735,"Right",28,4,24,0,24,0,-24,24,"10-10",-18,6,28,10,4,10
"73",4,"POL RIN9-Ref-POL RIN10-Ref",0.031728785,-0.020141875,-0.0390745952,-0.165731557866667,-0.1828921512,-0.136130651666667,-0.071425811,0.00531014566666667,-0.0319174723333333,0.024609891,-0.0872376783333333,-0.0949952916666667,-0.215174006333333,-0.156373672933333,-0.0838307882666667,0.0467177177333333,0.014867937,-0.076635655,-0.126672515,-0.152023125666667,-0.0225128943333333,0.0106664336666667,0.0261247716666667,-0.142128687666667,-0.0961695083333333,-0.0892327956666667,-0.078470709,-0.154845324333333,-0.177069055,-0.231523975666667,-0.208208827,-0.216633523666667,-0.121844533666667,-0.169879917666667,-0.191536017,-0.212182782333333,-0.170789099666667,-0.147309233,1488,"DG_s08",8.047,8.719,10.454,10.469,10,10,28,4,1.735,"Right",28,4,24,0,24,0,-24,24,"10-10",-18,6,28,10,4,10
"74",4,"POL LIN12-Ref-POL LIN13-Ref",0.0615646770666667,0.0932074622,-0.0132754791333333,-0.0697158268666667,0.0567865666666667,0.0131367126666667,0.105663426,-0.1212645638,-0.0567075538,-0.0126358538,0.12376863,0.171480287333333,0.170633700666667,0.162254888666667,0.08538638,-0.0263396133333333,-0.125283902466667,-0.125405153466667,-0.0685323201333333,-0.069413385,-0.101923455333333,-0.12547521,-0.150304986666667,-0.0290553366666667,-0.0594452826666667,0.003455722,0.02220921,-0.0049575228,-0.0618996914666667,-0.1587986768,-0.0167997672,0.115057699466667,0.159277574133333,0.140948549333333,0.0956010546666667,0.0157298946666667,0.000167234666666665,0.115803654666667,1488,"DG_s08",8.047,8.719,10.454,10.469,10,10,28,4,1.735,"Right",28,4,24,0,24,0,-24,24,"10-10",-18,6,28,10,4,10
"75",4,"POL LIN1-Ref-POL LIN2-Ref",-0.362090814846667,-0.35077956418,-0.236483399513333,-0.24963295618,-0.14827310138,-0.17510117338,-0.100625964713333,-0.176175536846667,-0.225396269246667,-0.313017605608,-0.205534028274667,-0.208384368541333,-0.19552640218,-0.314900783513333,-0.345551538846667,-0.34543092818,-0.413305741513333,-0.310595841513333,-0.21506455218,-0.118841080846667,-0.0450483408466667,-0.06636469898,-0.0605515056466667,-0.21291641698,-0.232252273513333,-0.144772425513333,0.0401600191533333,0.07489848982,0.0443600304866667,-0.0802413368466667,-0.0150999048466667,-0.0894171048466667,-0.114700521513333,-0.104891294846667,0.109514318486667,0.0828693164866666,0.01022396982,-0.0456112635133333,1488,"DG_s08",8.047,8.719,10.454,10.469,10,10,28,4,1.735,"Right",28,4,24,0,24,0,-24,24,"10-10",-18,6,28,10,4,10
"76",4,"POL LIN2-Ref-POL LIN3-Ref",-0.0874380771666667,-0.0913423268333333,-0.151290446166667,-0.1701236005,-0.163466466833333,-0.0788224999,-0.0954010199,-0.0610829231,-0.0812851940333333,-0.102481656033333,-0.148646438166667,-0.0468673421666667,-0.0435571515,0.0489308505,0.188078589166667,0.324394847166667,0.201501251166667,-0.0347631788333333,-0.198169332166667,-0.227393932833333,-0.221343024833333,-0.106715273633333,-0.0131993303,0.0228554090333333,0.0688919045,0.212124171166667,0.278064841166667,0.220017271166667,0.242314757833333,0.205548611833333,0.250973321833333,0.0104820751666667,-0.0249240875,-0.0515636008333333,0.180493045833333,0.1345332125,0.0187844858333333,0.00534431916666667,1488,"DG_s08",8.047,8.719,10.454,10.469,10,10,28,4,1.735,"Right",28,4,24,0,24,0,-24,24,"10-10",-18,6,28,10,4,10
"77",4,"POL LIN4-Ref-POL LIN5-Ref",0.182646298566667,0.177800825766667,0.290885303766667,0.292675348033333,0.3402883295,0.259455830166667,0.276794663233333,0.288590027233333,0.324294712566667,0.3072004199,0.355732966566667,0.308833759633333,0.222524531633333,0.117210824966667,0.2395884059,0.220235258566667,0.166307293233333,-0.0692683334333333,0.0196248959,0.143215325233333,0.17601246718,0.0879426645133333,-0.06119637282,-0.0834496854333333,0.0327737892333333,0.1643472999,0.345046231233333,0.359497949233333,0.287115461233333,0.2765289739,0.2422586319,0.308714842566667,0.275062723233333,0.284714751233333,0.185751552566667,0.247013985233333,0.19299581412,0.281140601453333,1488,"DG_s08",8.047,8.719,10.454,10.469,10,10,28,4,1.735,"Right",28,4,24,0,24,0,-24,24,"10-10",-18,6,28,10,4,10
"78",4,"POL RAM8-Ref-POL RAM9-Ref",-0.155297293766667,-0.2380641255,-0.189874712833333,0.0232957911666667,0.193790339833333,0.1942784625,0.0860102131666667,-0.0358889221666667,-0.1566319315,-0.1615622141,-0.0642325561,0.0145197212333333,0.0152554305,-0.0782866008333333,-0.0110291815,-0.00361082016666667,0.0550553153666667,-0.0180980839666667,-0.0523334546333333,-0.176769476833333,-0.2387990055,-0.276445940166667,-0.2564765335,-0.204478986833333,-0.115465790966667,0.0757734090333333,0.0794182510333333,0.130023023833333,-0.0223614833666667,-0.0671915720333333,-0.0988026300333333,-0.148069902833333,-0.0938041589933333,-0.120985531526667,-0.09383142486,-0.0714290953666667,0.1059204065,0.177249037166667,1488,"DG_s08",8.047,8.719,10.454,10.469,10,10,28,4,1.735,"Right",28,4,24,0,24,0,-24,24,"10-10",-18,6,28,10,4,10
"79",4,"POL LAM9-Ref-POL LAM10-Ref",-0.126997353133333,-0.156929121133333,-0.178006776066667,-0.2002602086,-0.344903065933333,-0.287570951,-0.247203818333333,-0.202132039,-0.253055952333333,-0.326286179,-0.320917485,-0.450555203666667,-0.393286895666667,-0.2943875282,-0.161766802866667,-0.0627053708666667,-0.102587575666667,-0.144539441,-0.224644400333333,-0.144444103,-0.201542584333333,-0.208643818333333,-0.309122398333333,-0.131853012333333,-0.091287919,-0.059697571,-0.142551963,-0.187918769666667,-0.349618631,-0.420141618333333,-0.491059083266667,-0.348315835933333,-0.2764030166,-0.331603665,-0.340587150333333,-0.382314367666667,-0.245028424333333,-0.298824693,1488,"DG_s08",8.047,8.719,10.454,10.469,10,10,28,4,1.735,"Right",28,4,24,0,24,0,-24,24,"10-10",-18,6,28,10,4,10
"80",4,"POL LIN3-Ref-POL LIN4-Ref",0.23223570315,0.120535021816667,0.0547419344833333,-0.0603998055166667,-0.06252591085,-0.111067259516667,-0.0496727261833333,-0.05258133285,-0.0874391395166667,-0.13955497085,-0.157507053916667,0.0486856760833333,0.11469140475,0.228613337816667,0.0438421464833333,-0.0285460215166667,-0.12194976485,-0.0568355981833333,0.0163224930166667,-0.0428730623166667,-0.13612117485,-0.15167556205,0.0281363266166667,0.15033199715,0.148628690483333,0.282205129816667,0.130292209816667,0.12940678515,0.0175356658166667,0.268030365816667,0.361975403816667,0.218644552483333,0.0844694204833333,-0.08726844685,-0.0934744315166667,-0.204215131516667,-0.258289717516667,-0.244550760183333,1488,"DG_s08",8.047,8.719,10.454,10.469,10,10,28,4,1.735,"Right",28,4,24,0,24,0,-24,24,"10-10",-18,6,28,10,4,10
"81",4,"POL LIN10-Ref-POL LIN11-Ref",-0.148483639833333,-0.0748605569,-0.1195902249,0.0180539091,0.0876855801666667,0.1456254815,0.00944902749999998,-0.0869410438333333,-0.178451323166667,-0.1145666525,-0.188631787166667,-0.233251465166667,-0.2924826985,-0.218922027833333,-0.2787372505,-0.291145545166667,-0.3602634985,-0.208415959833333,-0.2064416665,-0.235800699833333,-0.2756068725,-0.260687925166667,-0.128838951833333,-0.111337831166667,-0.0893358811666667,-0.0614822291666667,0.0316022775,0.1397375215,0.2193451895,0.2649659655,0.271321118833333,0.0976464415,0.0293199988333333,0.0138512388333333,0.1760828015,0.101201942833333,-0.0753687438333333,-0.268058855833333,1488,"DG_s08",8.047,8.719,10.454,10.469,10,10,28,4,1.735,"Right",28,4,24,0,24,0,-24,24,"10-10",-18,6,28,10,4,10
"82",4,"POL RIN5-Ref-POL RIN6-Ref",-0.290637130883333,-0.49524492755,-0.50340866755,-0.42525742155,-0.363522230216667,-0.191906912883333,-0.14439593155,-0.200176696216667,-0.21662287755,-0.233105590883333,-0.0128288308833334,0.0265243391166667,-0.0595140842166667,-0.332547550883333,-0.53314798355,-0.514045546216667,-0.350272876216667,-0.18949375555,-0.201658319483333,-0.283698782816667,-0.369524319483333,-0.290263780616667,-0.184330307283333,-0.223362463083333,-0.286577994016667,-0.36157244335,-0.27956740355,-0.31486538155,-0.45359204555,-0.47832315555,-0.418832854856667,-0.23670983819,-0.291685361523333,-0.330875214216667,-0.431385424616667,-0.276041719283333,-0.20997639595,-0.0406283288833333,1488,"DG_s08",8.047,8.719,10.454,10.469,10,10,28,4,1.735,"Right",28,4,24,0,24,0,-24,24,"10-10",-18,6,28,10,4,10
"83",4,"POL RIN10-Ref-POL RIN11-Ref",-0.060088874,-0.085478198,0.00656864666666667,-0.0847438978,-0.0458394704666667,-0.0909999984666667,-0.030113738,0.0837223242666667,0.0189551476,0.0376825996,-0.0849418813333333,-0.051251848,-0.204636194666667,-0.130722784866667,-0.0727463742,0.164237359133333,0.129755565333333,0.170464188,0.0360790666666667,0.0567094533333333,-0.00620697066666666,-0.021116528,0.028546652,0.158180229333333,0.245435194,0.189803754,-0.002856612,-0.094676252,-0.05568958,-0.0167274153333333,0.0827456373333333,0.028540298,0.0730037793333333,0.027318832,0.0594375,0.0369650404666667,0.0497482291333333,0.0248169818,1488,"DG_s08",8.047,8.719,10.454,10.469,10,10,28,4,1.735,"Right",28,4,24,0,24,0,-24,24,"10-10",-18,6,28,10,4,10
"84",4,"POL LIN11-Ref-POL LIN12-Ref",0.28634729235,0.24329795235,0.129305701683333,0.0447179816833333,0.0909587816833333,0.182907151016667,0.175213695016667,0.03402306835,-0.05115253865,-0.0493149273166667,-0.08586146065,-0.0806974363166667,-0.0288230783166667,0.05444871035,0.0481840170166667,-0.00861187031666667,-0.0742770583166667,-0.11932647565,-0.0677552485833333,0.01989565075,-0.00320158125,0.05042397235,0.0659054170166667,0.21106970695,0.21840194695,0.282629250683333,0.357003763416667,0.401953543416667,0.422598081683333,0.599970661683333,0.523094336196667,0.498729938863333,0.25369940953,0.210819279016667,0.143048379016667,0.13206533235,0.15313596235,0.28161308835,1488,"DG_s08",8.047,8.719,10.454,10.469,10,10,28,4,1.735,"Right",28,4,24,0,24,0,-24,24,"10-10",-18,6,28,10,4,10
"85",5,"POL RIN2-Ref-POL RIN3-Ref",0.0017887259,0.0445256745666667,-0.00597032963333333,-0.0400102127666667,-0.1205969935,-0.0789589101666667,-0.134626657233333,0.0386778528333333,0.0751812275,0.243965436833333,0.1724763975,0.1011761015,-0.0226528251666667,-0.1088582605,-0.0754322805,-0.0848593911666667,0.0358336148333333,0.0410091535,0.0561495488333333,0.0199447641666667,-0.0109209180333333,-0.0209425781666667,-0.0100463528333333,0.0905729200333333,0.113450904833333,0.0784931268333333,0.0580761725,0.0184784258333333,-0.0720785948333333,-0.0523294925,0.0226646101666667,0.1125556515,-0.0328590291666667,-0.0795713931666667,-0.0599064558333333,0.0895246981666667,0.0521769935,-0.0106371271666667,1489,"DG_s08",11.469,12.141,13.125,13.141,10,10,22,6,0.984,"Left",22,6,16,0,16,0,-16,16,"10-10",-12,4,10,22,10,6
"86",5,"POL LAM8-Ref-POL LAM9-Ref",0.0334828677666667,0.0175548517666667,0.0581625693666667,-0.0042367113,0.00130911136666666,0.0613536975,0.138652076833333,0.0665757368333333,-0.0373276925,-0.0892157271666667,0.000702546166666665,0.0344381195,-0.00740643050000001,-0.0890487015,-0.2048985655,-0.108861998833333,-0.0957934911666667,0.0409536828333333,-0.104825523833333,-0.1642117165,-0.2662947505,-0.2254190485,-0.0834273271666667,0.0234856568333333,0.0161862941666667,-0.0908351058333333,-0.233076091833333,-0.1698424725,-0.0913075378333333,-0.0402492938333333,0.0529641075,-0.0557944451666667,-0.0554215298333333,-0.160802781166667,-0.152709587833333,-0.1575882285,-0.160195242766667,-0.1827663801,1489,"DG_s08",11.469,12.141,13.125,13.141,10,10,22,6,0.984,"Left",22,6,16,0,16,0,-16,16,"10-10",-12,4,10,22,10,6
"87",5,"POL RIN9-Ref-POL RIN10-Ref",-0.133128479866667,-0.134051262533333,-0.0932768878666667,-0.0349353085333333,-0.00863739519999999,0.0166224248,0.0315127254666667,-0.00538630653333333,-0.00929434253333333,-0.1208576452,-0.0337721305333333,-0.0726348165333333,0.0277296794666667,0.0232849394666667,0.1550475548,0.0663487945333333,0.0534521065333333,-0.0300708714666667,-0.0389765042913333,-0.110725447091333,-0.107614802424667,0.0105491506666667,0.2469432548,0.343176401466667,0.3213412748,0.1173806048,0.0754581514666667,-0.0392218498666667,-0.0867635545333333,-0.1918601832,-0.178241312733333,-0.0462218847333333,6.87159333333381e-05,0.0306090260666667,0.0174042054,-0.0106114886,-0.00694803519999999,-0.0491840252,1489,"DG_s08",11.469,12.141,13.125,13.141,10,10,22,6,0.984,"Left",22,6,16,0,16,0,-16,16,"10-10",-12,4,10,22,10,6
"88",5,"POL RIN5-Ref-POL RIN6-Ref",0.0343581608333333,0.0178254708333333,-0.0657896091666667,-0.232216869166667,-0.1726387805,-0.198760829833333,-0.0778263431666667,-0.153061989166667,-0.117864073166667,-0.0967700198333333,-0.0483629759,-0.0572398092333333,-0.0504861319,-0.0675545027666667,0.0338733172333333,-0.0334477345,0.0581537117666667,-0.0712452949,-0.139096133833333,-0.3117037805,-0.373267619833333,-0.3161625045,-0.234879697833333,-0.165288725166667,-0.0803065916333333,0.0104169817,0.0646496810333333,-0.0228356321666667,-0.118521238166667,-0.208946384166667,-0.2057596865,-0.251641787166667,-0.1411892145,-0.217576361166667,-0.173861001166667,-0.229688695166667,-0.0658357151666667,-0.102194791833333,1489,"DG_s08",11.469,12.141,13.125,13.141,10,10,22,6,0.984,"Left",22,6,16,0,16,0,-16,16,"10-10",-12,4,10,22,10,6
"89",5,"POL RIN1-Ref-POL RIN2-Ref",-0.16099825655,-0.16632023655,-0.26883402055,-0.158068593883333,-0.09645690055,-0.02333483255,-0.135254115883333,-0.172208847216667,-0.08032739155,0.106910645116667,0.16805182045,0.138703028116667,0.09981704345,0.0147325687833333,0.0547988081166667,-0.05663331855,-0.107073471216667,-0.19066433135,-0.09947999135,-0.0587254180166667,0.00617239811666666,-0.0947223118833333,-0.20331475855,-0.239270529216667,-0.112948851216667,0.00768258011666666,0.01008595145,-0.0431581552166667,-0.11436076055,-0.110247225216667,-0.03696829055,0.0807346101166667,0.144494277383333,0.0415925447166667,-0.0551198286166667,-0.0965952558166667,-0.11587434315,-0.0929442744833333,1489,"DG_s08",11.469,12.141,13.125,13.141,10,10,22,6,0.984,"Left",22,6,16,0,16,0,-16,16,"10-10",-12,4,10,22,10,6
"90",5,"POL RAM8-Ref-POL RAM9-Ref",0.1354949455,0.0060711935,-0.0906508398333333,-0.1917882665,-0.141174577766667,0.0252615755666667,0.2227346289,0.244243160833333,0.1489523175,0.0447042041666667,-0.0657095605,0.110728596166667,0.180385896166667,0.287965888166667,0.135211748166667,0.174809834833333,0.148999266166667,0.162161664833333,0.149347300566667,0.0325481185666667,-0.0148274901,-0.0740274411666667,0.0212250248333333,0.194804802166667,0.174713050833333,0.233490448833333,0.0988407729666667,0.1838200443,0.2170784903,0.181229878833333,0.1162484405,-0.00605073216666666,0.0451037611666667,0.109752823833333,0.153087367833333,0.162360103833333,0.0869603215,0.175568380833333,1489,"DG_s08",11.469,12.141,13.125,13.141,10,10,22,6,0.984,"Left",22,6,16,0,16,0,-16,16,"10-10",-12,4,10,22,10,6
"91",5,"POL LIN4-Ref-POL LIN5-Ref",-0.182776084733333,-0.323591192733333,-0.36595699344,-0.277927894106667,0.0381684392266667,0.1535388666,0.0753978606,-0.154564872733333,-0.2617646394,-0.110198220066667,-0.0485558667333334,0.0257622532666666,-0.0729745580666667,-0.0680451060666667,-0.05942883208,-0.0373687134133334,-0.201180585413333,-0.294121384066667,-0.257171458066667,-0.101550348733333,-0.0687079626666667,-0.0582811153333333,0.00852154866666666,0.0398262577333333,0.00970009773333333,-0.00854934226666668,0.0497360619333333,-0.00515049140000001,-0.157620100866667,-0.2057721309,-0.173005766233333,-0.212417023433333,-0.298373414733333,-0.342934132733333,-0.276783232733333,-0.324210226066667,-0.2956212674,-0.307719272733333,1489,"DG_s08",11.469,12.141,13.125,13.141,10,10,22,6,0.984,"Left",22,6,16,0,16,0,-16,16,"10-10",-12,4,10,22,10,6
"92",5,"POL LIN1-Ref-POL LIN2-Ref",0.077412564715,0.015461086715,0.008354584715,-0.000948835151666667,-0.0279335691516667,-0.066775632485,-0.0316802726183333,-0.0268220346183333,-0.031939101285,-0.143689339285,-0.0838936846183333,-0.0799552079516667,-0.090319403285,-0.069918693285,0.037299616715,0.120180187381667,-0.0129296706183333,-0.088824831285,-0.155150376618333,0.024547921315,-0.0567719653516667,0.027082562115,-0.119756441818333,0.031101545515,-0.0830065166183333,-0.0679990106183333,-0.085701223285,0.0268941713816667,-0.0403378686183333,-0.0896324499516667,-0.0619067839516667,0.0153198460483333,0.0572856133816667,-0.0592282999516667,-0.0602139559516667,-0.095087907285,-0.0513858319516667,-0.008968729285,1489,"DG_s08",11.469,12.141,13.125,13.141,10,10,22,6,0.984,"Left",22,6,16,0,16,0,-16,16,"10-10",-12,4,10,22,10,6
"93",5,"POL RIN10-Ref-POL RIN11-Ref",-0.116050850333333,-0.286403577666667,-0.270861390333333,-0.237832835,-0.121872608333333,-0.099025401,-0.048957431,-0.059342291,-0.00449418566666666,0.036101749,0.0713225823333333,-0.0830406663333333,-0.045242669,-0.144869549,0.0594388043333333,-0.050504773,0.0384590096666667,-0.127272381333333,-0.0763233526666667,-0.065028556,0.00264839946666667,-0.048201518,0.014130596,0.0777933795333333,0.0764578536666667,-0.075135929,-0.179996489666667,-0.199306059,-0.189052759,-0.027382983,0.0653273536666667,0.122632349,0.0118269023333333,-0.0385687283333333,-0.147573547666667,-0.0994837116666667,-0.021114165,0.0972523616666667,1489,"DG_s08",11.469,12.141,13.125,13.141,10,10,22,6,0.984,"Left",22,6,16,0,16,0,-16,16,"10-10",-12,4,10,22,10,6
"94",5,"POL LIN10-Ref-POL LIN11-Ref",0.122725697233333,0.0457764939,0.00415458056666668,-0.0354813195,0.0456959938333333,0.0257978725,-0.0172062239,-0.1408561765,-0.0368367351666667,-0.0817398561,0.00029760316666666,0.00245263649999999,0.0568771758333333,-0.142334404166667,-0.207156886166667,-0.0586951321666667,0.0941934585,0.138783119833333,-0.05523223606,-0.0721666861933333,-0.17586147886,-0.0775281763,-0.1869533555,-0.0827546721666667,-0.0877856388333333,0.1142036465,0.121495063166667,0.1383262165,0.1495569765,0.248574209833333,0.292945815833333,0.2480027225,0.0531578291666667,-0.000401369499999998,-0.0407849258333333,-0.0373625145,-0.0642188358333333,-0.104052712833333,1489,"DG_s08",11.469,12.141,13.125,13.141,10,10,22,6,0.984,"Left",22,6,16,0,16,0,-16,16,"10-10",-12,4,10,22,10,6
"95",5,"POL RAM7-Ref-POL RAM8-Ref",0.240928402206667,0.18376887554,0.0407137142066667,0.0129419730066667,-0.00621518432666666,0.211397391673333,0.22994059874,0.22163132074,0.0501220920733333,0.0238833600733333,0.00278774874,0.101907210073333,0.253607163406667,0.24152369674,0.21279941674,0.0839182860733333,0.0583315374066667,0.0613214440733333,0.117520698073333,0.0550494660733333,-0.0155428939266667,-0.06161219726,-0.03221482326,0.0958921334066667,0.0668147460733333,0.112402635406667,0.00414235874,0.10804299474,0.206859523406667,0.302482532073333,0.208307140073333,0.17637072874,0.0801805394066667,0.172063633406667,0.14068939074,0.181226533406667,0.140379976073333,0.22636019634,1489,"DG_s08",11.469,12.141,13.125,13.141,10,10,22,6,0.984,"Left",22,6,16,0,16,0,-16,16,"10-10",-12,4,10,22,10,6
"96",5,"POL RIN3-Ref-POL RIN4-Ref",0.0143577248966667,0.04523359003,0.177946297363333,0.369617496696667,0.543502955563333,0.50200500423,0.428385992896667,0.39929452623,0.30133946423,0.27581358423,0.126713281096667,0.118977479763333,0.0603067510966667,-0.00192339577,0.0233646855633333,-0.00858398043666667,0.0875154888966667,0.0225577688966667,0.0656219855633333,0.04028156623,0.14330854023,0.136493731563333,0.23828045823,0.23567856043,0.17196784043,0.0256710645633333,0.0126668983633333,-0.000997374970000006,-0.0396296724366667,-0.0321939671033333,-0.0115738804366667,-0.00490192043666667,-0.100283162436667,-0.0531825891033333,0.146165007563333,0.12751353423,0.0609318955633333,-0.03504286777,1489,"DG_s08",11.469,12.141,13.125,13.141,10,10,22,6,0.984,"Left",22,6,16,0,16,0,-16,16,"10-10",-12,4,10,22,10,6
"97",5,"POL LIN11-Ref-POL LIN12-Ref",0.0484899181283333,0.0603545054616667,0.089536018795,0.150808102795,0.171582806128333,0.254667459461667,0.311296268795,0.308660762695,0.362034695361667,0.226083772695,0.298791089461667,0.137672435461667,0.248777855461667,0.200777487461667,0.223220742795,0.212759022795,0.161408084795,0.105751280128333,-0.0637509605383333,-0.101986729205,-0.0953288718716667,-0.0620373505383333,-0.0646361545383333,-0.0222809878716667,-0.0488079818716667,0.0168201441283333,0.0374003774616667,0.111140474128333,0.112937426595,0.187431906595,0.331295309928333,0.480300768795,0.446863302128333,0.209042546795,0.0409817034616667,-0.0244945778716667,0.0288958174616667,0.0780214341283333,1489,"DG_s08",11.469,12.141,13.125,13.141,10,10,22,6,0.984,"Left",22,6,16,0,16,0,-16,16,"10-10",-12,4,10,22,10,6
"98",5,"POL RIN11-Ref-POL RIN12-Ref",0.055864197,-0.035649309,-0.0959888623333333,-0.0947343256666667,-0.175915513,-0.101977623,-0.1177501844,-0.0992255890666667,-0.0458082857333333,-0.024938201,0.0643542843333333,-0.0187963362666667,-0.0889453929333333,-0.2210151376,-0.187340847666667,-0.188688305666667,-0.234546259333333,-0.328498108666667,-0.404298408,-0.410724731666667,-0.259339846333333,-0.151771363666667,-0.0728597056666667,-0.124082725,-0.134516713666667,-0.152620207,-0.0873227903333333,-0.0456583732666667,-0.0422429159333333,-0.0207760486,0.0277683423333333,0.0740745536666667,0.0277436396666667,-0.0372130176666667,0.022313571,0.0619701216666667,0.237698348333333,0.167568644333333,1489,"DG_s08",11.469,12.141,13.125,13.141,10,10,22,6,0.984,"Left",22,6,16,0,16,0,-16,16,"10-10",-12,4,10,22,10,6
"99",5,"POL RIN12-Ref-POL RIN13-Ref",0.1633626815,0.0902107521666667,0.0976775421666667,0.0281261025,0.0480976118333333,0.160939061166667,0.378491801166667,0.326860967833333,0.180376375966667,0.0184760546333333,0.0608938026333333,0.1113401005,0.198155355166667,0.127058145166667,0.161544011366667,0.0909224400333333,0.0951922487,0.0799245291666667,-0.0515895528333333,-0.0566012861666667,-0.00549259483333332,0.157393305166667,0.250115829833333,0.2590995985,0.2944895785,0.284001485166667,0.2109405495,0.171258856166667,0.0727704981666667,0.0710172311666667,-0.0275938141666667,0.0639499018333333,0.133944483166667,0.211191341166667,0.288800277833333,0.347957145166667,0.4218192755,0.410498016166667,1489,"DG_s08",11.469,12.141,13.125,13.141,10,10,22,6,0.984,"Left",22,6,16,0,16,0,-16,16,"10-10",-12,4,10,22,10,6
"100",5,"POL LAM9-Ref-POL LAM10-Ref",-0.0983174492666667,-0.0626105372666667,-0.00518824926666667,0.0425646007333333,0.162434032666667,0.127595672,0.150607945333333,0.166842398066667,0.239874558733333,0.2088106454,0.157362332066667,0.0557990954,-0.00229719673333334,-0.101224998733333,-0.0902033452,-0.0495190389333333,0.0383325624,0.00821188153333333,0.0026236074,-0.0723714272666667,-0.0182915519333333,0.0721540747333333,0.235730526733333,0.250787808066667,0.1289050614,-0.0130133666666667,-0.0559328966666667,-0.0455477624,-0.0224992609333333,-8.33222666666682e-05,0.104187103466667,0.183328696733333,0.105596672066667,0.00497727673333333,-0.0937617832666667,0.0034156194,0.0014655014,0.0674108414,1489,"DG_s08",11.469,12.141,13.125,13.141,10,10,22,6,0.984,"Left",22,6,16,0,16,0,-16,16,"10-10",-12,4,10,22,10,6
"101",5,"POL LIN12-Ref-POL LIN13-Ref",-0.096002067,-0.00865940433333334,-0.0119530183333333,0.111650261666667,0.248072221666667,0.327957499,0.408766099,0.267039412333333,0.241113876333333,0.0267563003333333,-0.109356631,-0.148663001666667,-0.0368349323333333,0.0988835523333333,0.108735089666667,0.107416505,0.112495651666667,0.152101068333333,-2.08610000000387e-05,-0.193351445666667,-0.396562852266667,-0.368551238266667,-0.211096206933333,-0.098000619,-0.0853438436666667,-0.171464215666667,-0.248734994133333,-0.248287031466667,-0.178849246133333,-0.073152003,0.00330206566666663,0.037518479,0.157265083,0.210388549666667,0.0793574126,-0.0336844540666667,0.0669051459333333,0.154144507666667,1489,"DG_s08",11.469,12.141,13.125,13.141,10,10,22,6,0.984,"Left",22,6,16,0,16,0,-16,16,"10-10",-12,4,10,22,10,6
"102",5,"POL LIN2-Ref-POL LIN3-Ref",0.208657746833333,0.322602236833333,0.2872630175,0.138355888833333,0.116680554833333,0.0741619895,0.174118956166667,0.121475768833333,0.0535046553666667,-0.0330775286333333,-0.0410544666333333,-0.0724283265,-0.0618820951666667,-0.0686443731666667,-0.125441855166667,0.0448757508333333,0.190984385233333,0.387964413233333,0.165310726566667,0.0538571407,-0.0170537813,0.116130183366667,0.0162754308333333,0.107098866833333,0.1191656755,0.155097524166667,0.0650053988333333,0.0760937321666667,0.113990300166667,0.0897172535,-0.0329812531666667,-0.0617060318333333,-0.112312743166667,-0.0463269498333333,0.0870145935,0.0955446828333333,0.0857726755,0.0856688681666667,1489,"DG_s08",11.469,12.141,13.125,13.141,10,10,22,6,0.984,"Left",22,6,16,0,16,0,-16,16,"10-10",-12,4,10,22,10,6
"103",5,"POL LIN3-Ref-POL LIN4-Ref",0.2371885275,0.216172440166667,0.0714221935,0.0449197815,0.0263000568333333,-0.1356833445,-0.0336867026333333,-0.0168385233,0.0236757067,-0.0646533737666667,-0.0247782511,0.0493609729,0.101592953292,-0.0128819026346667,-0.029711735968,0.0230214089066667,0.0880005075,0.115902268166667,0.1217531135,0.0383169695,-0.0107102038333333,-0.000296681833333333,0.0442245361666667,0.106863496166667,-0.00278307516666666,0.0199216601666667,-0.0324409545,0.0591536961666667,0.0546052961666667,0.0159358275,-0.0498451478333333,-0.103413120766667,-0.0917022581,-0.0799852727666667,-0.0770557478333333,-0.0459341031666667,-0.01635014972,0.03473155628,1489,"DG_s08",11.469,12.141,13.125,13.141,10,10,22,6,0.984,"Left",22,6,16,0,16,0,-16,16,"10-10",-12,4,10,22,10,6
"104",5,"POL LIN9-Ref-POL LIN10-Ref",0.0769485861666667,0.155291206166667,0.164765904166667,0.0711812081666667,0.120880428166667,0.0738810710333333,0.0203696103666667,-0.198793866966667,-0.0495087391666666,0.0669270295,0.0188710201666667,0.0224279335,-0.181432251833333,-0.152038897833333,-0.2658088605,-0.115609213833333,-0.0188486478333333,0.131694448166667,-0.00190137183333333,-0.131638511833333,-0.3703049465,-0.369600253833333,-0.300950041166667,-0.232050239833333,-0.142887873166667,-0.1706532388,-0.261274292133333,-0.327911049466667,-0.190253563166667,-0.175549111833333,-0.119565695166667,-0.218003791166667,-0.1042321065,-0.0537380518333333,-0.101668639833333,-0.1640731465,-0.2735584859,-0.246142645233333,1489,"DG_s08",11.469,12.141,13.125,13.141,10,10,22,6,0.984,"Left",22,6,16,0,16,0,-16,16,"10-10",-12,4,10,22,10,6
"105",5,"POL RIN4-Ref-POL RIN5-Ref",0.125417808066667,0.0416609254,0.0402512080666667,0.107563828066667,0.110347870733333,0.1913247574,0.1948226974,0.2221407574,0.2612142414,0.168079008066667,0.0928808680666666,0.0560724320666667,0.0318615680666667,-0.0638597599333333,-0.0475667446,-0.0757927842666667,-0.0726856496,-0.2172528956,-0.2160207186,-0.152831791933333,-0.1041805346,-0.0952406752666667,-0.1675682046,-0.165894941933333,-0.131149761266667,-0.119860265266667,-0.0767649226,-0.1150258026,-0.0873820066,-0.123369867266667,-0.1263622606,-0.0574567666,-0.0872785446,-0.103402195266667,-0.1366497166,-0.0653160812666667,-0.0556565192666667,-0.0477686292666667,1489,"DG_s08",11.469,12.141,13.125,13.141,10,10,22,6,0.984,"Left",22,6,16,0,16,0,-16,16,"10-10",-12,4,10,22,10,6
"106",7,"POL RIN5-Ref-POL RIN6-Ref",0.060852548546,0.022274246546,0.0184184175,0.0298618035,-0.0167558765,-0.0765172831666667,-0.0927966859666667,-0.0927423298333333,-0.138659897833333,-0.201837221033333,-0.139744711833333,-0.141538503166667,0.00743444883333334,0.0488626775,0.125914788166667,0.0870525755,0.159877402833333,0.0997261901666667,-0.0209012291666667,-0.1224357905,-0.1308696565,-0.0089034445,0.110362610166667,0.1379709235,0.0666746848333333,-0.145320010833333,0.1156248085,0.2399543405,0.308621050833333,0.0688247641666667,-0.00728284583333333,0.0254802328333333,0.0892183681666667,0.1174853935,0.121967648166667,0.116753012833333,0.0415282228333333,-0.0574812465,1491,"DG_s08",17.813,18.485,19.547,19.547,28,4,10,10,1.062,"Left",28,4,24,24,0,0,-24,24,"Advent",18,-6,28,10,4,10
"107",7,"POL LIN3-Ref-POL LIN4-Ref",-0.224177762133333,-0.179360965986667,-0.19231012208,-0.16630273928,-0.195797522026667,-0.262322701266667,-0.183628115266667,-0.162401726666667,-0.0882005586666667,-0.19883084,-0.162337733266667,-0.173069279933333,-0.1496037046,-0.1146940606,-0.101050553933333,-0.0736703990666667,-0.177789338466667,-0.338507485133333,-0.410864915333333,-0.33701049,-0.25749511,-0.181579362,-0.115876389333333,-0.102334550666667,-0.0888198013133333,-0.143908755313333,-0.12695753798,-0.02159986,-0.0282996906666667,-0.0480718226666667,-0.133121097333333,-0.1904452312,-0.181583001066667,-0.227446469733333,-0.2597863072,-0.311955728,-0.375337102,-0.369584270666667,1491,"DG_s08",17.813,18.485,19.547,19.547,28,4,10,10,1.062,"Left",28,4,24,24,0,0,-24,24,"Advent",18,-6,28,10,4,10
"108",7,"POL LIN12-Ref-POL LIN13-Ref",-0.319220665098333,-0.213530540431667,-0.278364412431667,-0.273432575765,-0.381348050431667,-0.482161460431667,-0.516099287098333,-0.408038054431667,-0.402003419098333,-0.394215825765,-0.503178975765,-0.492053249098333,-0.420368845765,-0.405522005965,-0.431291852631667,-0.550999461298333,-0.548262533098333,-0.549431026431667,-0.529199671098333,-0.522192232431667,-0.500806897765,-0.394773515498333,-0.315214661498333,-0.364731662831667,-0.503351743098333,-0.538163663098333,-0.432111119765,-0.347475513098333,-0.396985560578333,-0.490120377245,-0.558138065911667,-0.560387759765,-0.468966243098333,-0.476694592431667,-0.511571942431667,-0.606019719098333,-0.678797389765,-0.637436500498333,1491,"DG_s08",17.813,18.485,19.547,19.547,28,4,10,10,1.062,"Left",28,4,24,24,0,0,-24,24,"Advent",18,-6,28,10,4,10
"109",7,"POL RIN9-Ref-POL RIN10-Ref",-0.00587154966666667,-0.174602840333333,-0.204668691,-0.189169031,-0.1457411226,-0.2237240386,-0.2483435224,-0.325150637133333,-0.238579573133333,-0.336160536666667,-0.132136466333333,-0.121915531666667,-0.00471973033333334,-0.152479614333333,-0.161717358266667,-0.1195764876,-0.00283115026666667,0.0538031450666667,0.00311379973333334,-0.0529914736,-0.068794137,-0.0779688923333333,-0.117372682333333,-0.140935194333333,-0.129158745666667,-0.177892694333333,-0.0994231623333333,-0.127550982333333,-0.064099531,-0.246508911,-0.2570439376,-0.223071270933333,-0.1409499596,-0.111929893,-0.195341790333333,-0.229190302933333,-0.239222088266667,-0.0972389502666667,1491,"DG_s08",17.813,18.485,19.547,19.547,28,4,10,10,1.062,"Left",28,4,24,24,0,0,-24,24,"Advent",18,-6,28,10,4,10
"110",7,"POL LIN4-Ref-POL LIN5-Ref",0.297412946666667,0.222660182,0.206629388,0.237218714666667,0.127455252666667,0.1098551,0.0789348033333333,0.269381617333333,0.317720556,0.322129675333333,0.307668634666667,0.295655250666667,0.277440444666667,0.203153392,0.197945972666667,0.12316841128,0.0396602639466667,0.0126900606133333,0.00670026933333334,0.0563602286666667,0.206741637333333,0.29140853,0.303007149333333,0.294424694666667,0.31660151,0.306174614,0.231337054666667,0.367340546,0.411027872666667,0.418734040666667,0.243155967733333,0.2769915384,0.288727510333333,0.307950923266667,0.261359111933333,0.205016058666667,0.197330369333333,0.196433804,1491,"DG_s08",17.813,18.485,19.547,19.547,28,4,10,10,1.062,"Left",28,4,24,24,0,0,-24,24,"Advent",18,-6,28,10,4,10
"111",7,"POL RIN2-Ref-POL RIN3-Ref",-0.0254725201666667,-0.00653716683333333,-0.0224065201666667,-0.0737643735,-0.0831911815,-0.0913865915,-0.0314656515,-0.0596153573666667,-0.0833529427,-0.0484293627,0.00316215116666667,0.0336957478333333,0.0413915998333333,-0.0309735401666667,-0.0838349728333333,-0.1585030455,-0.158431476166667,-0.0942821095,-0.0364168205666667,-0.0185028907,0.0098605093,-0.0060412559,0.117871127566667,0.0306245242333333,0.0298794298333333,-0.126339602833333,-0.0593690161666667,-0.115803504833333,-0.0476149628333333,-0.0294751688333333,-0.0819792088333333,-0.0816810408333333,-0.0925350581666667,0.0995184285,0.145752987166667,0.113754081833333,0.0889011485,0.0844788365,1491,"DG_s08",17.813,18.485,19.547,19.547,28,4,10,10,1.062,"Left",28,4,24,24,0,0,-24,24,"Advent",18,-6,28,10,4,10
"112",7,"POL LAM9-Ref-POL LAM10-Ref",0.0221165184666667,-0.0446874415333333,-0.191001207533333,-0.144139109,-0.0808005956666667,0.0596952863333333,0.171379795666667,0.170574856333333,0.047264303,0.063587467,0.127870365466667,0.1567986708,0.0296945288,-0.091864685,-0.0404480123333333,-0.0759521906,-0.0129366239333333,-0.0640298972666667,-0.0303328603333333,-0.026609281,0.0218209383333333,0.0556512483333333,-0.044987081,-0.0830476103333333,-0.0793759761333333,-0.0107559401333333,-0.0554968781333333,-0.178894799,-0.114597301,0.0104527316666667,0.105493778333333,0.129549709,0.0805817036666667,0.163708377,0.0795417456666667,0.029334273,-0.0260342241333333,-0.103565303466667,1491,"DG_s08",17.813,18.485,19.547,19.547,28,4,10,10,1.062,"Left",28,4,24,24,0,0,-24,24,"Advent",18,-6,28,10,4,10
"113",7,"POL RIN12-Ref-POL RIN13-Ref",-0.186476968666667,-0.155295319333333,-0.0913315913333333,-0.0628319413333333,-0.021179756,0.0321414866666667,-0.0115091466666667,0.0516503786666666,0.0697993873333333,0.340115174,0.311419314,0.178726248,0.105772781333333,0.068150908,0.132378666,0.210902094,0.20573300242,0.25933824442,0.01740063642,0.0238098253333333,0.0688020713333333,0.0766272113333333,0.099597516,-0.106520064,-0.143800092,-0.1962845742,-0.0402478268666667,-0.00250346686666668,-0.0599065906666667,-0.097442982,-0.124191726666667,-0.0476444446666667,-0.0717919153333333,0.0997135486666667,0.149646258666667,0.222119874666667,0.0435884861333333,0.00832092479999999,1491,"DG_s08",17.813,18.485,19.547,19.547,28,4,10,10,1.062,"Left",28,4,24,24,0,0,-24,24,"Advent",18,-6,28,10,4,10
"114",7,"POL LIN1-Ref-POL LIN2-Ref",-0.0280548877,-0.0541878457,-0.117910127166667,-0.104479531833333,-0.0817210418333333,-0.1524682345,-0.1951403985,-0.2230244085,-0.0597763978333333,-0.0501129145,0.0263459501666667,0.0223776435,0.0490849881666667,0.0314390599,-0.0760155847666667,-0.0393000994333333,-0.0311865385,0.0633131461666667,0.144571846166667,0.0970540668333333,0.1365125975,0.00125680750000001,0.0853600735,-0.106937797166667,-0.00985824783333332,-0.0968085471666667,0.00211649283333334,-0.156772213166667,-0.124356355166667,-0.121307363166667,-0.0866292965,-0.0609939911666667,0.0240713435,0.175508398833333,0.1695947655,0.159546134833333,0.0455694084333333,-0.0400951215666667,1491,"DG_s08",17.813,18.485,19.547,19.547,28,4,10,10,1.062,"Left",28,4,24,24,0,0,-24,24,"Advent",18,-6,28,10,4,10
"115",7,"POL RIN10-Ref-POL RIN11-Ref",-0.1793205055,-0.121821814633333,-0.205700694166667,-0.0692812208333333,-0.0383512943666667,0.0456373938333333,-0.0751836267,-0.147966181366667,-0.192434243366667,-0.213855176166667,-0.185285734833333,-0.170370228833333,-0.126450704833333,-0.112778542833333,-0.2334833915,-0.216738868833333,-0.0782902061666667,0.172580360633333,0.105330484566667,-0.0125735221,-0.1734655289,-0.2263038795,-0.1999567195,-0.1974579413,-0.102183625966667,-0.153694172633333,-0.1000808195,-0.183113122833333,-0.175240288833333,-0.223368888166667,-0.2059231941,-0.183262719433333,-0.0633651447666667,0.0879925091666667,0.0475239338333333,0.0327953558333333,-0.0399188841666667,0.0267765858333333,1491,"DG_s08",17.813,18.485,19.547,19.547,28,4,10,10,1.062,"Left",28,4,24,24,0,0,-24,24,"Advent",18,-6,28,10,4,10
"116",7,"POL RIN3-Ref-POL RIN4-Ref",0.0142642853,-0.0586376447,-0.112394964766667,-0.133311297566667,-0.0215235042333333,-0.0778941868333333,-0.0766606155,-0.126886744833333,-0.104536146833333,-0.143167432833333,-0.104901564833333,-0.0926919615,-0.0204176705,-0.0478518158333333,-0.0483316665,0.0657821998333333,0.0932208275,0.0996030648333333,0.0148144561666667,-0.0412506361666667,-0.0726846875,-0.0188280841666667,0.0821181831666667,0.0292322671666667,-0.0443977075,-0.0602548368333333,0.0665212711666667,0.0376503538333333,-0.115574746166667,-0.128829847633333,-0.127918864233333,0.0615205424333333,0.0934060625666667,0.144548573833333,-0.000975476833333336,-0.0226226928333333,-0.0193942768333333,0.0823179865,1491,"DG_s08",17.813,18.485,19.547,19.547,28,4,10,10,1.062,"Left",28,4,24,24,0,0,-24,24,"Advent",18,-6,28,10,4,10
"117",7,"POL RIN1-Ref-POL RIN2-Ref",-0.0455609894266667,-0.20727244276,-0.149635402833333,-0.0201076039,0.0325848121,0.0233289781,-0.0679686715,-0.0651240075,-0.0139059061666667,0.1348818325,0.210952729166667,0.192845159833333,0.0271712731666667,0.0161392525,0.126371921833333,0.216641987166667,0.2023944525,0.0676334191666667,0.0463502343,-0.00929237903333333,-0.0660511263666667,-0.0537258401666667,0.0667196311666667,0.124103287833333,0.104552089166667,0.0676079410333333,0.0937515583666667,0.0487444343666667,-0.0109563207,-0.0649394073666667,-0.0599375407,0.0043987785,0.0618094078333333,0.114145841833333,0.0923770145,0.0455886298333333,-0.0739170148333333,-0.0832691947666667,1491,"DG_s08",17.813,18.485,19.547,19.547,28,4,10,10,1.062,"Left",28,4,24,24,0,0,-24,24,"Advent",18,-6,28,10,4,10
"118",7,"POL LAM8-Ref-POL LAM9-Ref",0.301920684666667,0.333911944,0.290291944,0.192601598,0.170786953,0.145771692,0.224871711333333,0.0827876296666667,0.037880748,-0.0172601593333333,0.098778634,0.0451452366666667,0.022399902,0.00616856866666667,0.0260873713333333,-0.00212038733333333,0.00828150379333334,-0.01887931954,0.00195121179333334,0.00443179466666667,0.156698904666667,0.231325480666667,0.261081518,0.178811132,0.0890458853333333,-0.0308941526666667,-0.0625569986666667,-0.0551201073333333,0.0186715006666667,0.0905445046666667,0.146852644,0.190632125333333,0.176058602666667,0.240901192,0.227123113333333,0.217226538666667,0.0810748206666667,0.01737239,1491,"DG_s08",17.813,18.485,19.547,19.547,28,4,10,10,1.062,"Left",28,4,24,24,0,0,-24,24,"Advent",18,-6,28,10,4,10
"119",7,"POL RAM8-Ref-POL RAM9-Ref",-0.0862799023333333,-0.137975441666667,-0.162498975,-0.191444387813333,-0.04273402648,0.119207880186667,0.335345659666667,0.327957998333333,0.334683471666667,0.201145531666667,0.153074220333333,0.0488954903333333,0.0340850096666667,0.0874034483333333,0.177654831666667,0.173617069666667,0.102571395266667,0.00543344526666667,0.0720509638,0.1725942042,0.1893811082,0.0568359856666667,0.0330395456666667,0.054365749,0.176771213666667,0.191682361133333,0.156335325133333,0.109952647133333,-0.00884457833333334,0.064399653,0.00903801033333333,0.0750396376666667,-0.0234736176666667,0.0405149730666667,0.0528316544,0.123180013066667,0.102580515,0.0916361403333333,1491,"DG_s08",17.813,18.485,19.547,19.547,28,4,10,10,1.062,"Left",28,4,24,24,0,0,-24,24,"Advent",18,-6,28,10,4,10
"120",7,"POL LIN10-Ref-POL LIN11-Ref",-0.116779394533333,-0.113480421333333,-0.151974206666667,-0.205899346666667,-0.128914144,-0.129401593333333,-0.0654270186666667,-0.096755956,-0.038988546,0.083819646,-0.031879922,0.00641139466666666,-0.081333192,0.117502581333333,0.148859445333333,0.2625529578,0.206498064466667,0.133745494466667,-0.0355591666666667,-0.0232915566666667,-0.014180708,0.028729706,-0.0352128210666667,-0.0023293224,0.1435529656,0.06574105,0.0954299166666667,0.0198505,0.0397038126666667,-0.0291200533333333,0.103015963333333,0.221453916666667,0.307344185333333,0.128350718,0.043830298,-0.00695513266666667,-0.0328012733333333,-0.0833565866666667,1491,"DG_s08",17.813,18.485,19.547,19.547,28,4,10,10,1.062,"Left",28,4,24,24,0,0,-24,24,"Advent",18,-6,28,10,4,10
"121",7,"POL LIN11-Ref-POL LIN12-Ref",0.0467823143666667,-0.0191451823,-0.121591115633333,-0.1324060653,-0.1728651753,-0.186001741966667,-0.2282396153,-0.1398770573,-0.0658958646333333,-0.0102384986333333,-0.0730802113,-0.0325378773,0.0143803893666667,0.0107667913666667,-0.0575009686333333,-0.0746320426333333,0.0584650367,0.0318396057,-0.0683309896333333,-0.224826201633333,-0.2370577373,-0.160742349966667,-0.1441419053,-0.0423042553,-0.0206916819666667,-0.0425756946333333,-0.0887581737,-0.114978261033333,-0.1254152377,-0.137762990633333,-0.122619408633333,-7.46319666666689e-05,0.0742559887,0.0870233033666667,-0.0153663759666667,-0.0930537533,-0.0981740333,-0.0579340473,1491,"DG_s08",17.813,18.485,19.547,19.547,28,4,10,10,1.062,"Left",28,4,24,24,0,0,-24,24,"Advent",18,-6,28,10,4,10
"122",7,"POL RIN4-Ref-POL RIN5-Ref",-0.219822227233333,-0.179463085966667,-0.1257221085,-0.0102553485,0.0340656108333333,-0.0974440798333333,-0.1729923465,-0.206754759166667,-0.1365273905,-0.118236637166667,-0.0662564971666667,-0.0181116905,-0.0952421418333333,-0.203503265833333,-0.290882059026667,-0.0604568176933333,0.00868525497333333,0.0902943108333333,-0.0564186898333333,-0.0974416687,-0.205040435833333,-0.160735391833333,-0.0548803809666667,-0.0255808031666667,-0.0180712098333333,0.00583621350000002,-0.0757185671666667,-0.0997411791666667,-0.1084305165,0.0120910108333333,-0.0257162105,-0.0688675865,-0.0887082045,-0.0361074158333333,-0.0916479918333333,-0.1303768785,-0.1233982205,0.0300239581666667,1491,"DG_s08",17.813,18.485,19.547,19.547,28,4,10,10,1.062,"Left",28,4,24,24,0,0,-24,24,"Advent",18,-6,28,10,4,10
"123",7,"POL LIN2-Ref-POL LIN3-Ref",0.02529934375,0.15854169375,0.141645382416667,0.0133003704166667,-0.113724109583333,-0.142870190916667,-0.106865486916667,-0.08388876025,-0.0381543022566667,-0.0275205069233333,0.0292023137433333,0.0577344584166667,0.0437136764166667,-0.06132170765,-0.14146678965,-0.09721720565,-0.07585748225,0.0370387954166667,-0.0113682077833333,0.0101262522166667,0.0525447552166667,0.0872859644166667,0.02316975775,-0.138052459583333,-0.09001027825,-0.0946097449166667,-0.0153276995833333,-0.01658034425,0.0644059464166667,0.00882365708333332,-0.0226023495833333,-0.0865556915833333,-0.0909732709166667,-0.02359410425,0.04040222895,0.0982643745633333,-0.0268391431033333,-0.106660084303333,1491,"DG_s08",17.813,18.485,19.547,19.547,28,4,10,10,1.062,"Left",28,4,24,24,0,0,-24,24,"Advent",18,-6,28,10,4,10
"124",7,"POL RAM7-Ref-POL RAM8-Ref",0.041777477,-0.0830784863333333,0.0144106876666666,0.0726204983333333,0.171059268333333,0.1325098316,0.2170872336,0.281346046661333,0.294840319394667,0.252762857394667,0.244909579666667,0.27127781236,0.18705419636,0.10578819436,0.211478678333333,0.363447472666667,0.367682289913333,0.239730659246667,0.12596330118,0.3438184206,0.281933783933333,0.224663712333333,-0.0380387676666667,0.0362233463333333,0.148082945,0.228064987666667,0.1877399444,0.107090378933333,0.0395943429333333,0.0945145348666667,0.048839497,0.153238759666667,0.115868816333333,0.196375165,0.15118529708,0.252063751746667,0.34809140308,0.376374649666667,1491,"DG_s08",17.813,18.485,19.547,19.547,28,4,10,10,1.062,"Left",28,4,24,24,0,0,-24,24,"Advent",18,-6,28,10,4,10
