"","trial","electrodes","pre_13","pre_12","pre_11","pre_10","pre_9","pre_8","pre_7","pre_6","pre_5","pre_4","pre_3","pre_2","pre_1","post_1","post_2","post_3","post_4","post_5","post_6","post_7","post_8","post_9","post_10","post_11","post_12","post_13","post_14","post_15","post_16","post_17","post_18","post_19","post_20","post_21","post_22","post_23","post_24","post_25","post_26","post_27","post_28","post_29","X","SID","newround_time","choice_time","buttonpress_time","reveal_time","self_payoff","other_payoff","self_foregone","other_foregone","RT","side_chosen","self_var_payoff","other_var_payoff","ineq_var_abs","ineq_choice_abs","ineq_foregone_abs","ineq_disadvent","ineq_advent","ineq_choice","chose_equality","self_diff","other_diff","L_self","R_self","L_other","R_other"
"1",1,"POL LAM8-Ref-POL LAM9-Ref",-0.102863957208081,-0.171822326541414,-0.0678750018747475,-0.128378721474747,-0.100235673474747,-0.194365567474747,-0.114316941474747,0.0199676349185858,-0.00854970641474748,0.0237750802519192,0.0229515038585859,0.0889626418585859,-0.0227135048080808,-0.128047341474747,-0.110541164141414,-0.171150558141414,-0.204239252808081,-0.147917549474747,-0.0576678468080808,-0.0307370894747475,-0.162153599474747,-0.131844516141414,0.0283639245252525,0.0638374298585859,0.0516671711919192,0.0239052178585859,0.0758637978585859,0.0492407245252525,-0.0793066308080808,0.00809985719191918,-0.0455568428080808,0.0413998911919192,-0.0825499554747475,-0.0912689921414141,-0.201620880141414,-0.143910859474747,-0.121931207474747,-0.0748392048080808,-0.0449135808080808,-0.0815794828080808,-0.0483317508080808,-0.0508592468080808,1485,"DG_s08",-0.671,0,1.25,1.266,10,10,10,18,1.25,"Left",10,18,8,0,8,8,0,-8,"10-10",0,-8,10,10,10,18
"2",1,"POL RIN1-Ref-POL RIN2-Ref",0.283719975707071,0.289324733040404,0.157733190107071,0.120375223373737,0.116460710973737,0.0452736605737374,0.166060883973737,0.313207965707071,0.319617289707071,0.174572614040404,0.0426953587070707,0.123952452707071,0.145487418373737,0.154717653373737,0.117430921373737,0.052614730040404,0.111391112373737,0.0538643357070707,0.111670773707071,0.101382372107071,0.0792853027737374,0.00829471344040404,-0.112423740292929,-0.0539767902929293,0.0758354303737374,0.060419457040404,0.0196296283737374,-0.00898221562626261,0.040942605040404,0.238283097040404,0.263249145707071,0.356427876040404,0.166119420707071,0.038414018040404,0.023185807040404,0.176220124373737,0.291050729707071,0.259035153707071,0.288632905040404,0.234968186373737,0.391092982373737,0.290214182373737,1485,"DG_s08",-0.671,0,1.25,1.266,10,10,10,18,1.25,"Left",10,18,8,0,8,8,0,-8,"10-10",0,-8,10,10,10,18
"3",1,"POL RIN10-Ref-POL RIN11-Ref",-0.0799651565676768,-0.110686781567677,-0.134532520234343,-0.106122158434343,-0.0615190301010101,-0.0118022601010101,0.0706583925656566,0.0856186405656566,0.0472749578989899,-0.0255575607676768,-0.0521223921010101,0.0231766738989899,0.0647590738989899,0.0254985232323232,0.0596922405656566,0.0748564338989899,0.0824048358989899,0.14273493989899,0.0151440599656566,-0.00491098936767677,-0.139358446034343,-0.00375059943434344,-0.0403389715743434,-0.0804844695743434,-0.155080433574343,-0.126526586767677,0.0144424012323232,-0.0448618847676768,0.19402272989899,0.0407354038989899,0.0467835205656566,-0.199216297434343,-0.156530850967677,-0.0871002643010101,-0.0260675624343434,0.0251147104323232,-2.79895676767727e-05,0.0151866846923232,0.141341638025657,0.0961774200256566,0.0763714752323232,-0.0909635647676768,1485,"DG_s08",-0.671,0,1.25,1.266,10,10,10,18,1.25,"Left",10,18,8,0,8,8,0,-8,"10-10",0,-8,10,10,10,18
"4",1,"POL LIN1-Ref-POL LIN2-Ref",0.213032021838384,0.230167204505051,0.119274077171717,0.146194054505051,0.0773294525050505,-0.0226867708282828,-0.0731402853616162,-0.0959831500282828,0.0857207173050505,0.112969878505051,0.274291119171717,0.320282491838384,0.344766353838384,0.201210055838384,-0.00872929749494949,-0.0796633768282828,-0.132204426161616,-0.0548163228949495,-0.0145381288949495,0.0656244035050505,0.0140149815717172,0.0203288909050505,-0.0976797814949495,0.0594013971717172,0.145942900505051,0.361409456971717,0.235379226638384,0.304296819971717,0.252082903505051,0.30036557550505,0.192308116171717,0.110242117505051,0.0909813205050505,0.179737246505051,0.287026065171717,0.196563713838384,0.152069311171717,0.109864876505051,0.160157116505051,0.0876890525050505,0.0331642538383838,0.263978508571717,1485,"DG_s08",-0.671,0,1.25,1.266,10,10,10,18,1.25,"Left",10,18,8,0,8,8,0,-8,"10-10",0,-8,10,10,10,18
"5",1,"POL RIN11-Ref-POL RIN12-Ref",-0.0807810274826262,-0.0548717934826263,-0.0382829489292929,0.0277033317373737,0.0581502357373737,-0.0777218495959596,-0.0852185559292929,-0.0529826112626263,0.0785584940707071,0.0878742797373737,0.0287920330707071,-0.0538135342626263,-0.119969584262626,-0.136669396262626,-0.21096264279596,-0.202027367462626,-0.177187911462626,-0.0127583629292929,0.0214680172040404,-0.0603442234626263,-0.18567565479596,-0.119605904929293,-0.0446540448626263,0.121832493137374,0.175023344470707,0.168728125070707,0.0285835517373737,0.00993748307070708,0.109444501070707,0.158971287670707,0.0428892523373737,-0.148403242329293,-0.106976202262626,-0.12008166959596,0.0105276477373737,-0.0682180869292929,-0.0329402035959596,-0.18134515559596,-0.105262040929293,-0.0870985709292929,0.0301953217373737,-0.0512513162626263,1485,"DG_s08",-0.671,0,1.25,1.266,10,10,10,18,1.25,"Left",10,18,8,0,8,8,0,-8,"10-10",0,-8,10,10,10,18
"6",1,"POL RIN2-Ref-POL RIN3-Ref",0.048272051010101,0.0762355916767677,0.113397867676768,0.0752163903434343,0.121125377010101,0.107749084343434,0.174902111010101,0.168077205010101,0.207474461676768,0.0264125476767677,0.024512745010101,-0.083641234989899,0.125053113010101,0.148606593676768,0.198568247010101,0.126173439343434,0.183749960676768,0.218458547343434,0.214785652343434,0.0822593443434343,0.054786297010101,0.0140390396767677,-0.0254948883232323,0.137727372343434,0.198979545010101,0.345249521010101,0.188706462343434,0.173626167676768,0.129827914343434,0.0364457463434343,0.0438446296767677,-0.0390927103232323,0.181429535676768,0.156980360343434,0.270160860343434,0.127846125676768,0.127508657676768,0.080045231010101,0.085872787010101,0.141220908343434,0.208531765010101,0.299288862343434,1485,"DG_s08",-0.671,0,1.25,1.266,10,10,10,18,1.25,"Left",10,18,8,0,8,8,0,-8,"10-10",0,-8,10,10,10,18
"7",1,"POL LIN11-Ref-POL LIN12-Ref",-0.234499046648485,-0.241250478648485,-0.0824882866484849,-0.00978885584848488,0.0105244721515151,-0.133132395848485,-0.0874546631818182,-0.0223815710884849,-0.0170880617551515,-0.108789676155152,-0.101266457581818,0.0373669324181818,0.00117046748484848,-0.00446183784848486,-0.0802819911818182,0.0382553101515151,0.00514440681818182,0.0994871134848485,0.0617490034848485,0.00645434015151514,0.0131363201515151,-0.0495053998484849,0.0127017001515151,-0.0673372338484849,-0.0497675765151515,-0.0709555631818182,-0.108082505848485,-0.134870618515152,-0.184904851848485,-0.149811565181818,0.0987394901515151,0.193171373818182,0.187638583818182,0.201590450484848,0.175087280151515,0.125840446818182,-0.0469420558484849,-0.0717294851818182,-0.171711558515152,-0.109333809181818,-0.194921306515152,-0.165242255048485,1485,"DG_s08",-0.671,0,1.25,1.266,10,10,10,18,1.25,"Left",10,18,8,0,8,8,0,-8,"10-10",0,-8,10,10,10,18
"8",1,"POL LIN2-Ref-POL LIN3-Ref",0.136897752373737,0.205343816373737,0.248302907040404,0.193006072373737,0.126846389040404,-0.0252275742929293,-0.083497300959596,-0.0741909962929293,0.0387787737070707,0.127343800373737,0.149249635707071,0.041126967040404,-0.025004266959596,-0.094242242959596,0.020409570040404,0.0524432213737374,0.133059812707071,0.088970875040404,0.134116721040404,0.158502158373737,0.182255713707071,0.194580350373737,0.106820101173737,0.0247706511737374,0.0255623411737374,0.0817796177070707,0.142124586373737,0.0943364957070707,0.0766764757070707,0.00218446904040404,-0.0171828582929293,-0.00113603829292929,0.103457941040404,0.157424191707071,0.245161403040404,0.154561917707071,0.0451402083737374,-0.089882090959596,-0.024751064959596,0.0891448083737374,0.312682556373737,0.301336165707071,1485,"DG_s08",-0.671,0,1.25,1.266,10,10,10,18,1.25,"Left",10,18,8,0,8,8,0,-8,"10-10",0,-8,10,10,10,18
"9",1,"POL LIN12-Ref-POL LIN13-Ref",-0.225151217292929,-0.123913005959596,-0.057208705959596,-0.055211517959596,-0.0224720446262626,-0.020949407959596,0.0909708553737374,-0.0761223320262626,-0.176218748692929,-0.041293643359596,0.109474677373737,0.161209454707071,0.0618334387070707,0.0217006787070707,0.102438854707071,0.145702270707071,0.130282710707071,0.0239018003737374,-0.083264092959596,-0.135172039626263,-0.233099700626263,-0.223094537292929,-0.197543909959596,-0.127742058626263,-0.178259070626263,-0.264923595292929,-0.191238692626263,-0.149759613959596,-0.028842689959596,-0.066482685959596,-0.135796566759596,-0.181563357559596,-0.185564824892929,-0.0221682474262626,-0.0696929092929293,-0.124980188626263,-0.313770928626263,-0.284138702626263,-0.276908566626263,-0.223013387959596,-0.122409882626263,-0.0829431606262626,1485,"DG_s08",-0.671,0,1.25,1.266,10,10,10,18,1.25,"Left",10,18,8,0,8,8,0,-8,"10-10",0,-8,10,10,10,18
"10",1,"POL RIN5-Ref-POL RIN6-Ref",0.0589288842383838,0.0718689422383838,-0.119304324428283,-0.116602311161616,-0.208110115828283,-0.126954807161616,-0.108114962354949,-0.116923515688283,-0.14103922435495,-0.182480509161616,-0.180758975828283,-0.226614335828283,-0.210570427828283,-0.127486547828283,0.00251387283838384,-0.0102263191616162,0.0717418881717172,-0.0369881331616162,-0.0235249198282828,-0.166206707161616,-0.118481546494949,-0.0193299398282828,0.0694159515050505,0.0366989715050505,-0.0587900984949495,-0.0633855631616162,0.0156599435050505,-0.0599669904949495,-0.0381732304949495,-0.0805055964949495,0.0110190195050505,0.0494262401717172,0.00133619283838384,-0.0212472118282828,-0.103593797161616,0.0158117361717172,0.0412499881717172,0.0256436715050505,0.00882206617171717,-0.0996210144949495,-0.174011546494949,-0.206522092494949,1485,"DG_s08",-0.671,0,1.25,1.266,10,10,10,18,1.25,"Left",10,18,8,0,8,8,0,-8,"10-10",0,-8,10,10,10,18
"11",1,"POL LIN4-Ref-POL LIN5-Ref",-0.255703440373737,-0.239455693707071,-0.244054781040404,-0.206029523040404,-0.0759203755737374,-0.088273066240404,-0.0985782655737374,-0.199949457040404,-0.0469778617070707,0.00422380695959595,0.0454875842929293,0.106036391626263,0.130764016292929,0.109614781226263,-0.0675041107737374,-0.227584817440404,-0.294980002373737,-0.209508475707071,-0.0885431143070707,0.0309017216929293,0.104623795026263,0.0309099292929293,-0.029114654040404,-0.207470850040404,-0.166584759040404,-0.0223245383737374,0.00861435629292931,-0.0185782603737374,-0.130891445107071,-0.162879432240404,-0.023066082240404,0.0973339024929293,0.360814364292929,0.260929991626263,0.137422910959596,0.046374004959596,0.125521888292929,0.149217588959596,0.136217141626263,0.049464330959596,0.086676070959596,-0.106237018507071,1485,"DG_s08",-0.671,0,1.25,1.266,10,10,10,18,1.25,"Left",10,18,8,0,8,8,0,-8,"10-10",0,-8,10,10,10,18
"12",1,"POL LIN9-Ref-POL LIN10-Ref",-0.127830476666667,-0.270341691333333,-0.167441837133333,-0.1646191838,-0.2133189818,-0.287163647333333,-0.269853143333333,-0.170594675666667,-0.148759694333333,-0.152299303133333,-0.193235962133333,-0.0393532374666667,-0.0249600626666667,0.0706785106666667,-0.0936923506666667,-0.0909355633333333,-0.150517812,-0.0746882366666667,-0.0297802576133333,0.03086391772,-0.02821286888,0.0467404527333333,0.0789629594,0.0471351726666667,0.0113767186666667,-0.0264499346666667,0.128954920666667,0.239445034,0.403269407333333,0.339833308,0.146564168133333,-0.0834044932,-0.161474665866667,-0.113938606,-0.00291497799999998,0.09630367,0.0897007312666667,0.0946131646,0.195768697933333,0.173124786666667,0.0152891866666667,-0.174053038,1485,"DG_s08",-0.671,0,1.25,1.266,10,10,10,18,1.25,"Left",10,18,8,0,8,8,0,-8,"10-10",0,-8,10,10,10,18
"13",1,"POL LAM9-Ref-POL LAM10-Ref",-0.0661784809515152,-0.0920891671515151,-0.00353071715151515,-0.0623260147515151,-0.106099398751515,-0.185249765418182,-0.162500775151515,-0.0527794758181818,-0.126224791818182,-0.176937462484848,-0.227311553818182,-0.162934651818182,-0.0554259204848485,-0.00396818981818181,-0.0801133431515151,-0.191331496484848,-0.219825920484848,-0.0410357451515151,0.127140608181818,0.163496532448485,0.0788134511151515,0.00730701111515153,-0.0202786998181818,-0.0606098271515151,-0.0603516694848485,-0.0988942308181818,-0.0972574508181818,-0.111440728484848,-0.0715060484848485,-0.0519781911515151,-0.172119040484848,-0.116892086484848,-0.0851222156181818,0.0664382850484848,-0.0464595889515151,-0.0432028438181818,-0.124181884484848,-0.0661651544848485,-0.134849149484848,-0.197011416818182,-0.257062600284849,-0.232826191951515,1485,"DG_s08",-0.671,0,1.25,1.266,10,10,10,18,1.25,"Left",10,18,8,0,8,8,0,-8,"10-10",0,-8,10,10,10,18
"14",1,"POL RAM7-Ref-POL RAM8-Ref",-0.182894130775758,-0.0377889307757576,0.0454421505575758,0.00807528509090909,-0.0685448369090909,-0.0888077255444242,-0.00466286887775758,-0.0545804382110909,0.0174924717575757,-0.0316447015757576,-0.0844230295757576,-0.122656374909091,-0.139974324909091,-0.0489462326424242,-0.0716864013090909,-0.0269346795090909,-0.0350258657757576,0.0771138108909091,0.116541486024242,0.0460280526909091,0.0302609860242424,0.00577157909090908,0.0952702650909091,0.0331632477575758,0.0698174537575758,0.0620767137575758,0.0245906025775758,-0.0470354420890909,-0.0242131040890909,-0.0417483969090909,-0.0719727415757576,-0.153669846909091,-0.153939804909091,-0.115388604909091,-0.0988620695757576,-0.118202150242424,-0.0266014035757576,0.140048229090909,0.226866807090909,0.0707396136575758,-0.0888859396757576,-0.0981946270090909,1485,"DG_s08",-0.671,0,1.25,1.266,10,10,10,18,1.25,"Left",10,18,8,0,8,8,0,-8,"10-10",0,-8,10,10,10,18
"15",1,"POL RAM8-Ref-POL RAM9-Ref",-0.174292399078788,-0.103304123878788,-0.181748399212121,-0.195449531878788,-0.327635867878788,-0.265364921878788,-0.259468140545455,-0.198057556545455,-0.126036250545455,-0.0617394705454545,-0.0354611338787879,-0.0895378025454545,-0.204991293878788,-0.176279121412121,-0.105272051412121,-0.0654851274121212,-0.0870720925454545,-0.0689959992121212,-0.0562702212121212,-0.0727977552121212,-0.120104999878788,-0.128129345878788,-0.216264279212121,-0.278026456545455,-0.243021740872121,-0.108545517538788,-0.0908260802054545,-0.0933586878787879,-0.0403954212121212,-0.104937916545455,-0.147564017878788,-0.306269979345455,-0.283342935345455,-0.306704301345455,-0.279140456545455,-0.152984813878788,-0.0525426812121212,0.0271370987878788,-0.100839194545455,-0.168228465212121,-0.266142985878788,-0.275146937212121,1485,"DG_s08",-0.671,0,1.25,1.266,10,10,10,18,1.25,"Left",10,18,8,0,8,8,0,-8,"10-10",0,-8,10,10,10,18
"16",1,"POL LIN10-Ref-POL LIN11-Ref",-0.19211268669697,-0.0949690406969697,-0.063435500030303,-0.012711444030303,0.0100912033030303,-0.0014183262969697,0.00790244903636364,0.0611772090363636,0.00819196663636364,-0.014161690030303,-0.0889816918969697,0.0843600354363636,0.19770971010303,0.378044191969697,0.356758898636364,0.24985192530303,0.23337172530303,0.292271576636364,0.284882312636364,0.14991793330303,0.13498692130303,0.202294726836364,0.27145895550303,0.291148916169697,0.233736415836364,0.201037315169697,0.048828549169697,0.174831587969697,0.185872845969697,0.225720860636364,0.238039980636364,0.138499654636364,0.038547567969697,0.0264196213030303,0.158455833969697,0.211482645369697,0.201253952036364,0.220254992036364,0.207412148636364,0.110675001969697,0.0339965493030303,-0.056416114030303,1485,"DG_s08",-0.671,0,1.25,1.266,10,10,10,18,1.25,"Left",10,18,8,0,8,8,0,-8,"10-10",0,-8,10,10,10,18
"17",1,"POL RIN4-Ref-POL RIN5-Ref",0.0602976963838384,0.0897169983838384,-0.101588492282828,-0.154136352949495,-0.141335192949495,-0.125909598416162,-0.164658583749495,-0.128472195082828,-0.168978238282828,-0.130808694282828,-0.114833977616162,-0.131508338949495,-0.135866975616162,-0.260202188282828,-0.143516670949495,-0.198475679616162,-0.0135023876161616,0.0131880383838384,0.139773945050505,0.121005171717172,0.0264348083838384,-0.0550283116161616,-0.120280637882828,-0.0867195078828283,-0.0855889808228283,-0.120149287889495,-0.143889063222828,-0.195062018282828,-0.256929388282828,-0.311963516949495,-0.262746256949495,-0.143036092282828,-0.0311131636161616,-0.0250917980161616,-0.0381214532361616,-0.0455758872361616,0.0255378284971717,0.0391399630505051,-0.0127441742828283,-0.110010927616162,-0.177502146949495,-0.228073219616162,1485,"DG_s08",-0.671,0,1.25,1.266,10,10,10,18,1.25,"Left",10,18,8,0,8,8,0,-8,"10-10",0,-8,10,10,10,18
"18",1,"POL RIN3-Ref-POL RIN4-Ref",-0.234656341616162,-0.225636543682828,-0.298787026349495,-0.397538773016162,-0.481310434282828,-0.413833004949495,-0.345661397616162,-0.169969624282828,-0.0979678709494949,-0.0780939816161616,-0.147921974949495,-0.214560388282828,-0.311667158282828,-0.302811508949495,-0.295593571616162,-0.211249302282828,-0.101079878282828,-0.0138470183494949,-0.00359950101616163,-0.101348062349495,-0.195590380282828,-0.0237586202828283,-0.110795094282828,0.0135337197171717,-0.225263345616162,-0.188758263616162,-0.210269570282828,-0.252089984949495,-0.229011869616162,-0.375498574282828,-0.170194507616162,-0.213574609616162,-0.123074508482828,-0.181750231816162,-0.122070440482828,-0.210055882482828,-0.150083314482828,-0.103176452482828,-0.021587926949495,-0.0499931516161616,-0.0310663122828283,-0.144080278949495,1485,"DG_s08",-0.671,0,1.25,1.266,10,10,10,18,1.25,"Left",10,18,8,0,8,8,0,-8,"10-10",0,-8,10,10,10,18
"19",1,"POL RIN12-Ref-POL RIN13-Ref",-0.127070800290909,-0.158467300290909,-0.150719449090909,-0.132809583757576,-0.0530138637575758,-0.0655197830909091,0.0052199169090909,0.0951564242424243,0.227452186909091,0.186775011575758,0.210550970909091,0.0702725755757576,0.130820591575758,0.161207144909091,0.154313184909091,0.156344393242424,0.0740542805757576,0.0401459848424242,-0.0171233821575758,-0.00231979682424244,0.127687118909091,0.119724270242424,0.0197817402424242,-0.0120047997575758,-0.0820286650909091,-0.00775126309090909,-0.114949074224242,-0.105799689957576,-0.159784690624242,-0.118290562157576,-0.182999698690909,-0.126178075357576,-0.0944297853575758,0.0733370022424242,0.0598441449090909,0.0583304395757576,-0.0168275304242424,-0.0334668370909091,-0.0227188197575758,0.0796027202424242,0.0829627502424242,0.0644127042424242,1485,"DG_s08",-0.671,0,1.25,1.266,10,10,10,18,1.25,"Left",10,18,8,0,8,8,0,-8,"10-10",0,-8,10,10,10,18
"20",1,"POL RIN9-Ref-POL RIN10-Ref",-0.140961317575758,-0.172591948909091,-0.246795933975758,-0.149124573975758,-0.0501538479757576,-0.0588406089090909,-0.150460822242424,-0.248518376909091,-0.194604190909091,0.0520239490909091,0.170054925624242,0.154076045624242,-0.0539614603757576,-0.0830339369090909,-0.122006984909091,-0.202444472242424,-0.383047302909091,-0.440746864909091,-0.443228138909091,-0.338144018909091,-0.307486510242424,-0.250144365575758,-0.310677812242424,-0.277156644242424,-0.345241200909091,-0.255317394242424,-0.199822986909091,-0.137548764975758,-0.167560364975758,-0.156409786975758,-0.0989507962424243,-0.0731579362424243,-0.0932554310024243,-0.0168150423357576,0.00422401766424241,-0.0657294182424242,-0.0750298269090909,-0.0937075429090909,-0.117459796242424,-0.214695407575758,-0.165471762242424,-0.0891244362424242,1485,"DG_s08",-0.671,0,1.25,1.266,10,10,10,18,1.25,"Left",10,18,8,0,8,8,0,-8,"10-10",0,-8,10,10,10,18
"21",1,"POL LIN3-Ref-POL LIN4-Ref",-0.068223418560404,0.00652739930626263,0.085013108639596,0.0937666258262626,-0.034894234040404,-0.163510652040404,-0.168510063973737,-0.123609829307071,-0.098711526640404,0.0312835712929293,-0.00980508337373737,-0.0501225147070707,-0.182542742573737,-0.0312418419070707,0.0347118400929293,0.154996947292929,0.129247735292929,0.127243439959596,0.126920097959596,0.0899569412929293,0.020858067959596,0.0146191206262626,-0.0483623593737374,0.028393721959596,-0.0114823973737374,0.111762145292929,0.0636584246262626,0.0449718012929293,0.00381225462626263,0.0252576292262626,-0.0741984607737374,-0.146780423440404,-0.142210300040404,-0.0314766167070707,0.023847337959596,0.036789133959596,0.0244808186262626,0.112444891959596,0.216986337292929,0.229229002626263,0.198796927292929,0.184635949292929,1485,"DG_s08",-0.671,0,1.25,1.266,10,10,10,18,1.25,"Left",10,18,8,0,8,8,0,-8,"10-10",0,-8,10,10,10,18
"22",2,"POL LIN1-Ref-POL LIN2-Ref",-0.169337819515152,-0.154680879515152,-0.0916090541151515,-0.130581537715152,-0.0958976643818182,-0.134129586448485,-0.104968563515152,-0.138523232181818,0.00538439781818182,0.0495372010181818,0.0624490963515151,0.00521373835151515,0.0616627531515151,0.0373690398181818,-0.0682289428484849,-0.233054068848485,-0.153495388848485,-0.0691948655151515,0.109164354484848,0.0924468864848485,0.0163334438181818,-0.00341144418181818,0.0161512978181818,0.122264684484848,0.140406246484848,0.133592257818182,0.207310597818182,0.146981143151515,0.229946691151515,0.0831800404848485,0.0851410191515151,-0.0226131315151515,-0.0203446208484848,0.0493364678181818,0.0432445751515152,0.0860841751515151,-0.0338248095151515,-0.0169441061818182,-0.0552554508484848,0.00674412715151515,0.000899467151515149,0.0117325171515151,1486,"DG_s08",2.266,2.938,4.079,4.079,10,10,12,12,1.141,"Right",12,12,0,0,0,0,0,0,"10-10",-2,-2,12,10,12,10
"23",2,"POL LIN12-Ref-POL LIN13-Ref",-0.251993390705051,-0.209772666705051,-0.25796756250505,-0.232933795838384,-0.249780106505051,-0.182675446505051,-0.226338518505051,-0.247731029905051,-0.279505743905051,-0.271988092571717,-0.310351403838384,-0.283501758438384,-0.297361199105051,-0.293092256438384,-0.311394001171717,-0.254920018505051,-0.225767317171717,-0.154656127438384,-0.263801176771717,-0.220497760705051,-0.241527551771717,-0.132183187105051,-0.213662525838384,-0.266880831171717,-0.392691502505051,-0.254656057171717,-0.194641490505051,-0.148668035838384,-0.275349341171717,-0.220898309838384,-0.156620731171717,-0.174631297038384,-0.242656421705051,-0.168168015038384,-0.185106415171717,-0.222444975171717,-0.276555048505051,-0.168274547171717,-0.140952269838384,-0.0875967031717172,-0.159147793171717,0.0266135828282828,1486,"DG_s08",2.266,2.938,4.079,4.079,10,10,12,12,1.141,"Right",12,12,0,0,0,0,0,0,"10-10",-2,-2,12,10,12,10
"24",2,"POL RIN1-Ref-POL RIN2-Ref",0.00280477476767677,-0.0269616385656566,-0.0440165845656566,-0.0261035398989899,-0.0091441266989899,0.00434162330101011,-0.110060310032323,-0.0990659325656566,-0.0447249385656566,-0.0181586932323232,0.125877513434343,0.0897898954343434,0.133351460767677,-0.0466524078989899,0.0404059145010101,0.0435523645010101,-0.0291104734989899,-0.0236594025656566,-0.0969806225656566,0.0173771681010101,-0.0931850345656566,0.0357051914343434,0.0280511781010101,0.0479743021010101,-0.0392831278989899,-0.153383155232323,-0.122203301565657,-0.0879641575656566,0.0574267524343434,0.0754246511010101,0.0293716157676768,-0.109943142232323,-0.15659468189899,-0.0966145125656566,-0.0100310545656566,0.0053764581010101,-0.106799556565657,-0.13258561469899,-0.00970633469898989,0.125483038634343,0.197322604767677,0.0591541727010101,1486,"DG_s08",2.266,2.938,4.079,4.079,10,10,12,12,1.141,"Right",12,12,0,0,0,0,0,0,"10-10",-2,-2,12,10,12,10
"25",2,"POL LIN9-Ref-POL LIN10-Ref",-0.203492607278788,-0.0854229986121212,0.0419967441212121,0.0601367841212121,0.0883932207878788,0.0320196387878788,0.0256297867878788,-0.0151736398787879,0.0115777201212121,-0.0572435438787879,-0.142925173878788,-0.279891367878788,-0.284525251878788,-0.349744455212121,-0.336078571212121,-0.316069993878788,-0.203416317212121,-0.180310076878788,-0.135108176878788,-0.141653758878788,-0.0832783143454545,-0.163225678345455,-0.173062153012121,-0.210165491878788,-0.142698171212121,-0.162042499878788,-0.233126293212121,-0.262967900545455,-0.198570365212121,-0.152105815212121,-0.132854958545455,-0.184450631878788,-0.154903357878788,-0.0620290812121212,-0.0889318612121212,-0.110759419212121,-0.237949983878788,-0.164615983878788,0.0706507341212121,0.0561767847878788,0.0160590954545455,-0.120742190478788,1486,"DG_s08",2.266,2.938,4.079,4.079,10,10,12,12,1.141,"Right",12,12,0,0,0,0,0,0,"10-10",-2,-2,12,10,12,10
"26",2,"POL LIN3-Ref-POL LIN4-Ref",-0.0644791271111111,-0.0853427797777778,-0.0826040385577778,-0.101150079557778,-0.0588473237577778,-0.0842776069777778,-0.0411660193111111,-0.0573148551111111,-0.0639751324444444,-0.0682742557777778,-0.0465140724444444,-0.00855574111111111,0.0254149708888889,-0.0258473857777778,0.0106698722222222,-0.00433879444444445,0.0726286675555556,0.0785624835555555,0.0728922592222222,0.0840666718888889,0.103379264555556,0.0583517455555555,0.0162933375555556,0.179508326222222,0.350890260888889,0.564062960822222,0.354090446155556,0.215501415088889,-0.0379046588444444,-0.120859350844444,-0.108648118444444,-0.0241543857777778,0.0372880075555556,0.0442312742222222,-0.00784719011111111,0.0327578478888889,0.0422800178888889,0.00732409688888888,-0.109553787777778,-0.162147597111111,-0.137465664844444,-0.0605321461777778,1486,"DG_s08",2.266,2.938,4.079,4.079,10,10,12,12,1.141,"Right",12,12,0,0,0,0,0,0,"10-10",-2,-2,12,10,12,10
"27",2,"POL LIN2-Ref-POL LIN3-Ref",-0.22376159240404,-0.151506739737374,-0.193067338270707,-0.0822234142707071,-0.13088885360404,-0.0847241204040404,-0.213692577737374,-0.309087871070707,-0.35836061460404,-0.105114841270707,0.00250577206262626,0.0777922289292929,-0.00815458107070707,-0.0069285804040404,-0.0610913317373737,-0.13332952980404,-0.0804165924707071,-0.12034247980404,-0.0148014217373737,-0.0134328363373737,0.176583636329293,0.15522519899596,0.166574444929293,0.202184102262626,0.401814916262626,0.640370400262626,0.479828413062626,0.223068101729293,-0.0328937962707071,-0.0941459030707071,-0.0678208290707071,0.0254158855959596,0.0338892622626263,0.0428752562626263,-0.0730087321373737,0.0142087778626263,0.0660578400626263,0.0687507477959596,0.0531658677959596,-0.0286505937373737,-0.0588185350707071,-0.113098629070707,1486,"DG_s08",2.266,2.938,4.079,4.079,10,10,12,12,1.141,"Right",12,12,0,0,0,0,0,0,"10-10",-2,-2,12,10,12,10
"28",2,"POL LAM8-Ref-POL LAM9-Ref",0.0727103531313131,0.0387849929313131,0.125764806264646,0.182365468931313,0.119123606464646,0.0899289437979798,0.0218986224646465,0.0723618311979798,0.138159033864646,0.194174912531313,0.293515810464646,0.217866618464646,0.201882641131313,0.131387147131313,0.18559249379798,0.145818000464646,0.151087089131313,0.160536895931313,0.393467635931313,0.494212443931313,0.558477262464646,0.304930921131313,0.0926470117979798,-0.0846028082020202,-0.136856893535354,-0.0460820368686869,-0.0318989935353535,0.0356210973979798,-0.0031426426020202,-0.0370618399353535,-0.0540537622020202,-0.00294092833535353,0.169063675664646,0.168410160331313,0.13461325179798,0.0953300151313131,0.120960398464646,0.206989793131313,0.19433784779798,0.169623171931313,0.221965935264646,0.21904840459798,1486,"DG_s08",2.266,2.938,4.079,4.079,10,10,12,12,1.141,"Right",12,12,0,0,0,0,0,0,"10-10",-2,-2,12,10,12,10
"29",2,"POL RAM8-Ref-POL RAM9-Ref",0.213581448848485,0.218554671515152,0.113812192915152,0.104734152255152,0.104202701188485,0.0421874277884848,0.0140688084484848,0.0460061015151515,0.175731937448485,0.199826918115152,0.216340318781818,0.203529682181818,0.270050728181818,0.375382834181818,0.464868228181818,0.536263228181818,0.619241361515152,0.520629588181818,0.433171141515151,0.151379876848485,0.123748388381818,0.0672916968484848,0.140448517515152,0.261000932648485,0.350260157515151,0.323414901515152,0.312393664181818,0.309362313515152,0.201946333515152,0.191423884181818,0.121041334848485,0.181791084181818,0.107441119581818,0.232467632915152,0.283042661581818,0.309115540181818,0.190887972981818,0.145304565048485,0.0950034309031515,0.0870719847698182,0.0226125980364848,0.0411271955151515,1486,"DG_s08",2.266,2.938,4.079,4.079,10,10,12,12,1.141,"Right",12,12,0,0,0,0,0,0,"10-10",-2,-2,12,10,12,10
"30",2,"POL RIN10-Ref-POL RIN11-Ref",0.0781954191212121,0.106304521787879,0.306527628454545,0.234366685121212,0.132425438787879,0.109805985454545,0.0544003061212121,0.113815796454545,-0.0291361928787879,-0.00416383454545455,-0.0914697174787879,-0.113379014812121,-0.0731490491454545,-0.0792074635454545,-0.0501702382121212,0.0124838391212121,-0.0368222397454545,0.0536053215878788,-0.0349110357454545,-0.00749774754545455,-0.111864581478788,-0.127531024145455,-0.0383954134787879,0.0569226551212121,0.231677465121212,0.184588810454545,0.247885342454545,0.171078655121212,0.142806067787879,-0.0597846188787879,-0.0688149655454545,-0.0916674795454545,0.0275552824545455,0.0139920891212121,0.0461521424545455,0.0807430804545455,0.0645959657878788,0.168540317787879,0.146504459121212,0.0880738204545455,-0.00284265687878788,0.0545705084545455,1486,"DG_s08",2.266,2.938,4.079,4.079,10,10,12,12,1.141,"Right",12,12,0,0,0,0,0,0,"10-10",-2,-2,12,10,12,10
"31",2,"POL LIN10-Ref-POL LIN11-Ref",-0.102580817292929,-0.0398405246262626,-0.0786569972929293,-0.0769300755462626,-0.012250970879596,0.105016429120404,0.112412171373737,-0.00783193329292931,-0.100209039959596,-0.0631440472929293,-0.117130109292929,-0.162418795959596,-0.163174432626263,-0.117403341292929,-0.212244008626263,-0.262525648626263,-0.259288693292929,-0.198506641292929,-0.0948820026262626,0.0939074507070707,0.208489331707071,0.269229253040404,0.192177566373737,0.070507148240404,0.0286165593737374,-0.0224962092929293,-0.106021743492929,-0.166015801292929,-0.277675459292929,-0.209101781159596,-0.245337388492929,-0.155503285826263,-0.107466026626263,-0.025299545959596,-0.023776821959596,-0.015637795959596,0.0437119807070707,0.068344904040404,0.109149858707071,0.0243831165737374,0.0369482719070707,0.00342769924040404,1486,"DG_s08",2.266,2.938,4.079,4.079,10,10,12,12,1.141,"Right",12,12,0,0,0,0,0,0,"10-10",-2,-2,12,10,12,10
"32",2,"POL RIN11-Ref-POL RIN12-Ref",-0.158114035151515,-0.120977113151515,-0.180134633151515,-0.303098191151515,-0.248634222484849,-0.113414635818182,-0.127986785818182,-0.0700541591515151,-0.277675905951515,-0.286191341084849,-0.366853477951515,-0.296914531151515,-0.256442762351515,-0.235909056151515,-0.345022576151515,-0.259241335151515,-0.330187108484849,-0.338404328484848,-0.507582535151515,-0.490637578484848,-0.463844158484849,-0.384841917818182,-0.281086501151515,-0.170568626484848,-0.0367064071515151,-0.0703480444848485,-0.0882177204848485,-0.0113893338181818,-0.0179607144848485,-0.0259077071515151,-0.167614790484848,-0.0863562411515151,-0.118163405818182,-0.199194103818182,-0.342478794484848,-0.394137072351515,-0.353760646351515,-0.353074807018182,-0.330202773818182,-0.350633371151515,-0.376655583418182,-0.482416173484848,1486,"DG_s08",2.266,2.938,4.079,4.079,10,10,12,12,1.141,"Right",12,12,0,0,0,0,0,0,"10-10",-2,-2,12,10,12,10
"33",2,"POL RIN2-Ref-POL RIN3-Ref",0.11242645769495,0.0583956350282828,-0.0555694611717172,-0.0958780845050505,-0.0921278738383838,-0.0508993725050505,0.12572059549495,0.00945453149494949,-0.00266793583838384,-0.104355996505051,0.0286546548282828,0.0048667694949495,-0.0288539811717172,-0.0561739571717172,0.0287167128282828,0.0609418661616162,0.0322965601616162,0.0185676308282828,0.0492078488282828,0.0866983954949495,0.0222409554949495,0.000865908161616163,-0.0178277138383838,0.00968220296161616,0.0788850569616162,0.0244923696282828,-0.0277735198383838,-0.177719047171717,-0.0552795471717172,-0.00107806337171717,0.0441897532949495,-0.0810502733717172,-0.125336419505051,-0.134205248171717,-0.00482065483838384,-0.0276535465050505,-0.00216816983838384,0.00168823682828283,0.0301204727616162,0.0384746007616162,-0.00477537723838384,-0.0356593125050505,1486,"DG_s08",2.266,2.938,4.079,4.079,10,10,12,12,1.141,"Right",12,12,0,0,0,0,0,0,"10-10",-2,-2,12,10,12,10
"34",2,"POL LIN11-Ref-POL LIN12-Ref",-0.224147180342626,-0.18225075167596,-0.15942193759596,-0.0877093162626263,-0.0526083055959596,0.0826777077373737,0.0504025470707071,-0.119780662262626,-0.245414158929293,-0.12305349359596,-0.0137006389292929,0.0322133137373737,-0.0222186375959596,-0.0827377055959596,-0.10261475359596,-0.0851326958626263,-0.0739316665292929,-0.0231679878626263,-0.0161154675959596,0.0878421877373737,-0.0324454055959596,-0.0722720274026263,-0.0221162720692929,0.0402184419907071,0.0810634185973737,0.0342549785973737,0.0398244098707071,-0.0180579575959596,-0.0540030962626263,-0.0938158515959596,-0.12612795159596,-0.0532518335959596,0.0832396297373737,0.392112463070707,0.34690204840404,0.259600465937374,0.103767719270707,0.130534027937374,0.193202178497374,0.36057752516404,0.44898944516404,0.582233623737374,1486,"DG_s08",2.266,2.938,4.079,4.079,10,10,12,12,1.141,"Right",12,12,0,0,0,0,0,0,"10-10",-2,-2,12,10,12,10
"35",2,"POL RIN9-Ref-POL RIN10-Ref",0.126806873454545,-0.0181269825454546,-0.135684926545455,-0.138116383878788,-0.0966569092121212,-0.110331953878788,-0.0761910278787879,0.0535726934545454,0.117203137454545,0.0689729923212121,-0.0468863676787879,0.00672669698787878,0.0792621934545454,0.0469932867878788,0.0842862294545454,0.0637977261212121,0.0309955841212121,-0.00935940121212123,0.00632561945454546,0.0392027414545454,-0.0897282592121212,-0.151264651212121,-0.209793110412121,-0.143362123078788,-0.0671330424121212,0.0456962034545454,-0.0184098138787879,-0.0497802078787879,-0.170437258612121,-0.0786974372787879,-0.0983747272787879,-0.154827843212121,-0.204627511212121,-0.213677881078788,-0.121501956412121,-0.134606209745455,-0.112039713212121,0.104195562121212,0.0610605107878788,0.0389883594545455,-0.179269380612121,-0.106136349278788,1486,"DG_s08",2.266,2.938,4.079,4.079,10,10,12,12,1.141,"Right",12,12,0,0,0,0,0,0,"10-10",-2,-2,12,10,12,10
"36",2,"POL RIN3-Ref-POL RIN4-Ref",-0.0808151602121212,0.154917773121212,0.184590079787879,0.172706665121212,-0.0326198895454546,0.0655490544545455,0.118180611121212,0.197534996454545,0.0990140551212121,0.0410538931212121,-0.00338770221212122,0.0564809617878788,0.200995399121212,0.307274824454545,0.284259737787879,0.253454729787879,0.129738726454545,0.171169977121212,0.111161365121212,0.136841659787879,0.0985873624545454,0.0328118337878788,0.0463604723212121,0.000566209654545444,0.127744656987879,0.160760259787879,0.248447977787879,0.0678701791212121,0.0811784697878788,0.0965151222412121,0.203538415707879,0.0933654237078788,-0.0577757507454545,-0.136179604212121,-0.0581005698121212,0.00057596518787878,-0.0376479748121212,-0.0212812278787879,-0.0227737895454545,0.0125201864545454,0.0212782531212121,0.0376865451212121,1486,"DG_s08",2.266,2.938,4.079,4.079,10,10,12,12,1.141,"Right",12,12,0,0,0,0,0,0,"10-10",-2,-2,12,10,12,10
"37",2,"POL RIN5-Ref-POL RIN6-Ref",-0.109045752854545,-0.212342700854545,-0.250665460854545,-0.191931339121212,-0.0761148184545455,0.0239164915454545,-0.0287337284545455,0.0359115428787879,-0.0873602964545455,-0.0230248977878788,-0.150577109787879,-0.0628983911212121,-0.0381962977878788,-0.0224308306545455,-0.100641046654545,-0.0982215299878788,-0.123224177121212,-0.122730163787879,-0.166504404454545,0.0182571288787879,0.0970099566254545,0.0689077952921212,-0.0186006093745455,-0.0186477844545455,0.0217817075454545,-0.0264365411212121,-0.0387313795878788,-0.136612456254545,-0.110769466921212,-0.104731381787879,0.0387747275454545,0.0757570955454545,0.0267129722121212,-0.0316023191212121,-0.0998322987212121,-0.0891103680545455,-0.148438124054545,-0.141199458454545,-0.169742587121212,-0.156648773787879,-0.183425229121212,-0.240475037654545,1486,"DG_s08",2.266,2.938,4.079,4.079,10,10,12,12,1.141,"Right",12,12,0,0,0,0,0,0,"10-10",-2,-2,12,10,12,10
"38",2,"POL LIN4-Ref-POL LIN5-Ref",-0.0426140623636364,-0.0619361583636364,-0.203977137030303,-0.24730913169697,-0.280952647030303,-0.284278000363636,-0.33467916969697,-0.274967843630303,-0.110407083630303,0.0544678477030303,0.079494914969697,-0.0112633536969697,-0.0482489183636364,-0.051081854430303,0.0697628542363637,0.0505321302363636,-0.0462575603636364,-0.10630558169697,0.028486248969697,0.0537710156363636,0.0503015236363636,-0.011699853030303,-0.017690920830303,-0.112029540830303,-0.210679008830303,-0.039790621030303,0.0317017523030303,0.10805080230303,-0.00554013703030303,0.022022892969697,-0.112973212363636,-0.129781506363636,-0.16252598269697,-0.0317687626969697,0.021451405969697,-0.0370848896969697,-0.0219789176969697,-0.0634540716969697,0.000448314969696967,-0.0967548716969697,-0.013674465030303,-0.0449298963636364,1486,"DG_s08",2.266,2.938,4.079,4.079,10,10,12,12,1.141,"Right",12,12,0,0,0,0,0,0,"10-10",-2,-2,12,10,12,10
"39",2,"POL RAM7-Ref-POL RAM8-Ref",0.127503488545455,0.185064994545455,0.0961384392121212,0.140717197212121,0.100113753212121,0.167418870545455,0.0643624172121212,0.0542287585454545,0.0794331812121212,0.173336107878788,0.171355121212121,0.116445372945455,0.0923897929454545,0.138416831612121,0.305618906545455,0.293262712545455,0.256685013878788,0.130418487212121,0.153785952545455,0.115148840545455,0.0381434005454545,-0.00967876598787879,0.169656792678788,0.266752171678788,0.283630086878788,0.0763606082121212,0.0484079892121212,0.0199938098787879,0.0164716072121212,0.0970833132121212,0.00829229921212121,0.0142029558787879,-0.142596470121212,-0.0274745407878788,0.00564646787878788,0.0406304865454545,-0.0329765747878788,-0.0643714576545455,0.0679076036787879,0.228416522345455,0.251381575212121,0.246285688545455,1486,"DG_s08",2.266,2.938,4.079,4.079,10,10,12,12,1.141,"Right",12,12,0,0,0,0,0,0,"10-10",-2,-2,12,10,12,10
"40",2,"POL RIN12-Ref-POL RIN13-Ref",0.0253316928727273,0.143900261606061,0.130548523606061,-0.0455756390606061,-0.173232413127273,-0.219748205127273,-0.201480499127273,-0.141268965060606,-0.0267322683939394,0.00847263227272727,-0.00392986172727272,-0.112796512393939,-0.0628667257272727,-0.00628412506060608,-0.00782523106060606,-0.0278055759939394,-0.178027557993939,-0.204042339993939,-0.255504633060606,-0.261181731060606,-0.326990499060606,-0.323027751927273,-0.261170937927273,-0.117858287927273,-0.122274689060606,-0.150408083060606,-0.163894823060606,-0.102217796393939,0.0433174702727273,0.0300001202727273,-0.0175823770606061,-0.0258163170606061,0.0253352429393939,-0.0399235830606061,-0.0528921357272727,-0.0611115370606061,0.0507113682727273,-0.0724450183939394,-0.0789197363939394,-0.187020499060606,-0.228565480393939,-0.237925392947273,1486,"DG_s08",2.266,2.938,4.079,4.079,10,10,12,12,1.141,"Right",12,12,0,0,0,0,0,0,"10-10",-2,-2,12,10,12,10
"41",2,"POL LAM9-Ref-POL LAM10-Ref",-0.0605180398181818,-0.0564661118181818,0.0255628648484849,0.0211998928484848,0.0638216261818182,-0.0420967651515151,-0.179887213151515,-0.318256213151515,-0.299320419818182,-0.212463073151515,-0.00391303748484849,-0.00122431488484848,0.0574604644484848,0.0340232621151515,0.0238512541818182,0.0207084075151515,-0.0186617818181818,-0.000343902484848488,0.317743884848485,0.492708440848485,0.461420285515151,0.185837440848485,-0.0604159606181818,-0.0704999086181818,-0.0825336352848485,-0.0648360504848485,0.0174617475818182,0.00534694424848485,0.0103947382484849,-0.0611674711515151,-0.0749497564848485,-0.164587253818182,-0.116762979818182,-0.162775173818182,-0.00993272448484848,-0.00637856981818181,0.0422649468484848,-0.0221669384848485,-0.0881354084848485,-0.210572837818182,-0.207786518018182,-0.231464261391515,1486,"DG_s08",2.266,2.938,4.079,4.079,10,10,12,12,1.141,"Right",12,12,0,0,0,0,0,0,"10-10",-2,-2,12,10,12,10
"42",2,"POL RIN4-Ref-POL RIN5-Ref",-0.206295989878788,-0.0166269365454545,-0.00392551987878788,0.00162830798787879,-0.133604673345455,-0.0219331820121212,-0.0506602825454545,0.0381447407878788,-0.128056011878788,-0.0548298165454545,-0.121226332012121,0.0890184306545454,0.147982148654545,0.208023328787879,0.0717967921212121,-0.0221924178787879,-0.152700711212121,-0.207412507878788,-0.270423057878788,-0.235580714212121,-0.200788698212121,-0.118887504878788,-0.101895388545455,-0.0979801158787879,-0.139155489212121,-0.0634699292121212,-0.0352187855454545,0.0193131104545455,3.05244545454608e-05,-0.0223528172121212,-0.125707719878788,-0.157267317212121,-0.183197263878788,-0.0739756772121212,-0.0610516672121212,0.0841809821212121,0.0447409267878788,0.112276480121212,0.00144096545454546,-0.0329977298787879,-0.173656677212121,-0.201303253212121,1486,"DG_s08",2.266,2.938,4.079,4.079,10,10,12,12,1.141,"Right",12,12,0,0,0,0,0,0,"10-10",-2,-2,12,10,12,10
"43",3,"POL LIN9-Ref-POL LIN10-Ref",0.188898107616162,0.186690415616162,0.103934602282828,-0.016819681050505,-0.0254807337171717,-0.131274715717172,0.101789304282828,0.148787182949495,0.119579498949495,-0.0637049223171717,0.059864794349495,0.193582981349495,0.187165265282828,0.00705275521616161,-0.192799032450505,-0.305179228450505,-0.262212346317172,-0.220469125650505,-0.148893468597172,-0.154289725997172,-0.0553884013305051,-0.106524472383838,-0.0275540343838384,0.110265520282828,0.199907105616162,0.259287552949495,0.114643526949495,0.206940075616162,0.121568430949495,0.0741711169494949,-0.113498969717172,-0.0808691297171717,-0.00734792638383838,0.0648905742828283,0.158316445616162,0.186183066949495,0.197950633616162,-0.0965109263838384,-0.209796471717172,-0.220258885717172,-0.0607123483838384,0.0531241322828283,1487,"DG_s08",5.094,5.766,7.047,7.047,10,10,8,8,1.281,"Left",8,8,0,0,0,0,0,0,"10-10",2,2,10,8,10,8
"44",3,"POL LIN3-Ref-POL LIN4-Ref",-0.0369561538383838,-0.126834236105051,-0.0468102094383838,-0.0598926001050505,-0.0406203279050505,-0.110977441238384,-0.0283900823050505,-0.0293855949050505,0.0926966764282828,0.0510060881616162,0.0708323988282828,0.0498731514949495,0.0381334849616162,0.0647490569616162,0.00643716042828283,-0.00528375503838384,-0.0138819317050505,0.116790727494949,0.136648996828283,0.230489598828283,0.117109156828283,0.121177469494949,0.0410609561616162,-0.0427701151717172,0.0217739514949495,-0.0512854851050505,0.0295430442282828,-0.0618047424383838,0.0390365808282828,0.0980872708282828,0.194995232828283,0.178306256161616,0.0599620450949495,-0.0937533475717172,-0.152116578238384,0.00267466482828283,0.0696826888282828,0.0373734508282828,-0.0704057005050505,-0.0859204314983838,-0.0422929774983838,0.00421392250161616,1487,"DG_s08",5.094,5.766,7.047,7.047,10,10,8,8,1.281,"Left",8,8,0,0,0,0,0,0,"10-10",2,2,10,8,10,8
"45",3,"POL RIN10-Ref-POL RIN11-Ref",0.177188949575758,0.0646795635757576,0.116925003575758,0.140267249575758,0.222597942242424,0.192459314242424,0.134383766242424,0.0100198809090909,0.0442879335757576,0.0760802355757576,0.226226932242424,0.293199874242424,0.385694060909091,0.399818967575758,0.235573935575758,0.107900062242424,0.152556688242424,0.317933085262424,0.441070158595758,0.376359707262424,0.257488682242424,0.215881435575758,0.213461122242424,0.104910783575758,-0.0296799537575758,-0.0903397969575758,0.00887000170909091,-0.0430826809575758,-0.0471664884242424,0.0746310182424242,0.231958200909091,0.295894756909091,0.0545791302424242,0.0689907989090909,-0.0325694530909091,-0.0395003104242424,-0.0800396017575758,-0.0721318430909091,0.0493064009090909,0.0550784109090909,0.0984378909090909,0.0955003329090909,1487,"DG_s08",5.094,5.766,7.047,7.047,10,10,8,8,1.281,"Left",8,8,0,0,0,0,0,0,"10-10",2,2,10,8,10,8
"46",3,"POL RIN1-Ref-POL RIN2-Ref",0.0839623130585859,0.201579913058586,0.170453938525253,0.0549139330565859,-0.0581935849434141,-0.0777921942100808,0.00829092459191919,0.0441603719252525,0.0257330285252525,0.00151856719191919,0.0467724745252525,0.154197981191919,0.0734058691919192,0.116915583191919,0.00407891319191919,0.00979271852525252,-0.107538601808081,-0.117226218474747,-0.0764941024747475,-0.0287737421414141,0.0490786285252525,0.0543250785252525,0.243179947858586,0.190909731858586,0.175872985191919,-0.0622875608080808,-0.0253558208747475,-0.0707311922080808,-0.0170046522080808,0.0513424525252525,0.0398819018585859,0.00728538052525252,-0.147519425474747,-0.00411172480808081,-0.00653844414141414,0.0323758291919192,-0.0966147621414141,0.00608568252525252,0.0901349731919192,0.0694555345252525,0.0584467631919192,0.0247691185252525,1487,"DG_s08",5.094,5.766,7.047,7.047,10,10,8,8,1.281,"Left",8,8,0,0,0,0,0,0,"10-10",2,2,10,8,10,8
"47",3,"POL RAM7-Ref-POL RAM8-Ref",0.127738062769697,0.238974745436364,0.268413478969697,0.203002518969697,0.0430264536363636,-0.0611069716969697,-0.19127327969697,-0.144539446363636,-0.139817581030303,-0.11592646369697,-0.13111204369697,-0.10469578769697,-0.076946203030303,0.0475868903030303,-0.000530519030303034,-0.063123353030303,-0.21532699969697,-0.068634287030303,0.050800178969697,0.154797392969697,0.118105585049697,0.111410719049697,0.188166189716364,0.218664709636364,0.217675009636364,0.11183720830303,0.0225193076363636,-0.0975580700969697,-0.140948626763636,-0.202064221430303,-0.129887924363636,-0.0612063156969697,0.0247670383030303,0.073547790969697,0.0541292096363636,0.016457640969697,0.0108223303030303,0.032802829769697,-0.00340325823030303,0.198614538436364,0.163668134969697,0.211817350969697,1487,"DG_s08",5.094,5.766,7.047,7.047,10,10,8,8,1.281,"Left",8,8,0,0,0,0,0,0,"10-10",2,2,10,8,10,8
"48",3,"POL LIN4-Ref-POL LIN5-Ref",0.0984466548686869,-0.0529154584646465,0.0696041602020202,0.0828594022020202,0.171494035535354,0.0292713820686869,0.0970294667353535,0.0882743567353535,0.147682476868687,0.0821135915353535,0.118883962868687,0.0370460644686869,-0.0190306101979798,-0.0617631668646465,-0.00697397766464647,0.0788841336686869,0.160885902335354,0.121696461535354,0.100101261535354,0.0472746528686869,0.13634254620202,0.116751524868687,0.0405708535353535,0.0653743802020202,0.0908063568686869,0.10939853440202,0.0410636857353535,0.182619719068687,0.289332028868687,0.336928990868687,0.25039734020202,0.257674212868687,0.24514508620202,0.15325483020202,0.0812512382020202,0.0777912515353535,0.118502404868687,0.0659615828686869,-0.0091884857979798,-0.0183460311313131,0.0164397015353535,-0.0259012164646465,1487,"DG_s08",5.094,5.766,7.047,7.047,10,10,8,8,1.281,"Left",8,8,0,0,0,0,0,0,"10-10",2,2,10,8,10,8
"49",3,"POL RIN2-Ref-POL RIN3-Ref",0.0444769652141414,-0.00354906145252525,-0.0157252342525253,-0.0625290349191919,-0.121196736252525,-0.123575441585859,-0.0804335549191919,-0.00458888691919192,-0.0304475223191919,-0.0278569329858586,-0.0390134243191919,-0.0443114635858586,-0.0140117615858586,0.0516076877474748,0.168252509080808,0.104900203080808,0.00640025041414141,-0.136679391585859,-0.145492858252525,-0.157479628252525,-0.0598644302525252,-0.0303785655858586,-0.0464701570525253,-0.0767755323858586,0.0762090682808081,0.0663590244141414,0.0561128297474747,-0.0481072575858586,-0.0538505862525252,-0.0288402722525253,0.0295982664141414,0.271554815080808,0.263043801747475,0.151526660414141,0.0552778070808081,-0.0225445062525252,-0.0129423749191919,-0.0512287642525253,0.0607554504141414,-0.0107901835858586,-0.108598462919192,-0.0725933089191919,1487,"DG_s08",5.094,5.766,7.047,7.047,10,10,8,8,1.281,"Left",8,8,0,0,0,0,0,0,"10-10",2,2,10,8,10,8
"50",3,"POL LIN2-Ref-POL LIN3-Ref",0.0149061862678788,-0.0788971225454545,-0.0836498818787879,-0.219457685212121,-0.122727354545455,-0.135465869145455,-0.0553961071454546,-0.106275911145455,-0.0113160472121212,-0.0235600958787879,-0.0839583752121212,-0.153324297012121,-0.101160163012121,-0.0237396796787879,0.0620717861212121,0.0637420927878788,0.0277380961212121,0.0460910561212121,0.0294983589878788,0.137605065654545,0.0758760870545455,0.0587952945878788,0.0219645075212121,-0.0139394472121212,0.0645724750545454,0.130519135454545,0.152151582121212,0.0922119881212121,-0.0363365965454545,-0.0250056265454545,0.0954177741212121,0.140827057987879,0.206033427987879,0.0397726593212121,-0.0237691232121212,-0.0821722132121212,0.0188364234545454,0.00402754012121212,-0.0956933232121212,-0.157074164545455,-0.0933737898787879,0.0290247501212121,1487,"DG_s08",5.094,5.766,7.047,7.047,10,10,8,8,1.281,"Left",8,8,0,0,0,0,0,0,"10-10",2,2,10,8,10,8
"51",3,"POL LAM8-Ref-POL LAM9-Ref",0.194621132361616,0.263780496361616,0.240128646361616,0.255597757828283,0.15406014449495,0.0997994758282828,0.111084877161616,0.116591707828283,0.10267438949495,-0.0239265671717172,-0.0197397645050505,-0.0678439141717172,0.0445062091616162,0.0764211764949495,0.117472756494949,0.103242225628283,0.164233537628283,0.14964459029495,0.235215395161616,0.170133633161616,0.240256307161616,0.236916721161616,0.250018321161616,0.186650393161616,0.0948601171616162,0.141444667161616,0.23821716849495,0.342515373161616,0.278152919161616,0.112061152494949,-0.00219846390505049,0.0776543227616162,0.180359977428283,0.15827451989495,0.129126177228283,0.133853862561616,0.159047219828283,0.209757043828283,0.252398923828283,0.20102864249495,0.133545861028283,0.0985664070282828,1487,"DG_s08",5.094,5.766,7.047,7.047,10,10,8,8,1.281,"Left",8,8,0,0,0,0,0,0,"10-10",2,2,10,8,10,8
"52",3,"POL RIN9-Ref-POL RIN10-Ref",0.218730495737374,0.0524706637373737,-0.000202616795959597,0.0317321572040404,0.0488173618707071,-0.0015572935959596,-0.0320599935959596,0.0177463817373737,-0.0209414355959596,0.0996710724040404,0.0590132314573737,0.0824339981240404,0.0845640721240404,0.0604371877373737,0.139053785070707,0.0332802670707071,0.243713085737374,0.212221021070707,0.23569989240404,0.107156057070707,0.119913977737374,0.0606919137373737,0.112036351070707,0.0803539017373737,0.14771896840404,0.104627519737374,0.0714360464040404,0.0631348350707071,-0.0091072081959596,0.0320567058040404,0.105745531137374,0.0865410810707071,-0.0555199635959596,-0.0664056395959596,-0.0752868909292929,0.0167824424040404,-0.00625392426262626,0.137781703737374,0.154158209070707,0.0863666437373737,0.0051631004040404,0.0503119277373737,1487,"DG_s08",5.094,5.766,7.047,7.047,10,10,8,8,1.281,"Left",8,8,0,0,0,0,0,0,"10-10",2,2,10,8,10,8
"53",3,"POL RAM8-Ref-POL RAM9-Ref",-0.00413260657842424,-0.0289988504450909,-0.0633957644450909,-0.0658099016424242,-0.0674663709757576,-0.0340055356424242,-0.0390857119090909,0.0188755227575758,0.00433212009090909,0.0343843928242424,0.0476030688242424,0.114887700557576,0.0665396344909091,0.00219307715757576,-0.116266433242424,-0.152997423242424,-0.186704389909091,-0.153801717242424,0.0313334480909091,0.153145278090909,0.114094578090909,0.00709711955757576,-0.0823838904424243,0.0638222275575758,0.0571431558909091,0.0700684952242424,-0.0620273247757576,-0.0834920132424243,-0.0872180499090909,-0.104105060575758,-0.103788750575758,-0.0634598985757576,-0.0783378879090909,-0.0728785812424242,-0.00330850124242424,0.110735825424242,0.115442250090909,-0.0134803759090909,-0.0585826785757576,-0.0977477345757576,-0.0750877063090909,-0.100061828775758,1487,"DG_s08",5.094,5.766,7.047,7.047,10,10,8,8,1.281,"Left",8,8,0,0,0,0,0,0,"10-10",2,2,10,8,10,8
"54",3,"POL LIN11-Ref-POL LIN12-Ref",0.286835282543434,0.491120615876768,0.462212162543434,0.635770298676768,0.405755552010101,0.459576172010101,0.375400642676768,0.441190889343434,0.469857889343434,0.499454890676768,0.360520058676768,0.216419474010101,0.0898865954767677,0.0943523534767677,-0.0617243285232323,-0.134301174389899,-0.185971208389899,-0.080146354389899,0.0642168686767677,0.098946390010101,0.145810594676768,0.0124515131434343,0.0595113664767677,0.00539120647676768,0.061701480010101,0.0553532993434343,0.237474067343434,0.302997568676768,0.188102176010101,0.106079376010101,0.0724559733434343,0.178469373343434,0.103827293343434,0.158466710010101,0.130384994676768,0.037801468010101,-0.032566539989899,-0.0639289926565657,0.112763374010101,0.191418188010101,0.209292362676768,0.178442216010101,1487,"DG_s08",5.094,5.766,7.047,7.047,10,10,8,8,1.281,"Left",8,8,0,0,0,0,0,0,"10-10",2,2,10,8,10,8
"55",3,"POL LIN1-Ref-POL LIN2-Ref",-0.0909737172020202,-0.0208499925353535,-0.0809354438686869,-0.124316639868687,-0.216130466535354,-0.130070646535354,-0.143611607868687,0.169927905464646,0.140065640131313,0.113320095631313,-0.140255078368687,-0.18439939970202,-0.149431372935354,-0.195368598935354,-0.127606538268687,-0.17768735520202,-0.0939743398686869,-0.0737089538686869,-0.0419595872020202,-0.0296361385353535,0.0498302947979798,0.141535495464646,0.0544680514646465,-0.0796430285353535,-0.184940374468687,0.0801482921979798,0.180430832864646,0.220961043464646,-0.00267086986868686,-0.0418470171353535,-0.00619166713535353,0.13886424619798,0.231404706131313,0.14547584479798,0.0400494794646465,-0.0794890078686869,-0.0859175834020202,-0.0478243180686869,-0.12449177140202,-0.156518305868687,-0.15259982920202,-0.0864571378686869,1487,"DG_s08",5.094,5.766,7.047,7.047,10,10,8,8,1.281,"Left",8,8,0,0,0,0,0,0,"10-10",2,2,10,8,10,8
"56",3,"POL RIN11-Ref-POL RIN12-Ref",-0.262690796505051,-0.261792707171717,-0.277752027038384,-0.40127387170505,-0.389704880371717,-0.439024319838384,-0.35754052050505,-0.273385147838384,-0.226079847171717,-0.159037899838384,-0.130755508505051,-0.0646997918383838,-0.110615485171717,-0.140141123171717,-0.0623680405050505,-0.140100504505051,-0.174688210771717,-0.252427130771717,-0.113052838771717,-0.12629712850505,-0.156008770505051,-0.0902701451717172,-0.139322685838384,-0.151193828838384,-0.272725655505051,-0.158664578838384,-0.0715256411717172,-0.0809897751717172,-0.112515091838384,0.0408872421616162,0.144422749494949,0.262639832828283,0.0394663928282828,-0.0446329138383838,-0.219322313838384,-0.168042859838384,-0.239326695171717,-0.175499319171717,-0.276607713838384,-0.304938501171717,-0.31203854650505,-0.300513517838384,1487,"DG_s08",5.094,5.766,7.047,7.047,10,10,8,8,1.281,"Left",8,8,0,0,0,0,0,0,"10-10",2,2,10,8,10,8
"57",3,"POL RIN12-Ref-POL RIN13-Ref",-0.126981319212121,-0.238841473212121,-0.250985945212121,-0.304328646058788,-0.255734979392121,-0.238743766725455,-0.0974539272121212,0.139562239454545,0.146638825454545,0.0881142121212121,-0.246965787878788,-0.269127803878788,-0.353425577878788,-0.212107524545455,-0.102287608545455,-0.124625567878788,-0.0752437478787879,-0.216087320545455,-0.159337667212121,-0.221019174212121,-0.192175110878788,-0.213257707545455,-0.212612690545455,-0.102550652545455,-0.0250059105454545,0.0844328761212121,0.0384784767878788,0.0496034267878788,-0.0694333298787879,-0.0870195992121212,-0.126853895078788,-0.0736467077454546,-0.0835002504121212,-0.0214810165454545,0.135780949454545,0.161597197454545,0.179730324121212,-0.00342839921212121,-0.0816667598787879,-0.266075077212121,-0.248612627212121,-0.216249441945455,1487,"DG_s08",5.094,5.766,7.047,7.047,10,10,8,8,1.281,"Left",8,8,0,0,0,0,0,0,"10-10",2,2,10,8,10,8
"58",3,"POL RIN3-Ref-POL RIN4-Ref",-0.119024751020202,-0.088940043020202,-0.111545871686869,-0.0121605503535354,-0.0200804916868687,-0.0820954669535353,-0.145494878286869,-0.0125178182868687,0.198368233646465,0.305971016979798,0.414547336979798,0.503535002313131,0.451009974313131,0.328542348313131,0.071626060979798,0.0314438383131313,-0.00130290235353535,-0.015048397020202,0.0221765901131313,-0.00774150522020202,0.0475460521131313,-0.0227867416868687,0.00610804764646465,0.0257998694464646,0.120560090713131,0.034821298179798,0.0240764797131313,0.121124523113131,0.212357454979798,0.302469141646465,0.196917541646465,0.099134744979798,-0.0762945030868687,-0.169888313086869,-0.080037396420202,0.073611520979798,0.062227698979798,0.0434282623131313,-0.0891048076868687,-0.148977975686869,-0.127855185686869,0.190585322979798,1487,"DG_s08",5.094,5.766,7.047,7.047,10,10,8,8,1.281,"Left",8,8,0,0,0,0,0,0,"10-10",2,2,10,8,10,8
"59",3,"POL RIN4-Ref-POL RIN5-Ref",0.0945991931515151,0.0532800567515151,-0.0925068485818182,0.00195884075151515,0.0550510091515151,0.108031043818182,0.117629082484848,0.218525867818182,0.357250011818182,0.368517561818182,0.328790548484849,0.331799795151515,0.334329408484848,0.280086304684848,0.131957504684848,0.0259627466848485,-0.0814252448484849,-0.207628404848485,-0.0944142561818182,-0.0103067075151515,0.130717403151515,0.0537143313515151,-0.0122534946484849,0.0172763213515151,0.0995945558181818,0.100474129151515,0.0242545658181818,0.00286135915151515,-0.00638522151515152,0.0248487698181818,-0.00598293758181818,-0.0619810769151515,-0.103936054248485,-0.0861993208484848,-0.0182579815151515,-0.0219727521818182,-0.122524526848485,-0.106693822181818,0.0301442098181818,0.0541042651515151,0.191522519151515,0.294767080484849,1487,"DG_s08",5.094,5.766,7.047,7.047,10,10,8,8,1.281,"Left",8,8,0,0,0,0,0,0,"10-10",2,2,10,8,10,8
"60",3,"POL LIN12-Ref-POL LIN13-Ref",0.0396289165050505,0.0845564705050505,0.0938282171717172,0.230628417838384,0.256164407838384,0.168220484505051,0.13139219650505,0.165024863171717,0.306744453171717,0.372025117838384,0.369650195171717,0.23413539650505,0.0848162518383838,0.0412967791717172,0.0132038845050505,-0.0684787799616162,-0.0899148665616162,-0.0098189278949495,0.0346826779050505,-0.104282596161616,-0.103208482828283,-0.0249345134949495,0.0659011601050505,0.0509939387717172,-0.0733989632282828,0.0188017285050505,0.19095072450505,0.410933509171717,0.364081880505051,0.207937046171717,-0.0061673804949495,-0.0186034071616162,0.0677176471717172,0.176026837838384,0.0603756391717172,0.00319823983838384,0.0169623225050505,0.216775179171717,0.228530211838384,0.20693604650505,0.117432791838384,0.26533807850505,1487,"DG_s08",5.094,5.766,7.047,7.047,10,10,8,8,1.281,"Left",8,8,0,0,0,0,0,0,"10-10",2,2,10,8,10,8
"61",3,"POL RIN5-Ref-POL RIN6-Ref",-0.168466966626263,-0.209490926626263,-0.240289941226263,-0.281474332559596,-0.185932879226263,-0.177879591292929,0.0391538453737374,-0.0291544679595959,-0.0517146272929293,-0.109125943292929,0.0234783693737374,0.355133790707071,0.287931875360404,0.185237889360404,-0.167428953972929,-0.204714558626263,-0.209484617292929,-0.225956960626263,-0.254272657959596,-0.252080641959596,-0.109715365959596,-0.0787091259595959,-0.0189419986262626,-0.091520219959596,-0.0122548752929293,-0.0546328692929293,0.00510497670707072,-0.132610391292929,-0.160796866626263,-0.253258989292929,-0.207257679292929,-0.290188754626263,-0.241954712626263,-0.174412258292929,-0.117048458292929,-0.105355888959596,-0.209481049959596,-0.158007299959596,-0.121749849292929,0.0410665867070707,0.0392233273737374,-0.0943921926262626,1487,"DG_s08",5.094,5.766,7.047,7.047,10,10,8,8,1.281,"Left",8,8,0,0,0,0,0,0,"10-10",2,2,10,8,10,8
"62",3,"POL LIN10-Ref-POL LIN11-Ref",0.241068867424242,0.255643973090909,0.114583042424242,0.238702627090909,0.124823275424242,0.220748470757576,0.288629876090909,0.250154046090909,0.208545873024242,0.0337021756909091,0.128838217024242,0.121382448757576,0.0601314960909091,-0.0854457305757576,-0.185798703909091,-0.154417000575758,-0.0132715005757576,0.0632279060909091,0.251028407424242,0.196253784090909,0.200095243424242,0.0601220454242424,0.0932742998242424,0.0543082404909091,0.0458520718242424,0.00770412442424242,0.0900133124242424,0.272641852424242,0.306846587424242,0.307996626090909,0.157812972090909,0.133506063424242,0.168463653424242,0.0888179734909091,0.192121818824242,0.0773823354909091,0.236275676090909,0.114251950757576,0.156371330090909,0.0801856580909091,0.0814378201575758,0.0118710128242424,1487,"DG_s08",5.094,5.766,7.047,7.047,10,10,8,8,1.281,"Left",8,8,0,0,0,0,0,0,"10-10",2,2,10,8,10,8
"63",3,"POL LAM9-Ref-POL LAM10-Ref",0.0026106824040404,-0.0635193584626263,-0.0465805998226263,-0.0625482864892929,-0.0345377296226263,-0.0248755489292929,0.0702560237373737,0.13623821440404,0.212088325737374,0.15401702840404,0.15145608820404,0.00983484487070706,-0.0420708504626263,-0.12094820159596,0.0359200184040404,0.0955712424040404,0.12967720240404,0.13944925640404,0.199977005070707,0.198538229737374,0.125046885070707,0.11936344840404,0.132540357137374,0.0740680164707071,-0.0505816515292929,-0.0903174918626263,-0.0370582678626263,0.135816187470707,0.19042309640404,0.119382383737374,-0.0149811789292929,-0.0594195349292929,-0.0526164942626263,-0.0032519235959596,0.0393209004040404,0.102872913070707,0.0829870217373737,0.0304456297373737,0.00547610173737373,0.0662762257373737,0.181136547070707,0.173094925737374,1487,"DG_s08",5.094,5.766,7.047,7.047,10,10,8,8,1.281,"Left",8,8,0,0,0,0,0,0,"10-10",2,2,10,8,10,8
"64",4,"POL RIN9-Ref-POL RIN10-Ref",0.0759522620808081,0.0219018507474747,0.00632112941414141,-0.0676055465858586,0.0115045974141414,-0.0146177979191919,0.0872761414141414,0.0983472840808081,0.132337134747475,0.0796529494141414,0.0689546980808081,0.0432066160808081,-0.00238436845252525,-0.0735021419858586,-0.0213711733191919,0.103995036547475,0.353170448080808,0.386969494747475,0.349790801414141,0.132602559414141,0.0920898194141414,-0.0192439759191919,-0.0797240339191919,-0.145951038585859,-0.122416090919192,-0.0105024709191919,0.0687134684141414,0.0942214948808081,0.0867545955474747,0.00569192088080808,0.0309376660808081,0.0348694407474747,0.0405256020808081,0.00164921874747474,-0.0156088632525253,0.0098843454141414,0.0243576820808081,0.0411386687474747,0.0204236220808081,-0.0361836939191919,-0.138689393919192,-0.222672930585859,1488,"DG_s08",8.047,8.719,10.454,10.469,10,10,28,4,1.735,"Right",28,4,24,0,24,0,-24,24,"10-10",-18,6,28,10,4,10
"65",4,"POL LIN4-Ref-POL LIN5-Ref",0.262097843535354,0.0573700168686869,0.0462949362020202,0.134689646868687,0.267871522868687,0.26739409420202,0.259261575535354,0.17461918560202,0.255233002935354,0.17900087760202,0.0336157715353535,-0.0780717857979798,0.0514182408686869,0.197482332068687,0.17662472740202,0.24050634740202,0.285087804868687,0.32501219880202,0.265348245468687,0.24962873480202,0.333266901535354,0.21370853740202,0.11205618940202,0.0193378560686869,0.0655775175353535,0.0387777942020202,-0.0276003124646465,-0.0506619077979798,-0.0327968451313131,-0.0382031797979798,-0.0296001391313131,0.0249908728686869,0.0884591808686869,0.205807051535354,0.169932168868687,0.16180348820202,0.0593346520753535,0.0416064574086869,0.0377861867420202,0.0549911042020202,0.166802724868687,0.240125254868687,1488,"DG_s08",8.047,8.719,10.454,10.469,10,10,28,4,1.735,"Right",28,4,24,0,24,0,-24,24,"10-10",-18,6,28,10,4,10
"66",4,"POL RIN1-Ref-POL RIN2-Ref",-0.0814938836707071,-0.0980987197373737,-0.0123013084040404,0.177389926262626,0.26047724959596,0.16482812159596,0.168062132929293,0.0203590095959596,0.0984460115959596,-0.0458817878240404,-0.0707384578240404,-0.0819175658240404,-0.0171612864040404,0.0490663202626263,0.0239938849292929,-0.0928089277373737,-0.19489601840404,-0.147630851070707,-0.0297731944040404,0.0620003629292929,0.0302847290626263,-0.0045407276040404,-0.0715716005373737,-0.0481065366707071,0.0161763762626263,0.15610544919596,0.21150921299596,0.0872925600626263,-0.0155027619373737,-0.0574895104040404,-0.0557861167373737,-0.0357129820707071,-0.0982867160707071,-0.0766261630707071,0.0525347789292929,0.153596334262626,0.149991310929293,0.0571215222626263,0.0199753995959596,0.125118138929293,0.14645168559596,0.21004582159596,1488,"DG_s08",8.047,8.719,10.454,10.469,10,10,28,4,1.735,"Right",28,4,24,0,24,0,-24,24,"10-10",-18,6,28,10,4,10
"67",4,"POL LIN9-Ref-POL LIN10-Ref",-0.177347369854545,-0.360113413854545,-0.171307955787879,-0.142802794454545,-0.175596734454545,-0.213172521121212,-0.341843550454545,-0.344139619721212,-0.421936616521212,-0.262226529854545,-0.146743827254545,-0.0594712237878788,-0.211829570454545,-0.383132697121212,-0.597538636454545,-0.537182744454546,-0.433115642454545,-0.376770476454545,-0.344752171787879,-0.399680074454545,-0.436600161121212,-0.462817741121212,-0.339608153787879,-0.342137603787879,-0.330554041121212,-0.415627520454545,-0.248962437787879,-0.250231579787879,-0.252671707787879,-0.392746321787879,-0.416857734454545,-0.415022653787879,-0.417264745787879,-0.433939259787879,-0.435674713121212,-0.357105026454545,-0.157941057121212,-0.0872282037878788,-0.0465099304545455,-0.140682318454545,-0.203209695787879,-0.325554400454545,1488,"DG_s08",8.047,8.719,10.454,10.469,10,10,28,4,1.735,"Right",28,4,24,0,24,0,-24,24,"10-10",-18,6,28,10,4,10
"68",4,"POL LIN3-Ref-POL LIN4-Ref",-0.0446285250888889,-0.0452191484222222,-0.0389237344222222,-0.125432659688889,-0.0530428263555555,0.0606751789777778,0.0803005723777778,-0.0146335623555555,-0.0309998663555556,-0.0278494196222222,0.0450563544444444,0.0613269291111111,0.127138631777778,-0.0239301482222222,-0.0395394048888889,-0.0576984435555555,0.0692600571111111,0.0512371751111111,-0.0386914302222222,-0.0292177668888889,-0.0311266402222222,0.0600280064444445,0.0139583737777778,-0.0429238688888889,-0.0959095468888889,-0.139397413688889,-0.100746532355556,-0.146407876355556,-0.117135669555556,-0.0653573568888889,0.0175838353111111,0.0263090079777778,-0.0779123413555556,-0.102698851555556,-0.100739802888889,-0.0339835122222222,0.0587580464444444,0.101433609777778,0.107046253777778,-0.0386264982222222,-0.0822136868888889,-0.0787716374822222,1488,"DG_s08",8.047,8.719,10.454,10.469,10,10,28,4,1.735,"Right",28,4,24,0,24,0,-24,24,"10-10",-18,6,28,10,4,10
"69",4,"POL LIN1-Ref-POL LIN2-Ref",-0.206076336,-0.182623671333333,-0.210641264666667,-0.305384222,-0.275912251333333,-0.260778311333333,-0.218693972,-0.168016111333333,-0.102324741333333,-0.074704406,-0.263939578,-0.241649424933333,-0.310093710266667,-0.1671369556,-0.256574944666667,-0.1614516416,-0.2219070756,-0.127734184933333,-0.249769324666667,-0.235839028,-0.263023024666667,-0.122395574,-0.265513656666667,-0.224974222406667,-0.214458805406667,-0.124641375006667,-0.113016073266667,-0.250698374266667,-0.212059426666667,-0.275506207866667,-0.2003776772,-0.183089245866667,-0.164826747333333,-0.222247999333333,-0.243587216666667,-0.195294898,-0.0659688193333333,-0.032325108,-0.117839081333333,-0.195798945333333,-0.269329262666667,-0.309153869333333,1488,"DG_s08",8.047,8.719,10.454,10.469,10,10,28,4,1.735,"Right",28,4,24,0,24,0,-24,24,"10-10",-18,6,28,10,4,10
"70",4,"POL RIN5-Ref-POL RIN6-Ref",-0.250688034454545,-0.292368809121212,-0.284050242454545,-0.256036828187879,-0.222701414854545,-0.219042628187879,-0.235949824454545,-0.213364611787879,-0.172630213187879,-0.168443351187879,-0.151731738521212,-0.248146630454545,-0.354433990454545,-0.513213570454546,-0.548576544454546,-0.433335176454545,-0.383954037787879,-0.308865289121212,-0.266303399854545,-0.165367658521212,-0.130556619187879,-0.223386896454545,-0.318640597121212,-0.400457801787879,-0.391501335121212,-0.440166299787879,-0.315491955787879,-0.400298069121212,-0.310048370454545,-0.368290725787879,-0.225696690454545,-0.264929699787879,-0.257742350454545,-0.294391632454545,-0.277991603121212,-0.321165783787879,-0.337535779121212,-0.328466296454546,-0.224412993121212,-0.189966846454545,-0.178943885787879,-0.189181537787879,1488,"DG_s08",8.047,8.719,10.454,10.469,10,10,28,4,1.735,"Right",28,4,24,0,24,0,-24,24,"10-10",-18,6,28,10,4,10
"71",4,"POL RIN3-Ref-POL RIN4-Ref",0.306872742060606,0.213328495393939,0.180895872727273,0.116693833660606,0.00371234252727273,-0.0131592434727273,-0.0759015350727273,-0.0709204459393939,-0.0995380932727273,-0.122346977272727,-0.0680168419393939,-0.0743287152727273,-0.0453510826060606,-0.0322122359393939,0.0102626947272727,0.0673561100606061,0.111680556727273,0.127075332727273,-0.000916567272727275,-0.0990445107393939,-0.117958877406061,-0.124623464072727,-0.158664856606061,-0.157441563939394,-0.129150737272727,-0.138615867939394,-0.163719080606061,-0.119911004606061,0.0282925753939394,-0.0400017512727273,-0.0403279359393939,-0.142150201272727,-0.0489445453393939,-0.108665816672727,-0.112591231339394,-0.174518943272727,-0.207315203272727,-0.233335055606061,-0.270159018939394,-0.232796452272727,-0.194040674606061,-0.0329471606060606,1488,"DG_s08",8.047,8.719,10.454,10.469,10,10,28,4,1.735,"Right",28,4,24,0,24,0,-24,24,"10-10",-18,6,28,10,4,10
"72",4,"POL LIN11-Ref-POL LIN12-Ref",0.429592285141414,0.437582660474747,0.482379135808081,0.337341773808081,0.416007665808081,0.298583181141414,0.425623821141414,0.345498940474747,0.385791791808081,0.305130258474748,0.282111773141414,0.164288599808081,0.0866884344747475,0.0542557944747475,0.0374774878747475,0.0553042416080808,0.0464048562747475,0.124515869541414,0.0848584704747475,0.176771437141414,0.169685237141414,0.257404725141414,0.225597281141414,0.369598081141414,0.487598690474747,0.631794445808081,0.488530345808081,0.315131563141414,0.130025621808081,0.143979295141414,0.129135557808081,0.190425612474747,0.172767639141414,0.290793600474747,0.329892827808081,0.242187461141414,0.105222393141414,0.119676319141414,0.265386819141414,0.496612845808081,0.491545073514748,0.390081549514747,1488,"DG_s08",8.047,8.719,10.454,10.469,10,10,28,4,1.735,"Right",28,4,24,0,24,0,-24,24,"10-10",-18,6,28,10,4,10
"73",4,"POL LIN2-Ref-POL LIN3-Ref",-0.00827986315151515,-0.0899117498181818,-0.115281745818182,-0.200108236484848,-0.216179689818182,-0.238782457151515,-0.233702117151515,-0.247344954484849,-0.278307429151515,-0.102562475684848,0.0702261416484849,0.194992295648485,-0.0245249311515151,-0.126290022684848,-0.154522043351515,-0.0501959440181818,-0.129035852484849,-0.0577885351515151,-0.0610480544848485,-0.0477822878181818,-0.125141623151515,-0.0817410364848485,-0.0430255771515151,-0.104309699151515,-0.186332202484848,-0.257153819818182,-0.222107092284848,-0.217946944951515,-0.0512632869515151,-0.101988059818182,-0.0287303571515151,-0.0948713544848485,0.0544770281818182,0.0846623748484848,0.0752806301818182,0.0617816728484849,0.0957388661818182,0.0732732661818182,-0.0395907004848485,-0.178732092084848,-0.205978556751515,-0.140897816751515,1488,"DG_s08",8.047,8.719,10.454,10.469,10,10,28,4,1.735,"Right",28,4,24,0,24,0,-24,24,"10-10",-18,6,28,10,4,10
"74",4,"POL LAM8-Ref-POL LAM9-Ref",-0.0354059075555555,-0.174017525555556,-0.247511966888889,-0.279604151555556,-0.160781000222222,-0.196269427555556,-0.207850620888889,-0.317088798222222,-0.384534496222222,-0.305405302888889,-0.265565937555556,-0.163187607555556,-0.302682087555556,-0.384248948888889,-0.433885660888889,-0.434073194622222,-0.273165175288889,-0.174536587955556,-0.193484679555556,-0.297835493555556,-0.409871548222222,-0.322630863555556,-0.265103122888889,-0.215292756222222,-0.156932082222222,-0.240976450222222,-0.303236249555556,-0.366227094888889,-0.363840931555556,-0.325458661555556,-0.357095607555556,-0.347497270222222,-0.192405411555556,-0.117870650888889,-0.0534386628888889,-0.168261350888889,-0.268617399222222,-0.367170983488889,-0.438819635488889,-0.461206063155556,-0.405042544888889,-0.346986803555556,1488,"DG_s08",8.047,8.719,10.454,10.469,10,10,28,4,1.735,"Right",28,4,24,0,24,0,-24,24,"10-10",-18,6,28,10,4,10
"75",4,"POL RAM7-Ref-POL RAM8-Ref",0.130609071434343,0.0438536361010101,-0.0710927038989899,-0.0966677392323232,-0.0997564358989899,0.0391012841010101,0.178351470767677,0.147576976767677,0.0471270701010101,-0.0496821445656566,-0.0677160952323232,-0.0033193618989899,-0.0338165538989899,-0.0990200422323232,-0.15784602889899,-0.154561656232323,-0.123113734565657,-0.0249785678989899,-0.0111322338989899,-0.00390784923232323,-0.0415106692323232,-0.0350571494323232,0.11617058990101,0.12898177590101,0.10527742610101,0.0605076347676768,-0.0176952525656566,0.0630673774343434,0.0253465994343434,0.0602635287676768,0.0809785921010101,0.0857830221010101,0.0170229674343434,-0.0842653732323232,-0.187060790565657,0.00375070676767677,0.15968156410101,0.27189164810101,0.139564017434343,-0.0353929054989899,-0.0831806728323232,-0.00434214616565657,1488,"DG_s08",8.047,8.719,10.454,10.469,10,10,28,4,1.735,"Right",28,4,24,0,24,0,-24,24,"10-10",-18,6,28,10,4,10
"76",4,"POL RIN2-Ref-POL RIN3-Ref",-0.339156713737374,-0.16952731240404,-0.0795188710707071,0.0266820895959596,-0.0727661330707071,-0.16630320640404,-0.30451179840404,-0.34069053440404,-0.264253345070707,-0.26040396160404,-0.17520025560404,-0.15326555160404,-0.176665553737374,-0.153859775737374,-0.266375738270707,-0.225846618270707,-0.20544043760404,-0.149296095070707,-0.0954252104040404,-0.181611981070707,-0.113809265737374,-0.218379739070707,-0.310205889070707,-0.25696031040404,-0.182274127070707,-0.0860595075373737,-0.29407657420404,-0.291845408537374,-0.24941254540404,-0.124025940737374,-0.193143855470707,-0.231209133470707,-0.261844151470707,-0.276247035737374,-0.23103642040404,-0.31976570040404,-0.289301777070707,-0.45739239040404,-0.464362947070707,-0.419247695737374,-0.27228230240404,-0.151399645737374,1488,"DG_s08",8.047,8.719,10.454,10.469,10,10,28,4,1.735,"Right",28,4,24,0,24,0,-24,24,"10-10",-18,6,28,10,4,10
"77",4,"POL RAM8-Ref-POL RAM9-Ref",0.140516502929293,0.106449458262626,0.0204658475959596,-0.119929685737374,-0.15777893240404,0.00195360492929293,0.119426900929293,0.183061978929293,-0.00906711440404041,0.0207813102626263,-0.00103014973737374,0.0851194089292929,0.00575686826262626,-0.136941771737374,-0.175075611070707,-0.181763163537374,-0.0706922082040404,0.0825597924626263,0.0592654569292929,0.10740942359596,-0.00678519440404041,0.0808985202626263,0.11211593159596,0.0402912450626263,-0.0299392256040404,-0.171004464270707,-0.0857782897373737,0.00921248626262625,0.0762382942626263,0.0212318775959596,0.00182127892929293,0.0389502302626263,0.0181709435959596,0.0446632235959596,0.0199325562626263,0.162620702929293,0.251142302929293,0.21762956159596,0.0962348015959596,0.0141673482626263,0.160226836262626,0.152953122929293,1488,"DG_s08",8.047,8.719,10.454,10.469,10,10,28,4,1.735,"Right",28,4,24,0,24,0,-24,24,"10-10",-18,6,28,10,4,10
"78",4,"POL RIN11-Ref-POL RIN12-Ref",-0.0385808723979798,-0.00435012706464646,0.0297859169353535,0.0928998892020202,0.106149835868687,0.0334579858686869,-0.0873498954646465,-0.12447239479798,-0.108091735464646,-0.11304116479798,-0.21855942279798,-0.275141205464646,-0.366885308131313,-0.277945760131313,-0.171632716131313,-0.0528883854646465,-0.0237057681313131,-0.0602239807979798,-0.0922047401313131,-0.0616105761313131,-0.0111896141313131,0.0667328082686869,-0.00106525773131314,0.0894822516020202,0.104753562535354,0.166184709868687,0.0283401418686869,0.0321826723353535,0.109640848335354,0.240171253668687,0.284245515868687,0.22662192920202,0.149394992535354,0.0847038005353535,-0.0496905654646465,0.0236442852020202,0.138115439868687,0.191499754535354,0.113475859868687,-0.0381121507979798,0.000150337202020207,-0.0734313034646465,1488,"DG_s08",8.047,8.719,10.454,10.469,10,10,28,4,1.735,"Right",28,4,24,0,24,0,-24,24,"10-10",-18,6,28,10,4,10
"79",4,"POL LAM9-Ref-POL LAM10-Ref",-0.0606142077575758,-0.0604402364242424,-0.000450769757575742,-0.0769502590909091,-0.0918449044242424,-0.218173337757576,-0.292444194424242,-0.369849867757576,-0.342739022424242,-0.248877990710909,-0.238558330710909,-0.204679616710909,-0.285945289757576,-0.275134375757576,-0.296098503090909,-0.141726969757576,-0.0292620184242424,-0.0330100724242424,-0.131415354690909,-0.278469261357576,-0.282140086024242,-0.299272333090909,-0.280283051090909,-0.230738477757576,-0.113959435090909,-0.0500675417575757,-0.190400748424242,-0.273709113757576,-0.317816919757576,-0.214791669757576,-0.230237283090909,-0.199814091090909,-0.181720820624242,-0.160260835424242,-0.172145591424242,-0.245903332557576,-0.0854122057575757,-0.0162157104242424,-0.0732517830909091,-0.299308137090909,-0.401513488424242,-0.235102596424242,1488,"DG_s08",8.047,8.719,10.454,10.469,10,10,28,4,1.735,"Right",28,4,24,0,24,0,-24,24,"10-10",-18,6,28,10,4,10
"80",4,"POL RIN4-Ref-POL RIN5-Ref",0.232424361454545,0.224761109454545,0.251131762787879,0.165725872121212,0.145046806787879,0.104439414121212,0.0646036327878788,-0.0641839613454545,-0.0415092320121212,-0.0538382306787879,-0.0587853325454545,-0.155743105878788,-0.158713695212121,-0.0929181245454545,-0.0763867025454545,-0.0987670685454545,-0.111384840545455,-0.130427463212121,-0.0886254965454545,-0.110560475212121,-0.0322374012121212,-0.0754490072121212,-0.0303416305454545,-0.0936771958787879,-0.107253617212121,-0.0424929378787879,-0.0607707565454545,-0.0566751252121212,-0.0731138705454545,-0.0589296692121212,0.00796986812121212,-0.0193920612121212,-0.00198498321212121,0.0454572614545455,0.00541667278787879,0.0365123681212121,-0.0419912052121212,-0.0259249432121212,-0.114820196545455,-0.106646845212121,-0.120401319878788,0.0552062814545455,1488,"DG_s08",8.047,8.719,10.454,10.469,10,10,28,4,1.735,"Right",28,4,24,0,24,0,-24,24,"10-10",-18,6,28,10,4,10
"81",4,"POL LIN10-Ref-POL LIN11-Ref",-0.0799525187272727,-0.164396198460606,-0.0563516411272727,-0.125938818460606,-0.0700606607272727,-0.0322531180606061,0.0240960959393939,-0.162409637393939,-0.211601466060606,-0.0750742287272727,0.0813206992727273,0.0973240579393939,-0.0748927053939394,-0.0987583880606061,-0.191326074060606,-0.119219164727273,-0.251965136727273,-0.0990095447272727,-0.120592490727273,0.110843615939394,0.0855234172727272,0.177566497272727,0.147497323939394,0.257153490606061,0.253277321939394,0.154116175272727,-0.0174301247272727,-0.0830720268606061,-0.0352378515272727,-0.109522768860606,-0.0825171913939394,-0.120138306727273,-0.0796511380606061,-0.205518408727273,-0.272054630727273,-0.291914578327273,-0.255540222327273,-0.190612241660606,-0.171952924260606,-0.0897130355939394,-0.126126878260606,-0.164242332727273,1488,"DG_s08",8.047,8.719,10.454,10.469,10,10,28,4,1.735,"Right",28,4,24,0,24,0,-24,24,"10-10",-18,6,28,10,4,10
"82",4,"POL RIN10-Ref-POL RIN11-Ref",-0.0152138277777778,0.00451525622222222,0.0715887428888889,0.164099114222222,0.106519106222222,-0.0407138477777778,-0.0191667011111111,-0.0175226611111111,0.0839809688888889,0.00358484222222222,0.0165144208888889,-0.0513158195111111,-0.0410472595111111,0.00955484648888889,0.0462414367755556,0.0281328947755556,0.0758704654422222,0.142658726888889,0.100433375555556,-0.0496465987777778,-0.140962414111111,-0.161262747444444,-0.0753485026444444,0.0899391011555556,0.117821783155556,0.137064758022222,0.0441237222222222,0.0208009135555556,-0.0899666471111111,-0.0600881284444444,0.0663995048888889,0.144850758888889,0.0425226286222222,-0.0217410673777778,-0.0734910967111111,-0.0127879091111111,-0.0636203531111111,-0.0172135511111111,-0.0752131261111111,0.0360883805555555,0.0747211165555556,0.0835035275555556,1488,"DG_s08",8.047,8.719,10.454,10.469,10,10,28,4,1.735,"Right",28,4,24,0,24,0,-24,24,"10-10",-18,6,28,10,4,10
"83",4,"POL LIN12-Ref-POL LIN13-Ref",0.709089315836364,0.495077845836364,0.458127333636364,0.230623913636364,0.15837711030303,0.20365614630303,0.260002512969697,0.402758319636364,0.341687376969697,0.382915741636364,0.444272661636364,0.431948170969697,0.25224991430303,-0.00629499769696969,-0.15631925369697,-0.0866555883636364,0.0677539836363636,0.217437596969697,0.175027441636364,0.117493452969697,0.00116154763636364,0.0666299943030303,0.099277602969697,0.250616385636364,0.23763931430303,0.357869047636364,0.418430903636364,0.48600637030303,0.318935786969697,0.272748986969697,0.37966058030303,0.436229600969697,0.390708042169697,0.38394417550303,0.371226146169697,0.405856004969697,0.200156268969697,0.274052260969697,0.249115200969697,0.391841990969697,0.28008088430303,0.237016473636364,1488,"DG_s08",8.047,8.719,10.454,10.469,10,10,28,4,1.735,"Right",28,4,24,0,24,0,-24,24,"10-10",-18,6,28,10,4,10
"84",4,"POL RIN12-Ref-POL RIN13-Ref",0.439750525191919,0.266006031858586,0.185395202525253,0.0163722685252525,0.111963609191919,0.152212929858586,0.205325182525253,0.160717021858586,0.168624027791919,0.106124947791919,0.102892301125253,0.0683277611919192,-0.0507314774747475,-0.0455623848080808,0.0668111158585859,0.244921215858586,0.276096657858586,0.270085817191919,0.260230363858586,0.284309548525253,0.212648495058586,0.185221801058586,0.0895273017252525,0.0731514865252525,-0.00780902814141414,0.0745804185252525,0.184937472525253,0.240853885191919,0.312573394525253,0.404481915858586,0.450182988125253,0.463446645458586,0.330221047858586,0.187006111591919,0.0478136149252525,0.0219566625252525,0.100810636525253,0.113338753858586,0.0643385811919192,0.0757021371919192,0.180527780525253,0.379662116525253,1488,"DG_s08",8.047,8.719,10.454,10.469,10,10,28,4,1.735,"Right",28,4,24,0,24,0,-24,24,"10-10",-18,6,28,10,4,10
"85",5,"POL LIN9-Ref-POL LIN10-Ref",0.0490491753535354,0.146828646686869,0.167156925353535,0.148087184686869,0.0578246166868687,0.161920538020202,0.0805023046868687,-0.047027793979798,-0.196330146646465,-0.249651373313131,-0.156926228646465,0.00948955335353535,0.075009176020202,-0.0295321966464646,-0.165862839313131,-0.128995941313131,-0.0957526273131313,-0.118678727313131,-0.172043314646465,-0.157899745686465,-0.0884076856864646,-0.085454725019798,-0.148268107979798,-0.211730328646465,-0.291404866646465,-0.244399066646465,-0.160384048646465,-0.103660541313131,-0.236337821313131,-0.288648663313131,-0.317038314646465,-0.219495956646465,-0.218639241113131,-0.180760860446465,-0.0299596651131313,-0.0228907786464646,-0.058953977979798,-0.281524517979798,-0.304824881979798,-0.306079751313131,-0.171878784646465,-0.177938209313131,1489,"DG_s08",11.469,12.141,13.125,13.141,10,10,22,6,0.984,"Left",22,6,16,0,16,0,-16,16,"10-10",-12,4,10,22,10,6
"86",5,"POL LIN3-Ref-POL LIN4-Ref",0.00955852082626263,0.024504279959596,0.076424181959596,0.063198061559596,-0.0117170611070707,-0.179670627773737,-0.275105223373737,-0.201428972707071,-0.116380252707071,-0.0382257747070707,0.038954495959596,0.0473413852929293,0.0578414380262626,0.0120086900262626,0.0124810606929293,0.108656625292929,0.104526138626263,0.109130645292929,0.040074707959596,-0.0321019821737374,-0.0277059561737374,-0.0635550319737374,-0.113424544507071,-0.167851897173737,-0.226296904040404,-0.204755481373737,-0.145990972040404,-0.0827942013737374,-0.00394998804040404,0.140801509292929,0.429358505959596,0.497887012626263,0.357722645959596,0.128906319206263,0.00738133253959596,-0.0521004801270707,-0.227332386707071,-0.0996559474137374,-0.040011188080404,0.260191178586263,0.254866392626263,0.277151759292929,1489,"DG_s08",11.469,12.141,13.125,13.141,10,10,22,6,0.984,"Left",22,6,16,0,16,0,-16,16,"10-10",-12,4,10,22,10,6
"87",5,"POL RIN5-Ref-POL RIN6-Ref",-0.103150314060606,-0.0558204640606061,0.0301894259393939,-0.0130074387272727,0.0459375479393939,0.0103049159393939,-0.106789172727273,-0.191631676727273,-0.236793580060606,-0.114702966727273,-0.000952062727272718,0.0426767966060606,-0.0288329900606061,-0.236471096727273,0.00347546027272727,0.148008386939394,0.205668786272727,0.00109034327272728,-0.0980778127272727,-0.0691172253939394,-0.0126757990606061,0.0127287942727273,0.013420346939394,0.0111590872727273,-0.0503417307272727,-0.139995832060606,-0.196665024727273,-0.258126177393939,-0.326399908727273,-0.343695608060606,-0.156337674727273,0.0600790252727273,0.102575308606061,-0.0577768580606061,-0.136255584727273,-0.158290942060606,-0.181886402727273,-0.216460338060606,-0.175151734060606,-0.0771686120606061,-0.0748355067272727,0.0462795219393939,1489,"DG_s08",11.469,12.141,13.125,13.141,10,10,22,6,0.984,"Left",22,6,16,0,16,0,-16,16,"10-10",-12,4,10,22,10,6
"88",5,"POL RIN3-Ref-POL RIN4-Ref",0.165703918777778,0.114041129311111,0.141351514644444,0.227614941444444,0.286455350911111,0.272266118911111,0.199773647511111,0.126134906844444,0.0946381208444444,0.142481721444444,0.258255157444444,0.222423973444444,0.139674110111111,0.123994324777778,0.243568846111111,0.229449110111111,0.0528354561111111,0.0396284087777778,0.0371937474444444,0.212203644777778,0.276605758111111,0.326767404777778,0.208997303444444,0.128292773444444,0.148387950777778,0.236484674111111,0.268735471777778,0.209701072444444,0.0944301871111111,0.0304584074444444,0.0309215422311111,0.124280768231111,0.167496652897778,0.147872121444444,0.145748185444444,0.139038680844444,0.168961665511111,0.237514538844444,0.277838540777778,0.325004166111111,0.172301476111111,0.196577875444444,1489,"DG_s08",11.469,12.141,13.125,13.141,10,10,22,6,0.984,"Left",22,6,16,0,16,0,-16,16,"10-10",-12,4,10,22,10,6
"89",5,"POL LIN4-Ref-POL LIN5-Ref",-0.0789067001616161,-0.100340648161616,-0.133600986161616,-0.197753322828283,-0.300151322761616,-0.34263754809495,-0.339209010761616,-0.285862658828283,-0.12958126249495,-0.0506852704949495,-0.0411452961616161,-0.0665654264949495,-0.00815682649494948,-0.0182312054949495,-0.0944726768282828,0.00356554383838384,0.0606169905050505,0.0975200458383839,-0.0757233212282828,-0.0610357258949495,-0.0620852875616162,-0.0224583671616161,-0.0781763931616161,-0.119105413494949,-0.152341986628283,-0.141384299228283,-0.0691295058949495,0.0663027272383838,0.111926297171717,0.0309818309717172,-0.107564479028283,-0.185796704361616,-0.0147817781616162,-0.0481838301616161,-0.0785356714949495,-0.181202904828283,-0.127535662161616,0.00954638317171719,-0.0541203048282828,0.125263667838384,0.213845204038384,0.224276666905051,1489,"DG_s08",11.469,12.141,13.125,13.141,10,10,22,6,0.984,"Left",22,6,16,0,16,0,-16,16,"10-10",-12,4,10,22,10,6
"90",5,"POL RIN2-Ref-POL RIN3-Ref",0.0419494774343434,-0.0309231305656566,-0.102775735232323,-0.172308166565657,-0.171529580565657,-0.0982433338989899,-0.0522085398323232,-0.0205878294189899,0.00593275524767677,-0.0186994258056566,0.108619372447677,0.0193737884476768,0.0345340407676768,-0.141706140565657,-0.0669575605656566,-0.129498351232323,-0.0618459718989899,-0.0247906112323232,-0.0846838605656566,-0.0830667952323232,-0.10339564789899,0.0985132387676768,0.132536148767677,0.0806605467676768,0.0798381067676768,0.0808270867676768,0.160499526767677,0.11932532410101,0.13516052410101,0.0379830019010101,0.0277017645676768,-0.0914426047656566,-0.0170382338989899,-0.192344800565657,-0.113007548565657,-0.167023007232323,0.0393861461010101,0.186900733434343,0.28671137010101,0.34661089010101,0.283330566767677,0.176929371434343,1489,"DG_s08",11.469,12.141,13.125,13.141,10,10,22,6,0.984,"Left",22,6,16,0,16,0,-16,16,"10-10",-12,4,10,22,10,6
"91",5,"POL LAM8-Ref-POL LAM9-Ref",-0.142878760993939,-0.160473394327273,-0.152809134060606,-0.170035161393939,-0.150101571393939,-0.176669854727273,-0.157693106727273,-0.173516239393939,-0.0106667100606061,0.0601191212727273,0.0887989266060606,0.0093648746060606,-0.0602991453939394,-0.171068914727273,-0.220924238393939,-0.216839047060606,-0.139772697060606,-0.0903078833939394,-0.0239116200606061,0.0171649366060606,0.0164485728060606,0.0620303114727273,0.0559330161393939,0.0686545986060606,-0.0639004022806061,-0.128654506947273,-0.220071646280606,-0.161733800727273,-0.217322640727273,-0.228061511393939,-0.114703511393939,0.124624501939394,0.203998367272727,0.125006809272727,0.0463827026060606,-0.0395145393939394,-0.171557352727273,-0.172387749393939,-0.137011282727273,-0.122465251393939,-0.199902354727273,-0.171279826593939,1489,"DG_s08",11.469,12.141,13.125,13.141,10,10,22,6,0.984,"Left",22,6,16,0,16,0,-16,16,"10-10",-12,4,10,22,10,6
"92",5,"POL RAM7-Ref-POL RAM8-Ref",0.141432269587879,0.0423812722545455,0.103374168787879,0.288208670121212,0.303591020787879,0.199005800787879,0.0669005341878788,0.230646552854545,0.229925972854545,0.163633953454545,-0.0598845812121212,-0.0568020207454545,0.0746302732545455,0.156267688587879,0.129503700854545,0.0453614469878788,-0.0354893070121212,0.0342385162545455,-0.0248095725454545,0.0757261541212121,0.0460395521212121,0.123712918787879,0.0773058911212121,0.171998123787879,0.254346043787879,0.329486579787879,0.262407446454545,0.186934521787879,0.298079893454545,0.310795640787879,0.351869380121212,0.0685477934545455,-0.0505761085454546,-0.101240256545455,0.0502102014545455,0.124893939454545,0.139538330787879,0.166229579454545,0.262711067454545,0.323713059454545,0.197007116121212,0.123253886121212,1489,"DG_s08",11.469,12.141,13.125,13.141,10,10,22,6,0.984,"Left",22,6,16,0,16,0,-16,16,"10-10",-12,4,10,22,10,6
"93",5,"POL LIN11-Ref-POL LIN12-Ref",0.0489953350656566,0.0475510357323232,-0.0166816642676768,-0.0519399096010101,0.0693771397323232,0.0647784399323232,-0.0258624907343434,-0.18375224340101,-0.229245810267677,-0.145698806934343,-0.120979554267677,-0.00431593326767676,0.0166972440656566,-0.0244306932676768,-0.0716346294276768,-0.0791787487610101,-0.0959157247610101,-0.0921779649343434,-0.114905678934343,0.0192927743989899,0.0748556210656566,0.12121025839899,0.0125534350656566,-0.0570787649343434,-0.0792112916010101,-0.0200417882676768,-0.0553215529343434,-0.0547372761343434,-0.0444562371343434,-0.00212325046767677,-0.0629668012676768,-0.117631482267677,-0.0244496356010101,0.0397921717323232,0.16751944039899,0.0684214603989899,0.0880393603989899,0.0743913117323232,0.0741720990656566,0.0244578023989899,-0.0787298869343434,-0.134913080934343,1489,"DG_s08",11.469,12.141,13.125,13.141,10,10,22,6,0.984,"Left",22,6,16,0,16,0,-16,16,"10-10",-12,4,10,22,10,6
"94",5,"POL RIN9-Ref-POL RIN10-Ref",0.0445291973535354,-0.105340795979798,-0.0955131906464646,-0.0783413986464646,0.026770648020202,0.096129084420202,0.076139604420202,0.016566644420202,-0.0106391966464646,-0.036850265979798,-0.0580425446464646,-0.0877457346464647,-0.0656008586464646,-0.121841098646465,-0.0709753686464646,-0.0970213166464646,-0.0128586933131313,-0.181570559979798,-0.185158348513131,-0.187963528513131,-0.0892523778464646,-0.0665029606464646,-0.127313106179798,-0.182821292846465,-0.201030787513131,-0.0778234066464646,0.105022462686869,0.147284954953535,0.061768807620202,-0.0538843137131313,-0.137263533313131,-0.0642659326464646,-0.065973327979798,0.163831692020202,0.175407952686869,0.207892876020202,0.100878839353535,-0.0708796086464646,-0.160230340646465,-0.208204968646465,-0.089953217979798,0.0245174446868687,1489,"DG_s08",11.469,12.141,13.125,13.141,10,10,22,6,0.984,"Left",22,6,16,0,16,0,-16,16,"10-10",-12,4,10,22,10,6
"95",5,"POL RIN1-Ref-POL RIN2-Ref",-0.043536224959596,-0.0848923656262626,0.0323428217070707,0.118362268373737,0.126592643040404,-0.0105238882929293,-0.0460660596262626,-0.105577755292929,-0.162140963292929,-0.130188934626263,-0.0333639476262626,0.045011389040404,-0.00894045562626263,-0.0246682416262626,-0.00976002562626263,-0.0293879722929293,-0.0954628142929293,-0.148391898959596,-0.164222171626263,-0.081092304959596,-0.0435357496262626,0.028471345440404,0.000901722773737373,-0.0303863098929293,-0.162935867626263,-0.169674536292929,-0.209316685626263,-0.138586308959596,-0.173191877626263,-0.133486573626263,-0.126806070292929,-0.187550314959596,-0.0589057240929293,-0.0360387694262626,0.154689097240404,-0.0275715662929293,-0.00606140362626263,-0.175125795626263,-0.061017872959596,-0.0558309996262626,0.0237337257070707,-0.0682742996262626,1489,"DG_s08",11.469,12.141,13.125,13.141,10,10,22,6,0.984,"Left",22,6,16,0,16,0,-16,16,"10-10",-12,4,10,22,10,6
"96",5,"POL LIN12-Ref-POL LIN13-Ref",-0.282302887434343,-0.242109896967677,-0.278683361634343,-0.39209758830101,-0.400584401434343,-0.41220884610101,-0.37012454190101,-0.37127857790101,-0.356902751567677,-0.25167935110101,-0.176599222434343,-0.19445149410101,-0.354821885434343,-0.401140256767677,-0.304683351834343,-0.19977593250101,-0.23682528250101,-0.321428040767677,-0.395044333434343,-0.414596545434343,-0.326152453434343,-0.341524985434343,-0.354564632767677,-0.45199228610101,-0.519952900767677,-0.49536886410101,-0.46786379810101,-0.392756562767677,-0.36262181210101,-0.387770466767677,-0.37321609610101,-0.356861593434343,-0.320189226767677,-0.319980752767677,-0.38984081210101,-0.41238311410101,-0.34358389610101,-0.334046862567677,-0.276775145234343,-0.259051175234343,-0.106741868767677,-0.0590242821010101,1489,"DG_s08",11.469,12.141,13.125,13.141,10,10,22,6,0.984,"Left",22,6,16,0,16,0,-16,16,"10-10",-12,4,10,22,10,6
"97",5,"POL LAM9-Ref-POL LAM10-Ref",0.0796673760747475,-0.0587093838585859,-0.0284583465252525,-0.0591813254585859,-0.000934627458585861,-0.0356711594585859,-0.00909437452525252,-0.0108237795919192,0.0467838222080808,0.0748222242080808,-0.0151308033919192,-0.0685349171919192,-0.0585273038585859,0.00457875414141414,-0.0167957365252525,-0.146555689858586,-0.0939444754585859,0.0274821912080808,0.108004273208081,0.154977060141414,0.0960982254747475,0.194909223474747,0.104069124141414,0.0550350428080808,0.00195005680808081,-0.0679001538585859,-0.0926595891919192,-0.176021443858586,-0.0777926331919192,-0.0282346298585859,-0.0400956825252525,0.0129301661414141,0.121794230141414,0.180914803474747,0.131260256808081,0.0107912621414141,0.0213859621414141,0.0129968328080808,0.102315771141414,0.192021076208081,0.167851169541414,0.115121697208081,1489,"DG_s08",11.469,12.141,13.125,13.141,10,10,22,6,0.984,"Left",22,6,16,0,16,0,-16,16,"10-10",-12,4,10,22,10,6
"98",5,"POL RIN4-Ref-POL RIN5-Ref",0.0211594292727273,-0.116454434060606,-0.181520917660606,0.0225801423393939,0.0921921150060606,0.183238480606061,0.0295160872727273,0.00272101793939394,-0.123432056727273,-0.0825901700606061,0.0303536779393939,0.0695593026060606,0.0920483226060606,0.098491151939394,0.0291399732727273,-0.0265899267272727,-0.0194668740606061,0.0731655294727273,0.0718635361393939,0.00418191060606061,0.0186354884060606,0.0486716937393939,0.0258202646060606,-0.0337801620606061,-0.0433869533939394,0.0983867346060606,0.147918304606061,0.0872320572727273,-0.0741975220606061,0.00270171727272728,-0.0186316427272727,-0.0502851753939394,-0.140734839393939,-0.162519158060606,-0.173780266060606,-0.142059033860606,-0.109926663860606,-0.0613966278606061,-0.0808583473939394,-0.0622986480606061,-0.0571748949939394,0.0496258536727273,1489,"DG_s08",11.469,12.141,13.125,13.141,10,10,22,6,0.984,"Left",22,6,16,0,16,0,-16,16,"10-10",-12,4,10,22,10,6
"99",5,"POL RIN12-Ref-POL RIN13-Ref",0.300628385717172,0.233363999050505,0.287696760383838,0.386591253717172,0.380283131517172,0.424277004850505,0.196342778183838,0.176300451583838,0.252422366250505,0.240227004250505,0.290099269050505,0.0654837957171717,0.0275866117171717,-0.0399790618828283,0.131810808783838,0.170142288783838,0.121281127717172,0.0569478957171717,0.0358456183838384,0.106800472383838,0.0983731523838384,0.258527175717172,0.329412430383838,0.391642065050505,0.225326731877172,0.175971143210505,0.0986740698771717,0.154605789717172,0.0662595539838384,0.109838403317172,0.200361250650505,0.201700889050505,0.071675113050505,-0.0708137076161616,-0.0876240516161616,0.0700177683838384,0.112514291717172,0.116640842383838,0.0331833635838384,0.0585792489171717,0.0681266875838384,0.139018946383838,1489,"DG_s08",11.469,12.141,13.125,13.141,10,10,22,6,0.984,"Left",22,6,16,0,16,0,-16,16,"10-10",-12,4,10,22,10,6
"100",5,"POL RIN10-Ref-POL RIN11-Ref",-0.0326383190909091,0.00746555690909091,-0.104378417090909,-0.0908072070909091,-0.00501358909090908,0.282832003175758,0.208284689309091,0.128052509309091,-0.0539006496242424,-0.0906737157575758,-0.103009042424242,-0.0981354057575758,0.0114858195757576,-0.0382407890909091,0.00244814757575758,-0.0823015815575758,-0.0592635942242424,-0.108542128224242,-0.0849036466242424,-0.0677255160242424,0.0436027579757576,0.199376546842424,0.167522195575758,0.132172229575758,0.0609964362424242,0.118540545575758,0.205982961575758,0.175013821575758,0.124735260909091,-0.00983115709090909,-0.0760313837575758,-0.111749523757576,-0.140262889757576,0.0244825369090909,0.0515441002424242,0.0487601929090909,-0.0475506838242424,-0.0475935871575758,-0.0975531344909091,-0.131559664424242,-0.0640088577575758,0.0422609775757576,1489,"DG_s08",11.469,12.141,13.125,13.141,10,10,22,6,0.984,"Left",22,6,16,0,16,0,-16,16,"10-10",-12,4,10,22,10,6
"101",5,"POL LIN2-Ref-POL LIN3-Ref",0.219310771589899,0.105537196189899,0.050253736189899,0.0734068597232323,0.103397865856566,0.216718584736566,0.148807992536566,0.165639039203232,0.225590401656566,0.249044120989899,0.208350934323232,0.0229982343232323,0.097171592989899,0.0682497663232323,0.165009041656566,0.131781672323232,0.232986397656566,0.183727012989899,0.164670939656566,0.0934781503232323,0.0679297296565657,0.142538569656566,0.197779200189899,0.271284548856566,0.154568142209899,0.0716311196765657,0.0658395916765657,0.0931313585232323,0.196996609189899,0.150453901856566,0.140619885923232,0.272030211256566,0.267131903923232,0.158632026323232,-0.0617790183434343,-0.142360362343434,-0.00729047341010101,-0.007630875410101,0.164539446589899,0.296823957656566,0.438882904323232,0.331129515656566,1489,"DG_s08",11.469,12.141,13.125,13.141,10,10,22,6,0.984,"Left",22,6,16,0,16,0,-16,16,"10-10",-12,4,10,22,10,6
"102",5,"POL RIN11-Ref-POL RIN12-Ref",0.0965151191717172,0.00784743983838385,0.0178855696383838,-0.00591473569494949,-0.110481506361616,-0.00857575949494949,0.0121471865050505,0.0758225458383839,0.0368097865050505,-0.0755539655616162,-0.174281527561616,-0.303854038228283,-0.29761629549495,-0.241680717494949,-0.0370905314949495,0.0194280025050505,0.0604062906383838,-0.131054919361616,-0.146744109361616,-0.0677558954949495,0.00764153917171717,0.0799317598383839,0.0227347138383839,0.0484507046383839,-0.0121087593616162,0.00173273463838383,0.0363301111717172,0.0385810165050505,-0.0813596581616162,-0.119695310161616,-0.0235503294949495,0.0208226705050505,-0.0128375391616162,-0.111929505828283,-0.138424179161616,-0.0758442228282828,-0.139360813494949,-0.0574264741616162,-0.238882094161616,-0.152933772828283,-0.152440866161616,-0.0761375221616162,1489,"DG_s08",11.469,12.141,13.125,13.141,10,10,22,6,0.984,"Left",22,6,16,0,16,0,-16,16,"10-10",-12,4,10,22,10,6
"103",5,"POL RAM8-Ref-POL RAM9-Ref",0.00400002406060606,0.0629137853939394,0.141502945393939,0.148466987393939,0.0846130614606061,-0.0156724632060606,0.0455554234606061,0.135376526060606,0.167978226727273,0.0294654853939394,0.0147183933939394,0.0233864440606061,0.137607903553939,0.168525960887273,0.141027418820606,0.101653331327273,-0.0431089520060606,0.0308853613939394,-0.0150831012727273,0.0651602980606061,-0.0501047752727273,0.0157084060606061,0.0190952327272727,0.103727817393939,0.0616013367272727,0.0743203153939394,-0.0152021806060606,0.0604970147272727,0.0670531347272727,0.268141620727273,0.241419220727273,0.277391307393939,0.137751208060606,0.126547030727273,0.00612629072727273,-0.00687873060606061,-0.0670874446060606,0.00473616939393939,0.0456779080606061,0.0831522360606061,0.0317292313939394,0.000361810727272725,1489,"DG_s08",11.469,12.141,13.125,13.141,10,10,22,6,0.984,"Left",22,6,16,0,16,0,-16,16,"10-10",-12,4,10,22,10,6
"104",5,"POL LIN10-Ref-POL LIN11-Ref",-0.222361182949495,-0.0206331782828283,-0.00381541454949494,0.103083956983838,0.0590999523171717,0.0204694271838384,-0.145648226349495,-0.148134075682828,-0.148780888282828,-0.111591334949495,-0.171544204082828,-0.141885665416162,-0.000370568749494954,-0.0624961602828283,-0.0633931616161616,-0.116640534949495,-0.0930658182828283,-0.137154329616162,-0.0401734502828283,0.0785854577171717,0.163357102383838,0.019203999050505,-0.0989863889494949,-0.139101018949495,-0.169822351616162,-0.214945491616162,-0.203401952949495,-0.265863738282828,-0.183567706949495,-0.169506128949495,-0.0900545369494949,-0.0964854502828283,-0.147187176949495,-0.160331410949495,0.00249201771717172,0.0251778217171717,-0.0189799542828283,-0.183830658949495,-0.252431816282828,-0.159860419616162,-0.0745336216161616,-0.116202874949495,1489,"DG_s08",11.469,12.141,13.125,13.141,10,10,22,6,0.984,"Left",22,6,16,0,16,0,-16,16,"10-10",-12,4,10,22,10,6
"105",5,"POL LIN1-Ref-POL LIN2-Ref",0.108164643328283,0.0912883429282828,0.000793368594949495,0.0452984519282828,0.0287859889949495,0.134986556661616,0.185125893994949,0.146910541328283,0.202978559261616,0.0730405371949495,0.178329263861616,-0.0459523340717172,0.0667632153282828,-0.0410441493383838,0.0770029573282828,-0.0911472900050505,-0.0514665240050505,-0.0723212102450505,-0.0206886595783838,0.00498255108828283,0.0920458666616162,0.244267118661616,0.234198553328283,0.217621001994949,0.112763329328283,0.0315788026616162,0.000716744661616156,0.0135459879949495,-0.0156348186717172,-0.0360334173383838,-0.0882400333383838,0.000786219994949489,0.0311270926616162,-0.0137320280050505,-0.0991802260050505,-0.217756935338384,-0.167829362018384,-0.0375640706850505,0.00967158798161616,0.216546179328283,0.168012239328283,0.244493522661616,1489,"DG_s08",11.469,12.141,13.125,13.141,10,10,22,6,0.984,"Left",22,6,16,0,16,0,-16,16,"10-10",-12,4,10,22,10,6
