"","trial","time_1","time_2","time_3","time_4","time_5","time_6","time_7","time_8","time_9","time_10","time_11","time_12","time_13","time_14","time_15","time_16","time_17","time_18","time_19","time_20","time_21","time_22","time_23","time_24","time_25","time_26","time_27","time_28","time_29","time_30","time_31","time_32","time_33","time_34","time_35","time_36","time_37","time_38","time_39","time_40","time_41","time_42","time_43","electrodes","X","SID","newround_time","choice_time","buttonpress_time","reveal_time","self_payoff","other_payoff","self_foregone","other_foregone","RT","side_chosen","self_var_payoff","other_var_payoff","ineq_var_abs","ineq_choice_abs","ineq_foregone_abs","ineq_disadvent","ineq_advent","ineq_disadvent_choice","ineq_advent_choice","ineq_choice","chose_equality","self_diff","other_diff","L_self","R_self","L_other","R_other"
"1",3,0.19775227987404,0.144544129263839,-0.0453718870580468,-0.296924522079833,-0.379300225262846,-0.15983249766705,-0.0174823190528963,-0.0430178164822843,-0.22081075937775,-0.39833763716474,-0.304033169664589,-0.0156164886413599,0.385205875310256,0.78830358048888,0.902130562390155,0.711271240971271,0.381225431069216,0.0297705657976497,-0.224709074699313,-0.0134158952861059,0.463234096356961,0.797364007149924,0.780269573790624,0.373618656994211,-0.263139724898772,-0.430479970147342,-0.181400409282625,-0.21110003552081,-0.575380567523892,-1.10622832955211,-1.41370697727077,-1.2396732680909,-1.06159677593307,-1.17182988609198,-1.62891713058491,-1.63827477358992,-0.828690587504508,-0.10758536646001,0.349092524976228,0.505426208474732,0.346677278301265,-0.0536990596885696,-0.328177600143051,"POL LIN9-Ref-POL LIN10-Ref",1487,"DG_s08",5.094,5.766,7.047,7.047,10,10,8,8,1.281,"Left",8,8,0,0,0,0,0,0,0,0,"10-10",2,2,10,8,10,8
"2",3,0.104264232011889,-0.363503991741276,-0.147623570232048,0.406863329961436,0.713057366838562,0.734523486719214,0.700637283009324,1.01592274920062,1.49518727954182,1.76142322458311,1.69622261468324,1.3239831542034,0.773127725304563,0.240907604684415,-0.225319830033554,-0.738922147994227,-1.19602237240406,-1.23585865959955,-1.20411993898481,-1.28546333163568,-1.15653196754047,-0.614268429401722,0.247986655639713,1.02575999007919,1.53080004443364,1.71533684337518,1.57768888414298,1.13665543532724,0.521297528933022,0.00234632956758496,-0.0436681861482962,0.361926141198947,0.722175676208081,0.746720686626862,0.470612913833766,0.22124684232493,0.337164306092771,0.699452604708337,1.07105022321327,1.33698195328321,1.44441154911273,1.31131330146234,0.882213094901196,"POL LIN4-Ref-POL LIN5-Ref",1487,"DG_s08",5.094,5.766,7.047,7.047,10,10,8,8,1.281,"Left",8,8,0,0,0,0,0,0,0,0,"10-10",2,2,10,8,10,8
"3",3,0.194012348275562,0.243085968611231,0.016233077418617,-0.453331394305414,-0.843635475003865,-0.581968450129798,0.00879744853115128,0.500525368141115,0.779058502585059,0.801643348408714,0.642806083129626,0.60328350793246,0.995775988369459,1.60542203671732,2.09945863074671,2.38305160754081,2.46867667685486,2.35612974007045,2.02702563379323,1.5431908244205,1.11100323771377,0.767119526853429,0.527083103884941,0.71051261296215,1.10515355738875,1.37082934423909,1.39403760591641,1.17148718094451,0.740273396053384,0.360506178328219,0.520367373338065,0.941926907669831,1.18229927775388,1.21615375757074,1.16609217749285,1.11641290102409,1.00028182418359,0.874427798893251,1.12806307027972,1.63807414220493,2.0332371951347,2.24410664532579,2.34418652618685,"POL LIN1-Ref-POL LIN2-Ref",1487,"DG_s08",5.094,5.766,7.047,7.047,10,10,8,8,1.281,"Left",8,8,0,0,0,0,0,0,0,0,"10-10",2,2,10,8,10,8
"4",3,0.249391098538608,0.136985456345547,-0.0315945102591186,-0.354782044625034,-0.728431366624132,-0.717884562016061,-0.612095918341421,-0.775464987218787,-1.15798611000257,-1.21699118618349,-0.589401934808624,-0.203617697718666,-0.0824123112187571,-0.0128714375638754,-0.00544076913491764,-0.203724390560746,-0.533471675158689,-0.725406626281927,-0.721531069703199,-0.701883654241636,-0.547246450368236,-0.120831153347165,0.297314052440512,0.50567883640632,0.46589864367205,0.491085903388937,0.715868537609623,0.762574159481417,0.629089163033859,0.80928976258974,1.10722517237329,1.1801984532797,1.09256461716748,1.08565268711916,1.20913404075166,1.33518911635669,1.44120432949213,1.55190951865518,1.59943637199199,1.45340459545239,1.08741449166226,0.56054026037036,0.152109415272875,"POL RIN11-Ref-POL RIN12-Ref",1487,"DG_s08",5.094,5.766,7.047,7.047,10,10,8,8,1.281,"Left",8,8,0,0,0,0,0,0,0,0,"10-10",2,2,10,8,10,8
"5",3,-0.0598513160262399,-0.04338688744145,0.040438940675811,0.0627992627918825,-0.117131233582706,-0.36858145851928,-0.26432552303609,0.102141464076416,0.35212345928378,0.44555476481256,0.446834876706207,0.318713358466843,0.030700740281052,-0.279838960650963,-0.31869605982361,-0.0404480788609689,0.197727698392068,0.153574287430816,-0.189944391881413,-0.646094919574832,-0.876222909469263,-0.865818480109983,-1.00064104445127,-1.48682290847459,-2.00788706974661,-2.02999838574266,-1.84516504645265,-1.61094383905785,-1.24338015268945,-0.760633008943078,-0.186093443860683,0.353081895189868,0.715926298640605,0.795781012937791,0.61055097266591,0.298752082853987,0.122454154674946,0.214079659055622,0.438191477687239,0.608920497243558,0.64933297312054,0.546907259072846,0.327269419613744,"POL RIN5-Ref-POL RIN6-Ref",1487,"DG_s08",5.094,5.766,7.047,7.047,10,10,8,8,1.281,"Left",8,8,0,0,0,0,0,0,0,0,"10-10",2,2,10,8,10,8
"6",3,0.364647914750927,0.290519511292359,-0.0599384714576665,-0.595228954585618,-1.16831336650357,-1.75146990394426,-2.42145494361681,-2.81663515093865,-2.75960519434106,-2.75733093655545,-2.78116392799811,-2.65312546879352,-2.568770191411,-2.26274212159143,-1.66316368474939,-1.16321613062306,-0.982795132788393,-1.17772631929457,-1.58992978422758,-1.54478580046444,-0.937383419883613,-0.466732088783365,-0.250150629998357,-0.211427030832501,-0.218723137910381,-0.20761777882481,-0.250641928358611,-0.484626904491359,-0.977776695219315,-1.48223493992578,-1.57110862459288,-1.35408555617686,-1.03607219736136,-0.701757996106219,-0.484865767504557,-0.458275477543504,-0.593789453364048,-0.760862911489447,-0.773408219532381,-0.588953005893432,-0.33015555548619,-0.0497753717510765,0.184493789787497,"POL LIN12-Ref-POL LIN13-Ref",1487,"DG_s08",5.094,5.766,7.047,7.047,10,10,8,8,1.281,"Left",8,8,0,0,0,0,0,0,0,0,"10-10",2,2,10,8,10,8
"7",3,0.823096949239634,0.138974931002481,-0.445030403613398,-0.517041476628716,-0.585060901497237,-0.820099240463596,-1.22366139842567,-1.88931633072739,-2.45709283452047,-1.64194596842128,-0.430006052506705,0.660261325801679,1.50326958759985,2.04298734614173,2.24599249173912,2.13440395531599,1.75365876934823,1.11235960211696,0.1879210649141,-0.980365448166731,-2.39871073567546,-3.45499430416736,-2.83745948997592,-1.9467040860486,-1.15951597881849,-0.485757302016579,0.0788204840833941,0.46258317710493,0.632472056614761,0.72718785558637,0.817319597374278,0.996739913161482,1.30446273649671,1.56880916216819,1.6147771603282,1.39947578362911,0.96913363709478,0.590297905084039,0.435290660109933,0.298547080328511,0.0621434088532329,0.0106096615619062,0.432852093335439,"POL RIN9-Ref-POL RIN10-Ref",1487,"DG_s08",5.094,5.766,7.047,7.047,10,10,8,8,1.281,"Left",8,8,0,0,0,0,0,0,0,0,"10-10",2,2,10,8,10,8
"8",3,0.0443428092724307,-0.0852008081524875,-0.0412314385487917,0.0820894374288468,-0.0172467137696835,-0.445625011679939,-0.792135163807639,-0.377624262821343,0.415018575527229,1.11082927501239,1.5708501596634,1.76899267613361,1.76020504399762,1.60831665222745,1.27322690899021,0.76626921290096,0.171823271684827,-0.610122158088348,-1.44107546354985,-1.70492630506141,-1.22250395120369,-0.293340337356907,0.342918887249937,0.585653301781688,0.613243374888535,0.701794440395471,0.769086796949367,0.617047044449841,0.221299788163222,-0.194685269603722,-0.21174245606236,0.124424771226792,0.459136260502882,0.586176443755967,0.382403746338102,-0.028369778630065,0.00187511084248548,0.317928766960486,0.357718065772298,0.302674375932822,0.750587003023174,1.2556517641687,1.46670925646077,"POL RIN4-Ref-POL RIN5-Ref",1487,"DG_s08",5.094,5.766,7.047,7.047,10,10,8,8,1.281,"Left",8,8,0,0,0,0,0,0,0,0,"10-10",2,2,10,8,10,8
"9",3,-0.2669027074444,-0.376103026200951,-0.0148677315161301,0.657873465161478,1.22065922994913,1.46386555116644,1.31041613087727,0.933137980913587,0.903516460616219,1.24966744556774,1.429123796977,1.26582401250425,0.690795463433737,-0.370698249725256,-1.44855889247657,-0.806563028832551,0.0398381378070969,0.416506357449373,0.513065618973778,0.590515164408307,0.881916625471062,1.1474138345417,1.27357665707103,1.31739398946948,1.29239060805233,1.09539958052912,0.696394284736821,0.138117358866994,-0.498000012365615,-1.02029415608723,-0.716830499505827,0.208545520950093,0.824798037195148,1.06746306025438,0.949961180149154,0.506890751730069,-0.255831748922528,-1.15725012621851,-1.65732753713412,-1.22881507420198,-0.329389478986311,0.426217776192365,0.867854093479787,"POL LIN10-Ref-POL LIN11-Ref",1487,"DG_s08",5.094,5.766,7.047,7.047,10,10,8,8,1.281,"Left",8,8,0,0,0,0,0,0,0,0,"10-10",2,2,10,8,10,8
"10",3,-0.0969021634364431,0.0209437158963173,0.0346122076793911,0.0413462398607365,0.282297168460433,0.737659390452613,1.13652510170383,1.32777910308243,1.27726437054262,0.993569995096776,0.498584793059123,-0.139584744297851,-0.735953842583012,-0.856520349581006,-0.605209279557299,-0.287116779578252,0.145234087412947,0.644617619443938,1.02822207288847,1.17682962155478,1.03929158075472,0.631155910298435,0.251537606884934,0.333926707482426,0.618444457018622,0.688568429168566,0.442017741225586,0.131037560141261,0.27598677423711,0.604518110023168,0.770384863370499,0.715754816469703,0.464247676715368,0.11720749217322,-0.105422521712796,0.0832488645008347,0.39968226265198,0.573505388751288,0.569519442973204,0.349113409118353,0.0381393299276382,-0.0950656156291405,0.0424539322816884,"POL LIN3-Ref-POL LIN4-Ref",1487,"DG_s08",5.094,5.766,7.047,7.047,10,10,8,8,1.281,"Left",8,8,0,0,0,0,0,0,0,0,"10-10",2,2,10,8,10,8
"11",3,0.549084667322638,-0.0794626412773098,-0.207189773220217,-0.262432252825112,-0.00253091173122488,0.282211381369346,0.544164366114971,0.808870685156434,1.0888007808039,1.59509567104311,2.19701812423876,2.70270341966844,3.05716562004402,3.24419194210486,3.23680594186434,3.00810365809046,2.53592170099227,2.00031932906991,2.08308624196967,2.47010445323453,2.66079895215002,2.74369903277643,2.85744474822576,2.99746974912448,3.13576240051879,3.20642866544673,3.19695188854213,3.06401605307892,2.67666406886636,1.94772034749111,1.15467595685826,1.59437114583417,2.34621237898734,2.6961421963681,2.6491955787914,2.29075736302904,1.69373942202616,0.859861109851354,-0.0464258699881217,0.570547010924912,1.59874480756289,2.23189966181235,2.48572453302674,"POL RAM7-Ref-POL RAM8-Ref",1487,"DG_s08",5.094,5.766,7.047,7.047,10,10,8,8,1.281,"Left",8,8,0,0,0,0,0,0,0,0,"10-10",2,2,10,8,10,8
"12",3,0.305384774591362,0.293983727184591,0.0170030016169775,-0.61637150339293,-1.32244113592091,-0.846033099144622,0.194201286574501,0.904643559567383,1.23028768291486,1.25057969008103,1.08671444781295,0.874829777665903,0.696744694930407,0.594121871454519,0.69006104839508,0.966378690348964,1.23630768338957,1.3322733198942,1.19523767977157,0.852559946687721,0.37231468404087,-0.268314573552747,-1.24831454626562,-2.30617648245887,-1.58989443665003,-0.49148083381769,0.0556812084698581,0.100831110150059,-0.370158907643075,-0.995460409741362,-0.750840646037904,-0.112128672032977,0.138814453619071,-0.0145606771158366,-0.382861186170985,-0.625482742152327,-0.115904244312814,0.670359790261966,1.26430762281951,1.62096294910627,1.75536082972067,1.63798289838419,1.19725359780167,"POL RIN3-Ref-POL RIN4-Ref",1487,"DG_s08",5.094,5.766,7.047,7.047,10,10,8,8,1.281,"Left",8,8,0,0,0,0,0,0,0,0,"10-10",2,2,10,8,10,8
"13",3,0.263994584213161,-0.147337035574182,-0.352883045399507,0.236225496760528,0.903614437706072,1.33589171546881,1.51302169090681,1.44303443397721,1.18868917958583,0.920503594427175,0.906321715163343,1.1392322516843,1.4682547424343,1.84441114800413,2.17944034703012,2.35495827841735,2.28330587063196,1.93905661305738,1.38360698106136,0.935783288875542,0.878017173055071,0.985673229501756,1.02992781175055,1.10945529302148,1.33712953267287,1.63578063649522,1.9407649876701,2.22118214547004,2.37669646807062,2.38840153973091,2.36149629075435,2.45400267036864,2.63055592912985,2.75801117651154,2.8191743543541,2.83040455856409,2.78089344895069,2.58271203451811,2.1550950000996,1.53517343333303,0.856002483738346,0.25140553019711,-0.054450694141531,"POL LAM9-Ref-POL LAM10-Ref",1487,"DG_s08",5.094,5.766,7.047,7.047,10,10,8,8,1.281,"Left",8,8,0,0,0,0,0,0,0,0,"10-10",2,2,10,8,10,8
"14",3,0.277556782993372,-0.0688801143613453,-0.202314157804009,-0.00636251082801564,0.0603316171186616,0.0194838374081705,-0.0273659783441023,-0.217273769365653,-0.578237853508841,-0.861945777811809,-0.635293978525088,0.0626844186347046,0.673855214041982,1.00197010023464,1.14836123014485,1.21703125194243,1.17797879235521,1.01557890841938,0.877528119264625,1.00717258120038,1.41413388460894,1.76947267826674,1.85251021038363,1.75355509729351,1.69760542452438,1.78007646914591,1.79839310260515,1.57840412803945,1.23365627293671,1.11887908938976,1.20864559074818,1.31532219578632,1.39686966298232,1.37898180245116,1.13924108586245,0.672990162084924,0.310332095593393,0.295278906888649,0.252126927237068,0.00165019928257948,-0.212174935779064,-0.222849083380853,-0.265422522461463,"POL RIN12-Ref-POL RIN13-Ref",1487,"DG_s08",5.094,5.766,7.047,7.047,10,10,8,8,1.281,"Left",8,8,0,0,0,0,0,0,0,0,"10-10",2,2,10,8,10,8
"15",3,0.374687231445357,0.247835038339025,-0.0936656654362018,-0.528856604348183,-0.762445080743982,-0.717499779308982,-0.431947512146229,-0.0459928376225154,0.253995797113605,0.459865497200513,0.60290108281559,0.682822585713511,0.710138396360474,0.741838894457009,0.784090823328006,0.779445740865812,0.738934090689202,0.792815710889883,0.930556407693633,0.968894971706513,0.818461313456387,0.489407555417241,-0.0427899947757489,-0.755506357852637,-1.1799898175319,-0.973477281151769,-0.851166262890452,-1.14940928879859,-1.87290878219862,-2.82563299296117,-3.62950404604241,-3.2442312334607,-2.1775803786375,-1.29535071835183,-0.707451712832844,-0.411519114632171,-0.26152714127446,-0.250915507316913,-0.389835733727425,-0.620365449109363,-0.913784245341512,-1.2685476640438,-1.524155698451,"POL LIN2-Ref-POL LIN3-Ref",1487,"DG_s08",5.094,5.766,7.047,7.047,10,10,8,8,1.281,"Left",8,8,0,0,0,0,0,0,0,0,"10-10",2,2,10,8,10,8
"16",3,-0.404026085502363,-0.0624347409596577,0.179587607898499,0.286873218563523,0.236583413237568,0.0798306558175632,-0.0580006717667576,-0.143765720810849,-0.22909033554253,-0.324160955572022,-0.51201545986839,-0.910747163381847,-1.31165631246342,-1.23438673153275,-1.1287662843221,-1.39883318668513,-2.04874569614411,-2.86749957699512,-2.79309235806091,-1.81030305402037,-1.03489839540906,-0.634361677631363,-0.542684846787333,-0.665597446622661,-0.917246819348764,-1.22633145207243,-1.47925995345173,-1.513211553925,-1.33326382752116,-1.20292090588222,-1.2977217919987,-1.60187617978556,-1.85173965104387,-1.88174679455079,-2.00622955904103,-2.40112571579996,-2.99341228602493,-3.19067210431433,-3.05189367339104,-3.0079987525111,-3.21027181022279,-3.65039910895604,-3.78390122895147,"POL RAM8-Ref-POL RAM9-Ref",1487,"DG_s08",5.094,5.766,7.047,7.047,10,10,8,8,1.281,"Left",8,8,0,0,0,0,0,0,0,0,"10-10",2,2,10,8,10,8
"17",3,-0.34701430984917,-0.416270002061048,0.115285543396584,0.647998768513633,0.881039621784038,0.914893286043026,1.10754452080095,1.62826465619994,2.1217046929099,2.37878701256091,2.39383313140068,2.23650445219225,2.00615868585747,1.81623030478868,1.81331858084507,1.8345634241055,1.70881187277911,1.54652373292914,1.53697081239639,1.61194957676402,1.58971101803273,1.41500290095002,1.17057183352398,1.02342341079679,0.948331084106086,0.785630671669987,0.664022049431172,0.628021000488029,0.463992549402261,0.442960881839879,0.916692725017044,1.64257941889168,2.23927853938997,2.53241405893396,2.50509520169272,2.21999058311383,1.70132857673101,0.864837239826746,-0.281814935612426,-1.2804083951278,-1.06474258932774,-0.805335089655792,-0.526442837738549,"POL RIN1-Ref-POL RIN2-Ref",1487,"DG_s08",5.094,5.766,7.047,7.047,10,10,8,8,1.281,"Left",8,8,0,0,0,0,0,0,0,0,"10-10",2,2,10,8,10,8
"18",3,0.314302411273705,-0.0904963411091302,-0.138293293640606,-0.0855127765239683,-0.164071036062106,-0.468115365197953,-0.959558784143269,-1.45149387767831,-1.71945814271208,-1.50004051123718,-1.07921702810518,-0.583807052428742,-0.0850157833225449,0.288440938255738,0.525078100474337,0.645628781626138,0.613186668943996,0.37576578504512,-0.111825312532188,-0.748323445533281,-1.17204874564704,-1.09926354172575,-0.903114131557318,-0.74245708517258,-0.495886511977199,-0.224450342147566,-0.129361402086488,-0.375676882065095,-0.862275021993796,-1.14163256378291,-1.27331165825359,-1.69858624165634,-2.38829673597984,-3.03747651600444,-3.05702299034736,-2.17917304178063,-1.21310529155201,-0.358587404083742,0.298175197074119,0.698251653566565,0.848711237211775,0.777232018394873,0.558108236332332,"POL RIN10-Ref-POL RIN11-Ref",1487,"DG_s08",5.094,5.766,7.047,7.047,10,10,8,8,1.281,"Left",8,8,0,0,0,0,0,0,0,0,"10-10",2,2,10,8,10,8
"19",3,-0.410259015646725,-0.0866425714860526,0.1910126464563,0.305888940676477,0.201668903780086,0.0625420145439275,0.0973887458740954,0.120251891745234,-0.0604485492718503,-0.482113234492811,-0.628504745159788,-0.107094382722711,0.423795530476987,0.646613447382719,0.469591182343865,-0.0911081647723826,-0.764620614032604,-0.84424045578172,-0.321930960753568,0.167176359219185,0.311303704208084,0.0630425150548755,-0.505221183133256,-1.06845383822152,-1.02911081775555,-0.534544329351723,0.0086323852683039,0.464021998869544,0.791019290658387,1.06387305404942,1.40841845051865,1.83658179204153,2.21729766642547,2.49381785024033,2.59158597480271,2.41095283282919,1.91383427643714,1.18283387798306,0.532389185993834,0.312539115139295,0.222931017783877,-0.00466450419932762,-0.391125195382115,"POL LAM8-Ref-POL LAM9-Ref",1487,"DG_s08",5.094,5.766,7.047,7.047,10,10,8,8,1.281,"Left",8,8,0,0,0,0,0,0,0,0,"10-10",2,2,10,8,10,8
"20",3,0.29041332168913,0.15569707680465,-0.0931883971608531,-0.352922001332924,-0.521251755332059,-0.662250958258085,-0.784543671978577,-0.745254103455972,-0.653814520640898,-0.74925857821502,-1.10893074863246,-1.42867460962972,-1.18519435861164,-0.808475306963947,-0.405713852561838,0.166400774073812,0.558646051934859,0.572968031484468,0.248084702166373,-0.277539460544791,-0.884478837401547,-1.44937295680937,-1.65388813263668,-1.46606722394044,-1.27915522836814,-1.27831312305522,-1.41381418344279,-1.35800516270258,-0.760730459173841,0.110554192903461,0.834762104614207,1.26127676817002,1.34436611681176,1.06777173507406,0.490335016790086,-0.134013640802626,-0.527552746528498,-0.736239193980159,-0.688306927646307,-0.461426236028784,-0.309067382603113,-0.311198546831218,-0.430905950351686,"POL RIN2-Ref-POL RIN3-Ref",1487,"DG_s08",5.094,5.766,7.047,7.047,10,10,8,8,1.281,"Left",8,8,0,0,0,0,0,0,0,0,"10-10",2,2,10,8,10,8
"21",3,0.425588775422831,0.241756897193937,-0.141770094121512,-0.52557557849526,-0.657019631718677,-0.700304783162141,-0.900129069923846,-1.29805844190292,-1.76913354523665,-1.95631907779304,-1.83527962267873,-1.7345164383789,-1.79002366212029,-1.73706630742556,-1.32032676043473,-1.00028618815109,-1.05333554517325,-1.50168159249744,-2.34490564300136,-3.11565030672314,-2.3975461683458,-1.50146452734512,-1.04230453056749,-0.965923248100651,-1.04149820896277,-1.12860484463475,-1.31134506098545,-1.64116135936139,-1.83767124244477,-1.78550184433159,-1.54950681609667,-1.37514699913813,-1.53747002824798,-1.86660517294957,-1.90054097582738,-1.8174174303254,-1.91754420647547,-2.20500694531349,-2.34226801829666,-1.85076542571995,-1.17716200746007,-0.707897135289215,-0.498894669931731,"POL LIN11-Ref-POL LIN12-Ref",1487,"DG_s08",5.094,5.766,7.047,7.047,10,10,8,8,1.281,"Left",8,8,0,0,0,0,0,0,0,0,"10-10",2,2,10,8,10,8
"22",4,1.04016794254392,0.59902385315967,-0.272396648036988,-1.3667951476666,-2.03742724660821,-1.57803379647449,-1.00237383734011,-1.10852338548783,-1.60698942760311,-1.55908236477254,-1.27873309196162,-0.547850998996742,0.0820147316156827,0.289373972035635,0.203914385487826,0.26959755551739,0.678342118265217,1.18302420474135,1.55281884330295,1.65870907131352,1.55552904693644,1.40499485248599,1.31036362711795,1.22029331836839,1.06769326685617,0.881824737039519,0.731724716952479,0.653739358177376,0.567539855372612,0.256895992610872,-0.292399204449875,-0.787695473577951,-0.778387695231242,-0.690069490435052,-0.47120421189129,0.120003646024909,0.608504917681859,0.728586536481576,0.565980936599884,0.305008267928111,0.00534765461804732,-0.385457042106367,-0.336605605042404,"POL LIN10-Ref-POL LIN11-Ref",1488,"DG_s08",8.047,8.719,10.454,10.469,10,10,28,4,1.735,"Right",28,4,24,0,24,0,-24,0,0,24,"10-10",-18,6,28,10,4,10
"23",4,0.496330157924879,0.244800830812935,-0.122265307253475,-0.618865681484337,-0.61211953491898,0.0755592624122947,0.480172709730542,0.438494148319586,0.0772854064110078,-0.353947520939322,-0.448726939665972,-0.100308292149316,0.379132575318017,0.718709022908211,0.920434428880171,1.05399607420551,1.0760154918033,0.990873028064378,0.835247577086015,0.526902292087007,-0.0210926117734669,-0.834217763954774,-1.8849998373299,-2.72414971442156,-2.22905598278848,-1.51023636046105,-0.929123174942781,-0.373645127493809,0.0986145037081627,0.244959367205295,-0.0160995133193502,-0.39349837110246,-0.0538920872857993,0.467741418862799,0.673460108496995,0.526567419933281,0.0588578081340216,-0.414673134640424,-0.0925025476609704,0.365229891939963,0.349247687202086,0.00544172314072355,-0.190892062769104,"POL LIN2-Ref-POL LIN3-Ref",1488,"DG_s08",8.047,8.719,10.454,10.469,10,10,28,4,1.735,"Right",28,4,24,0,24,0,-24,0,0,24,"10-10",-18,6,28,10,4,10
"24",4,0.320470098236504,-0.120701303849744,-0.120474192422225,-0.079294601964536,-0.1455671235693,-0.304619773996765,-0.422018976692539,-0.291735619365391,-0.000413434447549932,0.20548896715365,0.172367839241755,-0.150410595822068,-0.659531521515546,-0.815752570242517,-0.670196984651193,-0.711365390385517,-1.0495920224213,-1.1826306423683,-0.910630460269451,-0.882930592357096,-1.32906559216371,-2.00310001279522,-2.09145689793405,-1.34448809239731,-0.530377303888652,0.0794143000532301,0.476726766310465,0.69524801591049,0.785573793088437,0.75099362943503,0.523855147522964,0.0835198436570206,-0.411672806177375,-0.637868981931297,-0.583919567695742,-0.583152817551057,-0.497314355388908,-0.121922912263145,0.368727850515356,0.6799647043345,0.6613836972664,0.294698861328797,-0.3224546416328,"POL LAM9-Ref-POL LAM10-Ref",1488,"DG_s08",8.047,8.719,10.454,10.469,10,10,28,4,1.735,"Right",28,4,24,0,24,0,-24,0,0,24,"10-10",-18,6,28,10,4,10
"25",4,0.189831124055713,0.183749985471659,0.0073951704189863,-0.380976279946358,-0.995044085258224,-1.7474475057602,-2.39835376537111,-2.69667030208642,-2.61532679916775,-2.05508093119132,-1.37217206881509,-0.806548390424126,-0.460254521753162,-0.477309284354559,-0.937265847061497,-1.79162085808182,-2.52859646086745,-2.36504936649547,-1.82853820376018,-1.40742249219176,-1.22838661109128,-1.31519043827716,-1.63408007374844,-2.10128562726265,-2.48445003624715,-2.50885446011545,-2.44071377095639,-2.52254666136004,-2.5838410797755,-2.07292995564914,-1.2737263141998,-0.64146639498505,-0.348577256683548,-0.42487609674105,-0.865737891532818,-1.57084476161457,-2.34736872984987,-2.98712516193731,-3.44004442867216,-3.38344532130678,-2.72309928609769,-1.95420079704218,-1.4024438524402,"POL LIN3-Ref-POL LIN4-Ref",1488,"DG_s08",8.047,8.719,10.454,10.469,10,10,28,4,1.735,"Right",28,4,24,0,24,0,-24,0,0,24,"10-10",-18,6,28,10,4,10
"26",4,0.218843822800737,0.107723810386359,-0.0701818680713497,-0.256385765115747,-0.526677709848389,-1.00524420317257,-1.71695023182553,-2.21673895425855,-1.92321169986244,-1.35540403736271,-0.925882282596467,-0.67413426466072,-0.58100749183734,-0.631188501615338,-0.873257314445842,-1.14034253558286,-0.965013959035462,-0.571356380353233,-0.329899472804302,-0.257088533270231,-0.209869297574375,-0.0693398718429705,0.13220739481141,0.264242564126883,0.25079572783943,0.0467296387892286,-0.397315354814481,-1.09592363197152,-2.00783230700798,-2.81353330447205,-2.73204639899428,-2.4339546585048,-2.43443696808799,-2.47580471223761,-2.04583738507609,-1.44920666272427,-1.08692785326924,-0.997156044662823,-1.13489714080918,-1.51089485167746,-2.09545729388371,-2.5724877633191,-2.34635793244104,"POL RIN5-Ref-POL RIN6-Ref",1488,"DG_s08",8.047,8.719,10.454,10.469,10,10,28,4,1.735,"Right",28,4,24,0,24,0,-24,0,0,24,"10-10",-18,6,28,10,4,10
"27",4,0.615712374543863,0.101070537481594,-0.260113514781996,-0.456669397243462,-0.411491964043401,-0.0590865948501369,0.300778686779773,0.466011132729465,0.423620239143132,0.244310770001821,0.0552736699285585,-0.165248794086324,-0.558838165729705,-1.11270808878009,-1.21512661492855,-0.564882981883695,0.113285465842714,0.534476535844879,0.673756031858774,0.53095691798344,0.134845484460357,-0.48617006164016,-1.18368728670015,-1.28302431550938,-0.651954765409331,-0.0352323435692456,0.451238052000411,0.7817221177931,0.919868971621893,0.848956252810108,0.61144372469836,0.289143495674476,0.11958880225698,0.283114681045427,0.518075867001103,0.585021216896367,0.522033267021223,0.425102727523857,0.307188518521709,0.148205243856242,0.0391061519783822,0.157403598721077,0.358327276349335,"POL LIN4-Ref-POL LIN5-Ref",1488,"DG_s08",8.047,8.719,10.454,10.469,10,10,28,4,1.735,"Right",28,4,24,0,24,0,-24,0,0,24,"10-10",-18,6,28,10,4,10
"28",4,0.77980975537234,0.214263485344834,-0.484780690795578,-0.509292549921596,-0.0782531590263842,0.17811904197677,0.249894257120315,0.512027272754137,1.09477279534005,1.62841252234794,1.87917908728214,1.8153540575531,1.55343204157328,1.34167107839489,1.32086149729945,1.40414802035028,1.38832132779958,1.06931195008647,0.553457241384996,-0.000825776739542761,-0.171193017777059,0.140797573247908,0.607868536199204,1.35395209062797,2.03604124528156,2.39178864635187,2.35786332659218,2.02320016997103,1.71198232778261,1.57346857559099,1.31223046401129,0.833012001227252,0.143274072547276,-0.705073074718157,-0.981418894147398,-1.08264465990384,-1.14588951980019,-0.526115770545599,0.420728305671478,1.33694406884503,1.84501895664673,1.83621152036216,1.32396510545023,"POL LIN9-Ref-POL LIN10-Ref",1488,"DG_s08",8.047,8.719,10.454,10.469,10,10,28,4,1.735,"Right",28,4,24,0,24,0,-24,0,0,24,"10-10",-18,6,28,10,4,10
"29",4,-1.04380282677424,-0.206050156186576,0.426296299712419,0.823556683248389,1.0066797551058,1.01447792985234,1.00034970573344,1.08074097115153,1.16784149456422,1.20537049959859,1.28556510015492,1.36042842025016,1.30238080303236,1.06843575808975,0.698871383470317,0.227085159007634,-0.342367606228551,-0.977154119110278,-1.48774498843151,-1.50073902551806,-1.19545040181883,-0.933044242120378,-1.01494203917191,-1.52010985556718,-2.33623834416589,-3.03400529393268,-3.01161184885274,-2.84363647810764,-2.62552723978028,-2.07065868859176,-1.38750445342933,-0.875824101790485,-0.619124702733053,-0.578239899124195,-0.338962918980956,0.430451204034707,1.10222079302504,1.43060681961952,1.44278454123857,1.16097629994086,0.551619037186619,-0.45232861072467,-1.30757211494083,"POL RIN4-Ref-POL RIN5-Ref",1488,"DG_s08",8.047,8.719,10.454,10.469,10,10,28,4,1.735,"Right",28,4,24,0,24,0,-24,0,0,24,"10-10",-18,6,28,10,4,10
"30",4,-0.269947309814793,-0.177864948421769,0.0495238838733307,0.398288374363233,0.684831151044559,0.828974165846411,0.852809401945541,0.777100924096324,0.595127834508713,0.301228506676427,-0.0199505378075759,-0.310207068854609,-0.626418814130064,-0.863118678697514,-0.757160091742639,-0.664903757419252,-0.925940380096817,-1.54147859297936,-1.93503907431096,-1.27803956037918,-0.443456723992483,0.0588781354810823,0.117947008882046,-0.270875444787789,-1.10889162018089,-2.3146296500314,-2.37014556162994,-1.31870789774702,-0.578378977597399,-0.289314925317644,-0.363311205642326,-0.43258999212839,-0.0509018834219876,0.536097276517527,1.00385164604798,1.23703383553067,1.22769680817239,0.9986473095808,0.557687909109895,-0.127246373651836,-1.02880007365115,-1.9085253385507,-2.14126615195847,"POL RIN2-Ref-POL RIN3-Ref",1488,"DG_s08",8.047,8.719,10.454,10.469,10,10,28,4,1.735,"Right",28,4,24,0,24,0,-24,0,0,24,"10-10",-18,6,28,10,4,10
"31",4,-0.182369861350487,-0.0428791299339144,-0.00255540002977561,0.227804391314177,0.639220868152455,0.8849251269351,0.828563978161366,0.413763260510066,-0.321267234255789,-1.13506020020244,-1.21238946843101,-0.497719717970228,0.189170699999561,0.718671623440963,1.15379287216368,1.5329383806704,1.87298321776547,2.19293811154012,2.38709841715435,2.32715317761415,1.98635316137908,1.51370016710446,1.33780396659117,1.6477530064858,1.95311478736888,2.19348508768737,2.43555810709025,2.63112714988558,2.69082660232173,2.53275524173871,2.12064662957562,1.48079043301566,0.80427736943896,0.445414703058113,0.329200787447514,0.316657728669869,0.556006486617191,0.747363242386031,0.73245272393209,0.616488850020428,0.498840353847726,0.302893513573366,-0.0458861371544392,"POL RIN12-Ref-POL RIN13-Ref",1488,"DG_s08",8.047,8.719,10.454,10.469,10,10,28,4,1.735,"Right",28,4,24,0,24,0,-24,0,0,24,"10-10",-18,6,28,10,4,10
"32",4,0.0874432472101265,0.0377438441944324,-0.0385707182569188,-0.0866163731476366,-0.170353982586692,-0.370814898107231,-0.504939782127064,-0.275259032043023,0.123553278202886,0.451556998863708,0.662160999897932,0.745893589098415,0.668196811882177,0.396021078963352,-0.0904440814474317,-0.74251031107999,-1.11425313788255,-0.922627797666181,-0.519749242080636,-0.0964387042546448,0.311361918060735,0.624234736737328,0.781403037855732,0.736004113573376,0.458427298966269,-0.0573779551772429,-0.75414561711221,-1.30738368176442,-1.34252245516504,-1.17320498279429,-1.13681422828732,-1.34683449976444,-1.70763183892418,-1.78100648646014,-1.23174158955004,-0.574309656446001,-0.101008705930839,0.196428319748911,0.350765904983886,0.321408921352946,0.0618549570121356,-0.412821477769601,-1.04727824568761,"POL RIN3-Ref-POL RIN4-Ref",1488,"DG_s08",8.047,8.719,10.454,10.469,10,10,28,4,1.735,"Right",28,4,24,0,24,0,-24,0,0,24,"10-10",-18,6,28,10,4,10
"33",4,0.431107196738144,0.195188067619966,-0.135548798916503,-0.490746465441607,-0.631865088705373,-0.621274503357961,-0.815547506632942,-0.9734069673716,-0.588701737810383,-0.189827855742656,-0.112079102868278,-0.273509532199149,-0.619770677164518,-1.0905418598097,-1.38255494925378,-1.09553647828627,-0.589559003186501,-0.236019329280137,-0.09786899079932,0.0533776224221771,0.354940721947163,0.60353147522182,0.623616608130471,0.36387216900435,-0.219060661673063,-1.18900340770746,-2.22978331496204,-1.88351031403114,-1.29488988149344,-1.21850005060522,-1.74932617859342,-2.70867968211934,-3.36806571682425,-3.51175072846701,-3.75791048274903,-3.08667018644225,-1.86845376261746,-1.09526624453243,-0.763463254909402,-0.807889968344499,-1.24001150126279,-1.92642630424791,-2.32759075085499,"POL LAM8-Ref-POL LAM9-Ref",1488,"DG_s08",8.047,8.719,10.454,10.469,10,10,28,4,1.735,"Right",28,4,24,0,24,0,-24,0,0,24,"10-10",-18,6,28,10,4,10
"34",4,-0.374024682292776,-0.0875120311108031,0.072227790468979,0.389308922934603,0.869165761578133,1.18561964586447,1.27667784854956,1.24007728754883,1.18259129484134,1.11509972499806,0.973280688534331,0.677906270459394,0.415472226379151,0.599908268177821,0.860832380018989,0.808747626817373,0.445086807536573,-0.0436922641992332,-0.413775630160609,-0.567233597297381,-0.40498615399426,-0.156397041564091,-0.200881920975036,-0.596532455947967,-1.23766450896553,-2.04478753896172,-1.87826191922923,-0.931392097355088,-0.226822034941909,0.15724815479793,0.306375276179923,0.287583873562896,0.0697526473114394,-0.455129029566121,-1.35486725434207,-2.43762297399627,-2.40789617939035,-1.82651314772153,-1.20234664122097,-0.562542726205773,-0.0504153014314639,0.297568227858219,0.451057673487247,"POL RIN9-Ref-POL RIN10-Ref",1488,"DG_s08",8.047,8.719,10.454,10.469,10,10,28,4,1.735,"Right",28,4,24,0,24,0,-24,0,0,24,"10-10",-18,6,28,10,4,10
"35",4,-0.101055951148197,-0.0315686949944283,0.0917631917776447,0.0408614543649772,-0.24225273751504,-0.639023911433103,-0.922728449718882,-1.07730241488446,-1.33509570341935,-1.82479878421811,-2.4470887713798,-2.72316210308336,-2.33908818495651,-1.48202689118973,-0.66469066290972,-0.162962268804323,0.0566606112503969,0.11019487785906,-0.0308555807946309,-0.41618684623184,-0.434109704648566,0.285184476866512,0.87649884826998,1.20270094095741,1.31546072314543,1.20552064758597,0.808682813569609,0.133749850227414,-0.667947512568682,-1.18794552477923,-1.03651289896893,-0.678599318773774,-0.508955771164908,-0.554679970539897,-0.814036041637646,-1.02425278781876,-0.765870830812121,-0.295982425854307,0.0938419981579379,0.287105507544769,0.223006055242612,-0.032353708415652,-0.290976853667539,"POL RAM8-Ref-POL RAM9-Ref",1488,"DG_s08",8.047,8.719,10.454,10.469,10,10,28,4,1.735,"Right",28,4,24,0,24,0,-24,0,0,24,"10-10",-18,6,28,10,4,10
"36",4,0.918409711316359,0.26736421325816,-0.617038151545623,-0.5687357730289,0.472848705290684,1.34822808420376,1.9026503339133,2.16686183932991,2.15031674724847,1.82802209113117,1.20955250804082,0.43406174826606,0.102405232316924,0.321076833577429,0.336272667351702,0.264015825978756,0.530090742233339,0.713505438148074,0.541976286718471,0.337383030459982,0.339694297732594,0.527302210449696,0.86707471116298,1.10877682235582,1.14414894007161,0.946472362082854,0.594875080525561,0.31285922681665,0.415804302844721,0.676200186824742,0.761468559596583,0.594546499445224,0.177438619107491,-0.402455083609233,-0.630434654020471,-0.149575000523731,0.487972137675003,0.907734870842845,1.03253518875229,0.90998819010748,0.514824768029046,-0.0121463130927264,-0.147233843076672,"POL LIN12-Ref-POL LIN13-Ref",1488,"DG_s08",8.047,8.719,10.454,10.469,10,10,28,4,1.735,"Right",28,4,24,0,24,0,-24,0,0,24,"10-10",-18,6,28,10,4,10
"37",4,0.228314906359621,0.0189933982365602,-0.184182151214369,-0.0631261533818162,0.228480419035511,0.297999071254601,0.00211825502304031,-0.55338975862108,-0.848186542980697,-0.589293096341361,-0.242704467005948,0.0679746552145204,0.364394913435993,0.589751174296998,0.68389001505709,0.618583843463755,0.438440969279906,0.253916827588396,0.140721509745523,0.101226126255151,0.193164468238804,0.425251788420754,0.620523997792221,0.632012839278492,0.450972795729143,0.104541219205172,-0.370927547785602,-0.867509394189076,-1.02440668139847,-0.7699688171151,-0.522078972669975,-0.505300288856956,-0.735113471492344,-1.05573125914186,-1.41839021033938,-1.82296801964157,-1.7051373020428,-0.858111940526415,-0.0958519798279642,0.296814755573321,0.351892933476185,0.169805404298556,-0.144714632508952,"POL RIN11-Ref-POL RIN12-Ref",1488,"DG_s08",8.047,8.719,10.454,10.469,10,10,28,4,1.735,"Right",28,4,24,0,24,0,-24,0,0,24,"10-10",-18,6,28,10,4,10
"38",4,0.959192416920368,0.354519003640339,-0.398941424399727,-0.914769996160984,-1.05991405663752,-1.30105058468987,-1.1696994620525,-0.616788362736587,-0.301642753480982,-0.191920771247954,-0.02168655147082,0.208748636897482,0.289536713187255,0.0830523133109722,-0.32466516157396,-0.493342136071484,-0.40892365600097,-0.495176413641367,-0.924471405420133,-1.19172189832132,-0.6597517601765,-0.0527651019590625,0.336265293895206,0.606583977808008,0.777620020151836,0.83007228812583,0.731365563324212,0.448739579738378,-0.0315038992207253,-0.64922066661703,-1.07790703337566,-1.03010445633889,-0.820779970437458,-0.605226504164329,-0.240749249198416,0.145006066321438,0.306652442714681,0.191403650857149,-0.0419004197234436,-0.294857733105379,-0.493421817346426,-0.632873038647017,-0.787565883252192,"POL RAM7-Ref-POL RAM8-Ref",1488,"DG_s08",8.047,8.719,10.454,10.469,10,10,28,4,1.735,"Right",28,4,24,0,24,0,-24,0,0,24,"10-10",-18,6,28,10,4,10
"39",4,0.535851775120528,-0.115160637279298,-0.323172920823652,-0.0975182170175781,0.365562055304165,0.739939162276111,0.928170462050152,0.966637799179062,0.898814021450824,0.793024227742374,0.62298573678222,0.316136647893241,0.104847291942153,0.122857826490987,0.127917965353002,0.0933350353753193,0.0291684280827109,-0.0144473753873706,-0.0129755991188283,0.16444360516041,0.652365492962626,1.11963150038147,1.32215383828779,1.23937733585055,1.06881619567333,1.37428679893376,2.0725275966903,2.6493001886105,2.95162568494951,2.93306306045273,2.58368296374967,1.92766307811049,1.15456419473381,0.993243312549327,1.271233043501,1.17153944992293,0.556583112139459,-0.302548642153829,-0.469171558103582,0.179765692255713,0.657717475943175,0.832511721176568,1.17276762798766,"POL RIN10-Ref-POL RIN11-Ref",1488,"DG_s08",8.047,8.719,10.454,10.469,10,10,28,4,1.735,"Right",28,4,24,0,24,0,-24,0,0,24,"10-10",-18,6,28,10,4,10
"40",4,0.986493389597735,0.532482347386074,-0.248622111933013,-1.27035362505079,-2.15167856558064,-2.28471759069598,-1.45596601163484,-0.548614996610768,0.18980783946054,0.661957447444935,0.758698097737254,0.475179126682027,-0.0263760351455584,-0.238959070313291,-0.253640816259306,-0.555715133394997,-0.982449904586813,-0.454375296324626,0.55236038662,1.36418673153682,1.93203458699781,2.27371745728946,2.41159501551787,2.34868424156246,2.11895077717294,1.82182094470144,1.49727016019192,1.05406528780497,0.366972524282465,-0.385598447233296,-0.487738300010813,-0.128376376708779,0.1235535553367,0.259117801059718,0.3629706999332,0.273412649868014,-0.00553002237777633,-0.187245765980716,-0.14733863804196,-0.291720172869939,-0.883954062953894,-1.77010274560797,-1.98864153053543,"POL LIN1-Ref-POL LIN2-Ref",1488,"DG_s08",8.047,8.719,10.454,10.469,10,10,28,4,1.735,"Right",28,4,24,0,24,0,-24,0,0,24,"10-10",-18,6,28,10,4,10
"41",4,0.0196039320321582,-0.199694829924928,-0.127929606362121,0.308020504254893,0.662155924712909,0.986941958570586,1.43014190476204,1.8712184080001,2.13471224252461,2.1568041258824,1.97986147142736,1.73155053036395,1.45326750518059,1.03513232126097,0.410805048243635,-0.125881305404807,-0.0844416798756793,0.261377260721048,0.763882459211379,1.30265977740368,1.71382979746821,1.86348386094258,1.70190982510841,1.24494754417381,0.688124484413384,0.388403674417933,0.294391122975917,0.329619981619699,0.812474425048192,1.3141415015251,1.49334354185916,1.27238728227771,0.699032096920451,-0.0677992258661479,-0.660812530367703,-0.2968223223501,0.617798979681481,1.33380766646206,1.7708920847706,1.93498952312825,1.75808321767896,1.2132799337342,0.637958072047475,"POL RIN1-Ref-POL RIN2-Ref",1488,"DG_s08",8.047,8.719,10.454,10.469,10,10,28,4,1.735,"Right",28,4,24,0,24,0,-24,0,0,24,"10-10",-18,6,28,10,4,10
"42",4,0.514366990707899,0.257207172451128,-0.216486681896894,-0.555087481262131,-0.351804363679587,-0.0273746360068294,0.0675917830515882,0.0109186441597444,-0.108529335375021,-0.300916449079599,-0.651203856150017,-1.1062955011598,-1.59879220645555,-2.14724442490885,-2.34529409300098,-1.92897850854032,-1.62857623879106,-1.53409730537126,-1.51550705348761,-1.09180469405679,-0.444423591795436,0.0710240843446179,0.440144813810326,0.585406848366498,0.432416340647807,-0.00938988748762881,-0.630276857867202,-1.30538270900759,-1.82239082034872,-1.78893315415787,-1.51057970094287,-1.36460881810483,-1.23712972100578,-1.29549116438671,-1.67045339490755,-1.86433713808087,-1.25429299768263,-0.571955156405341,-0.156992551265475,-0.0887675112664805,-0.288432570729844,-0.672794418751842,-1.35112916390725,"POL LIN11-Ref-POL LIN12-Ref",1488,"DG_s08",8.047,8.719,10.454,10.469,10,10,28,4,1.735,"Right",28,4,24,0,24,0,-24,0,0,24,"10-10",-18,6,28,10,4,10
"43",5,0.148466143086676,0.141997403668876,-0.0628755945813833,-0.227587952174169,0.120816093568036,0.537035446207067,0.869162270090149,1.42512458528205,1.93686390871076,2.1145420028447,1.91506273254998,1.50138914770432,1.3132309184979,1.49102138000974,1.63698466538682,1.58846882837213,1.46146326794671,1.33484412371107,1.10110526596215,0.642680806263849,0.219504030254361,0.414956483721451,0.807175825246526,1.13923473800096,1.60295147576466,2.08963108236163,2.41909963627412,2.53919607190244,2.44423667380059,2.19784369442417,2.1423798486699,2.42803590640864,2.60013803906371,2.45555984565603,1.99050540947756,1.31108499492762,0.550861166208804,-0.0023911620591317,0.369609915931974,1.12550273659444,1.65630066214528,1.93699647317042,2.02277358458471,"POL RIN11-Ref-POL RIN12-Ref",1489,"DG_s08",11.469,12.141,13.125,13.141,10,10,22,6,0.984,"Left",22,6,16,0,16,0,-16,0,0,16,"10-10",-12,4,10,22,10,6
"44",5,0.625947250139756,0.0301204085614852,-0.246434973641184,-0.409632685060058,-0.721522133212992,-1.16866521440737,-1.70547448960825,-2.04055983149732,-1.70766614757753,-1.1201410312662,-0.716722401095961,-0.56933615326624,-0.388471105726381,0.228909527797889,0.965892200794386,1.48547001593152,1.75135872358389,1.78976817169876,1.66096448622535,1.43320824299967,1.06869853051919,0.552948287587727,0.292119342693406,0.739209636249509,1.3015644950737,1.76436778051184,2.04542100157826,2.06554389526058,1.80101706435832,1.38400108563269,1.09185926953917,0.818490579498162,0.240973825677621,-0.664548361299135,-1.08122730723427,-0.614828247674678,-0.254704218773739,-0.118118096807022,-0.159804069161865,-0.37085198825734,-0.765737193118463,-0.778415072588712,-0.179339733566563,"POL LIN12-Ref-POL LIN13-Ref",1489,"DG_s08",11.469,12.141,13.125,13.141,10,10,22,6,0.984,"Left",22,6,16,0,16,0,-16,0,0,16,"10-10",-12,4,10,22,10,6
"45",5,-0.141575248717917,-0.298973442817172,0.0165376691901749,0.424011022344915,0.632122135818518,0.521952713238786,0.125731488555108,-0.226451162289841,-0.301511446129336,-0.400965966629755,-0.419533091090024,-0.0840554456940268,0.257331235877011,0.421949874243175,0.58812047131236,0.8683258524057,1.10258657728072,1.21267954250515,1.21025331889523,1.16135972929965,1.14975044877013,1.20412558265751,1.29457536767939,1.41120821519747,1.53505821506991,1.579806166926,1.43816685050899,1.03468174218682,0.362666802679989,-0.224066190516719,-0.158257922407664,0.0138360386236318,-0.102029279422558,-0.327890269295693,-0.101493373729133,0.545979597386726,1.12473200442745,1.5015126114152,1.70304242047527,1.72918969128952,1.54278026116382,1.09524734143386,0.449191552547399,"POL LIN3-Ref-POL LIN4-Ref",1489,"DG_s08",11.469,12.141,13.125,13.141,10,10,22,6,0.984,"Left",22,6,16,0,16,0,-16,0,0,16,"10-10",-12,4,10,22,10,6
"46",5,0.42569502048595,0.1865525433585,-0.115210944449112,-0.497036619395339,-1.08781058539519,-1.68232987344058,-1.87399134389568,-1.80113043226668,-1.49745517100708,-0.991129679838965,-0.579724235039748,-0.356779972928045,-0.129999378755466,0.12800302649697,0.289906244790222,0.299342092250935,0.198231632676318,0.180394019825439,0.396583575060228,0.657820165060029,0.798455814899276,0.851876680710317,0.894509765656444,0.845153371591003,0.559622956271799,0.0246689603223924,-0.432445016602244,-0.540360183129195,-0.661465864676066,-0.656432900187448,-0.209498943303322,0.374503341390808,0.771113676066902,0.877123951909645,0.639137727125563,0.173363566098304,-0.524277064730871,-1.42864709116807,-2.39729838974227,-2.75322060988859,-2.10022604609865,-1.54320119279528,-1.37639263745364,"POL RAM7-Ref-POL RAM8-Ref",1489,"DG_s08",11.469,12.141,13.125,13.141,10,10,22,6,0.984,"Left",22,6,16,0,16,0,-16,0,0,16,"10-10",-12,4,10,22,10,6
"47",5,0.403665776453003,0.162696846467398,-0.113770053646672,-0.452592569273729,-0.825083698048164,-0.782799108612537,-0.326579770735597,-0.0633250342591314,-0.161971710959752,-0.620607098848335,-1.42294069807048,-2.28353960749941,-2.54423434361451,-2.12001547702649,-1.70363410193947,-1.6468111608102,-2.0064353681397,-2.05022693423467,-1.15657021728715,-0.278659642377395,0.308664581678238,0.612452625203911,0.627611632613139,0.450331128378282,0.257959856401841,0.125332461102074,-0.13233991335338,-0.630155860708705,-1.2525946897703,-1.99337787290021,-2.74083078964857,-2.86097616118817,-2.15471678272348,-1.66042960729199,-1.22535224152121,-0.630155860708705,-0.116401871299163,0.081583994131142,-0.094443369011918,-0.581745065756287,-1.18391896834409,-1.58722898795958,-1.87602735129744,"POL LIN9-Ref-POL LIN10-Ref",1489,"DG_s08",11.469,12.141,13.125,13.141,10,10,22,6,0.984,"Left",22,6,16,0,16,0,-16,0,0,16,"10-10",-12,4,10,22,10,6
"48",5,0.365393284254871,0.16122092290872,-0.159368343977848,-0.36724586318574,-0.456782809085874,-0.679725298426623,-1.19204461998135,-1.89709889512712,-2.39876677688685,-2.52418827209879,-2.34362142309495,-2.11165843888826,-1.99391366390182,-1.9213786823464,-1.7974536183873,-1.56026949123538,-1.31145153290051,-1.19903974275493,-1.19122128604245,-0.934042887052744,-0.432725300648952,0.00774004866589095,0.212874786053053,0.179614490383702,0.0411344718042645,-0.0894236997877567,-0.297402024507688,-0.702835959088411,-1.24505738416751,-1.40074523196542,-0.969059714563727,-0.500882324415382,-0.221256458500292,-0.219986177135416,-0.496840374203245,-0.85054061179034,-0.932982841253732,-0.66530000859496,-0.302151736580589,-0.059442653902412,-0.0205962679570693,-0.182164640251173,-0.503790415544218,"POL RIN2-Ref-POL RIN3-Ref",1489,"DG_s08",11.469,12.141,13.125,13.141,10,10,22,6,0.984,"Left",22,6,16,0,16,0,-16,0,0,16,"10-10",-12,4,10,22,10,6
"49",5,0.216760024199591,0.144437628795034,-0.0377497388367303,-0.323447914157894,-0.460616476664741,-0.391961360130226,-0.34262865865715,-0.284471710194843,-0.149701789172555,-0.0335542406049125,0.0853960372284526,0.219253618343391,0.369354005697028,0.496486965269371,0.582733443636332,0.596205843090157,0.441358927653971,0.0782525827704212,-0.26798520012084,-0.246935779294326,-0.0821974353504,-0.214850134367435,-0.764647337026966,-1.42359693275336,-1.49500688612072,-1.40717317355585,-1.7376122093729,-2.35884301148218,-1.84670605543342,-0.650027453318531,0.317483966640916,0.977187905536683,1.32741317618906,1.36235877582141,1.05754728314181,0.430944777341828,-0.344559829437147,-0.826790505774966,-1.02605536009736,-1.16288474201368,-1.24734406321439,-1.17622844509969,-0.909707338215638,"POL RIN1-Ref-POL RIN2-Ref",1489,"DG_s08",11.469,12.141,13.125,13.141,10,10,22,6,0.984,"Left",22,6,16,0,16,0,-16,0,0,16,"10-10",-12,4,10,22,10,6
"50",5,-0.696948735786343,-0.294363603708453,0.264053131131913,0.727259208362883,0.971242877142826,0.943181663925905,0.662233096401861,0.191558153307314,-0.400593345978702,-0.956809908008861,-1.1528952423647,-0.980608691308357,-0.793979819520118,-0.801843555980333,-0.977668045873203,-1.13597709897931,-1.1740128964027,-1.34617525841951,-1.68364811178332,-1.60976716297614,-0.948883946403137,-0.507101444117827,-0.422192359148415,-0.587510634348277,-0.686492625292562,-0.50399070958388,-0.302848775061632,-0.320225783900488,-0.631457542635564,-0.952133053800414,-0.723234450945819,-0.177616953395649,0.282337617865187,0.607545749655563,0.811298688017521,0.883267519097632,0.791953099120521,0.561155242536035,0.324200532685735,0.312534485759663,0.61026191248434,0.998649593216477,1.28654067392485,"POL LAM9-Ref-POL LAM10-Ref",1489,"DG_s08",11.469,12.141,13.125,13.141,10,10,22,6,0.984,"Left",22,6,16,0,16,0,-16,0,0,16,"10-10",-12,4,10,22,10,6
"51",5,0.946524710512884,0.589960378565832,-0.149183771099288,-1.38730131797943,-2.97692006830134,-2.10420727894538,-1.0993640741454,-0.876919625677713,-0.91559592863697,-0.815691827374705,-0.559641246239709,-0.468306863517691,-0.602121582394286,-0.776427742922134,-0.736306666227957,-0.663192859020414,-0.771716309000814,-0.950910790603189,-0.817974847470936,-0.289458635814,0.255611975709007,0.572917856577943,0.546957173621912,0.180308072221736,-0.339193857831166,-0.818477309545623,-1.40156077332332,-2.16743163201341,-2.61972528734916,-2.4466476576984,-2.09931064239327,-1.59917972415189,-0.85583013969182,-0.46705057083094,-0.603701585558884,-1.07069321311048,-1.0700789724058,-0.393913116742098,0.0975319332494564,0.217554633992849,-0.0950596612290671,-0.87982780664708,-1.53537519331333,"POL RAM8-Ref-POL RAM9-Ref",1489,"DG_s08",11.469,12.141,13.125,13.141,10,10,22,6,0.984,"Left",22,6,16,0,16,0,-16,0,0,16,"10-10",-12,4,10,22,10,6
"52",5,0.10014287366592,-0.041192252309548,0.000158850119291287,-0.059109471475665,-0.454741832094331,-1.0032115966527,-1.06288702446559,-0.337347914592879,0.530290763504404,1.05939116575786,1.1848285265328,0.956351082831496,0.478283179675048,-0.0724917748541003,-0.455769080607574,-0.498477659209927,-0.308357367846742,-0.0438943677039276,0.231603275020998,0.489200431110334,0.721794701924367,0.934477036162102,1.04401230801219,0.971610772702142,0.712579550066833,0.501771530829297,0.622136255894565,0.798002331808956,0.774061627220474,0.551014373272606,0.281683190264395,0.038019812639952,-0.22100303615693,-0.308835047696599,0.0617803169794175,0.577244138912867,0.937196699682904,1.0538738302762,0.934673886556439,0.669642288102711,0.601247886261289,0.849816382677545,1.0124959963331,"POL RIN9-Ref-POL RIN10-Ref",1489,"DG_s08",11.469,12.141,13.125,13.141,10,10,22,6,0.984,"Left",22,6,16,0,16,0,-16,0,0,16,"10-10",-12,4,10,22,10,6
"53",5,-0.215767041811649,0.0401003485332314,0.144931447141884,0.0307352461365351,-0.32563525574999,-0.840809294181632,-1.26159344832729,-1.43081759306562,-1.59444701684742,-1.96538683622038,-2.62270838223952,-3.41003515573273,-3.90052824268798,-3.63614823054441,-3.15760775587323,-2.82600478923213,-2.60837256572441,-2.40105964420255,-2.0022439012632,-1.36499859673085,-0.719156358026627,-0.328201879043432,-0.235115471485312,-0.324114434213392,-0.429872719256888,-0.51583395599669,-0.699784509282008,-1.08387783621657,-1.60016131811086,-1.7340202305942,-1.3648287453504,-0.956461752750942,-0.718740890768373,-0.672219526494896,-0.824088219815883,-1.16449778150355,-1.54051475745062,-1.59958841634784,-1.39453418424837,-1.23449397596086,-1.125690603799,-0.894167214362964,-0.539559396086856,"POL LIN1-Ref-POL LIN2-Ref",1489,"DG_s08",11.469,12.141,13.125,13.141,10,10,22,6,0.984,"Left",22,6,16,0,16,0,-16,0,0,16,"10-10",-12,4,10,22,10,6
"54",5,0.434373293106876,-0.481048210563653,-0.300175787480654,0.346850704937431,0.84349814348779,1.07507363671164,1.18599157469771,1.43231809200028,1.73482646242219,1.81920941373504,1.4750249837382,0.730504109310111,0.53923542380373,1.28160400018978,2.03392893667538,2.55654532003761,2.8238835821968,2.84418798218021,2.67516498902542,2.3263990042654,1.75993873299747,0.916802924251381,-0.0256511506965298,-0.614415239568519,0.00404586730697787,1.15629310409071,2.21730382936734,2.90448964589641,3.13881321198232,2.94553742394211,2.4025166146578,1.88906494241633,2.05070662157087,2.45081065660958,2.67680371118914,2.81043493908554,2.91011899673856,2.89618620497497,2.82077611314466,2.77124217802238,2.73761624994684,2.64721695328527,2.45948382432687,"POL LIN10-Ref-POL LIN11-Ref",1489,"DG_s08",11.469,12.141,13.125,13.141,10,10,22,6,0.984,"Left",22,6,16,0,16,0,-16,0,0,16,"10-10",-12,4,10,22,10,6
"55",5,0.336920986109632,-0.156636551517572,-0.415445352453993,0.235160917861929,0.971601575491718,1.41666277924305,1.55511019099904,1.40871182559443,1.01761159348231,0.570205287577624,0.567572834561851,0.973788864596015,1.22503924812302,1.15570150705183,0.760691460286942,0.116693783268687,-0.230760490230931,0.207742460150834,0.752162197698452,1.06300839210594,1.10153805364224,0.962912673313188,0.810661826411822,0.81140318060012,1.00915978646836,1.25396660897842,1.36399578042112,1.22098566853208,0.798644950451694,0.216841912961687,-0.129727996490548,-0.186126029913575,-0.372294387858032,-0.871394627037899,-1.52495243806239,-1.79477328488552,-1.36268714914423,-0.678342131235304,-0.026535836645257,0.428073443736576,0.614312333752819,0.539743390478458,0.293996608273334,"POL LIN2-Ref-POL LIN3-Ref",1489,"DG_s08",11.469,12.141,13.125,13.141,10,10,22,6,0.984,"Left",22,6,16,0,16,0,-16,0,0,16,"10-10",-12,4,10,22,10,6
"56",5,0.345873257949856,0.0949654354546094,-0.110752609114046,-0.330086084290423,-0.700061607631966,-1.27276779202038,-1.8220359827783,-1.82670410738274,-1.38145718918262,-1.07607986220804,-0.919977279736182,-0.632877788133969,-0.400530413002649,-0.422401542020525,-0.615069164239754,-0.934933583642799,-1.31491749949513,-1.3997534778579,-1.16492215407879,-0.999438823675014,-1.06149641121708,-1.37688896007895,-1.75842295916167,-1.73610443620597,-1.11353626985423,-0.350454272935655,0.380628490904057,0.922502615492402,1.19252959618646,1.15026528274205,0.83161968395447,0.346347615295782,-0.197559716876125,-0.740247573029203,-1.23801693753194,-1.72585331259645,-1.79599751839154,-1.28912674602399,-0.787770131166791,-0.463115342834598,-0.270479162517697,-0.105465544330031,0.238519605975169,"POL RIN10-Ref-POL RIN11-Ref",1489,"DG_s08",11.469,12.141,13.125,13.141,10,10,22,6,0.984,"Left",22,6,16,0,16,0,-16,0,0,16,"10-10",-12,4,10,22,10,6
"57",5,-0.24891088854358,-0.237746306788584,0.0492042858768951,0.437452909455268,0.800313483847432,1.10835510245627,1.29166779988053,1.25845412372427,0.973500165204304,0.476720369055829,0.0571916557103949,0.0294778171428787,0.0964123688636755,0.136043911487425,0.315101569828506,0.642629886185431,0.911380007754723,1.01910988383036,1.06025521760559,1.13252773562186,1.14889121755354,1.01016998056634,0.686665126260988,0.212788907794932,-0.369224739150702,-1.07624674984315,-1.83978019200019,-2.16728079611896,-1.71772380699277,-0.894818370887786,-0.156221610961239,0.301722634506192,0.502276257847037,0.461886096560449,0.251880861313011,0.249940144103437,0.679391675450987,1.12308177358805,1.42878966363131,1.66556233218407,1.81481966177768,1.77342904799657,1.46021202074587,"POL LIN4-Ref-POL LIN5-Ref",1489,"DG_s08",11.469,12.141,13.125,13.141,10,10,22,6,0.984,"Left",22,6,16,0,16,0,-16,0,0,16,"10-10",-12,4,10,22,10,6
"58",5,0.177423537607647,-0.191911258714761,-0.0416166357137371,0.0561043568208515,-0.155266026002485,-0.565720391772122,-0.845899350470822,-0.553123284448587,-0.110600389477201,0.233819455278695,0.484647030730333,0.716252544172328,0.801749218379683,0.588668772230447,-0.0111931705067843,-0.974446243238236,-1.6290492795428,-1.18780716048076,-0.710999422535484,-0.467521541134421,-0.0623040045463732,0.70388850077167,1.41912755530936,1.79328024597156,1.82469140056943,1.73453359720927,1.65129478850796,1.48564882423705,1.10808894436249,0.819290375973495,0.93812701420277,1.02068789157084,0.769058250487163,0.192485289407351,-0.510446585851455,-0.573468509746207,0.146601889996131,0.708215837392656,0.879665448073474,0.737888572546339,0.39722283778835,0.206487243306208,0.25280803591026,"POL LIN11-Ref-POL LIN12-Ref",1489,"DG_s08",11.469,12.141,13.125,13.141,10,10,22,6,0.984,"Left",22,6,16,0,16,0,-16,0,0,16,"10-10",-12,4,10,22,10,6
"59",5,0.315494949204514,0.118204576415707,-0.0435816084880569,-0.390117917132166,-0.974598863137481,-1.3011993389555,-0.576005264366603,0.364763922976136,1.02919182224192,1.3286603431488,1.32254536602638,1.16603723704485,1.07885150967758,1.00438132804208,0.828993218754869,0.671362384565471,0.973276367201304,1.88076359270374,2.87758137138433,3.69731176668857,4.23726868157284,4.45559600268242,4.33120227020562,3.86731577912307,3.1213492387058,2.22722687055247,1.40969470259408,0.814894556340665,0.265125864053766,-0.372185266963303,-0.473195528500856,0.110975184226508,0.556885137043587,0.811115123480391,1.08989603971247,1.39302352098283,1.508054835078,1.30917987555385,0.903003401953683,0.812140131126279,1.22897602265683,1.6218203398784,1.72599014388108,"POL RIN5-Ref-POL RIN6-Ref",1489,"DG_s08",11.469,12.141,13.125,13.141,10,10,22,6,0.984,"Left",22,6,16,0,16,0,-16,0,0,16,"10-10",-12,4,10,22,10,6
"60",5,-1.0080562230165,-0.487516567015327,0.410070594636791,1.08550219539504,1.3528245739468,1.21026500937772,0.782909486852374,0.412537999551006,0.213916155411113,0.0966118758818233,0.253891442781297,0.535510093624596,0.744235801417686,0.885045136521432,1.16908298080905,1.54612774207271,1.83157152325457,2.16880339411922,2.75016275769935,3.41429221109112,3.90745556665415,4.09690135210792,3.93885588721371,3.43767190294804,2.69422491488153,1.85153804204577,1.13932415402868,0.83133098507982,0.97779140571379,1.55961442525637,2.24979563543781,2.79017632587166,3.12820988302147,3.24914225949426,3.13895754601835,2.88141118428037,2.59027237561384,2.20951857385621,1.54241918633886,0.517705213125399,-0.570706990136681,-0.562179662112852,0.330447614146751,"POL RIN3-Ref-POL RIN4-Ref",1489,"DG_s08",11.469,12.141,13.125,13.141,10,10,22,6,0.984,"Left",22,6,16,0,16,0,-16,0,0,16,"10-10",-12,4,10,22,10,6
"61",5,-0.591691031965672,-0.312853395919186,0.234749257421667,0.669795170463191,0.95442172442244,1.07264075176777,1.0638387091626,1.03226466222409,1.01664108454335,0.967576686123229,0.783805731586703,0.405650980536905,-0.170803469300251,-0.874595401884658,-1.49802873703092,-1.25381856115469,-0.296075971054279,0.587026798993433,1.2241802262249,1.56220364951712,1.70511119107436,1.85139460960165,2.08111071616603,2.22541282311992,2.16141035131172,1.87022771372978,1.34589914850434,0.519869700259676,-0.774464375005133,-1.66412456003696,-0.569843753266305,0.0983600467250252,0.27311502417278,0.115405461410925,0.0352771922400095,0.383367433567019,0.849027079654185,1.10677172301799,1.23220030632876,1.4035048190598,1.59121720497136,1.63999791251425,1.48926298794552,"POL RIN4-Ref-POL RIN5-Ref",1489,"DG_s08",11.469,12.141,13.125,13.141,10,10,22,6,0.984,"Left",22,6,16,0,16,0,-16,0,0,16,"10-10",-12,4,10,22,10,6
"62",5,-0.568880836087988,-0.00350157753753955,0.305893829843773,0.266488583781758,0.150993868043317,0.145342326671175,0.13500091483294,0.263081931948001,0.756167648716014,1.26030174116413,1.50585202371599,1.4271304364133,1.0087780243979,0.409832610567328,0.314794560890023,0.593492676462208,0.669865655246781,0.555042132142324,0.382095453774058,0.0872786015830496,-0.474896120033305,-0.992022863434222,-0.589624283907195,0.128307098931323,0.53529510519088,0.611695882988592,0.523218697311297,0.547320804418833,0.769343069874578,1.01960982912304,1.19509465142529,1.20670489575826,1.01774459193036,0.760402700043226,0.620761495983009,0.521878471186888,0.282693053788062,0.00289307018347351,0.237110690702606,0.850340387639413,1.206076830902,1.18842730640098,0.917685698569409,"POL RIN12-Ref-POL RIN13-Ref",1489,"DG_s08",11.469,12.141,13.125,13.141,10,10,22,6,0.984,"Left",22,6,16,0,16,0,-16,0,0,16,"10-10",-12,4,10,22,10,6
"63",5,-0.012525446803739,-0.291258398567891,-0.231418542151984,0.535202387523613,1.15918472590763,1.45777710973211,1.44921689159566,1.14113147526058,0.533685478158059,-0.296621327622061,-1.01434282639284,-1.26407490473422,-1.17998744067091,-0.894264669945859,-0.256979970783221,0.378626526293018,0.78276994105028,0.889118413457521,0.674357454348766,0.159450588886356,-0.469584159351546,-0.655132835506556,-0.289487297579702,-0.0611807037217016,-0.232955083316677,-0.68832342076099,-0.994882348228842,-0.67119559820566,-0.328655536288331,0.081796025917404,0.637334479557398,0.9809347466799,0.963802905192006,0.637173455443689,0.0497893022198426,-0.696647101391829,-1.18615109474038,-1.37037913465151,-1.52459475878904,-1.61221990880051,-1.85686530855655,-2.21108465887579,-1.79033593736279,"POL LAM8-Ref-POL LAM9-Ref",1489,"DG_s08",11.469,12.141,13.125,13.141,10,10,22,6,0.984,"Left",22,6,16,0,16,0,-16,0,0,16,"10-10",-12,4,10,22,10,6
"64",7,0.530457847188107,0.338378043922077,-0.148802548702687,-0.720033342407496,-0.904406602834587,-0.788473706466365,-0.571505562390247,-0.267005329767935,0.0537082091047196,0.224069522034888,0.150203793116022,0.267275945792449,0.876387232864245,1.44676325225361,1.75598649496132,1.80208148334008,1.66955458753835,1.52665244511492,1.49589433282079,1.59071672756605,1.76148573549137,1.92550311330548,1.98088621483694,1.8170266369694,1.36898253027736,0.690596137108239,0.0322544131963891,-0.199772964718152,-0.105945118405451,-0.0530767445746747,-0.246500387997557,-0.626289538070282,-0.732459064911694,-0.214313990299685,0.573058423727645,1.2311188041811,1.53533853463295,1.48798427502801,1.2422702593502,1.04044674295196,0.980251582168538,0.892167709480997,0.677964655075854,"POL RIN2-Ref-POL RIN3-Ref",1491,"DG_s08",17.813,18.485,19.547,19.547,28,4,10,10,1.062,"Left",28,4,24,24,0,0,-24,0,-24,24,"Advent",18,-6,28,10,4,10
"65",7,-0.00236215398430595,0.0180475376335849,0.0209464932606913,-0.036631876909972,-0.250660128448198,-0.694495115101951,-1.29973925566178,-1.71043190734121,-1.62516165609641,-1.52373730148306,-1.74946269990223,-2.30273757013128,-2.56346900279093,-1.85705895909856,-1.0102206354027,-0.357235394797698,0.0618160717071046,0.235439843680078,0.182378306564067,-0.0590598653761738,-0.467030364608785,-1.00152902035754,-1.48250654457812,-1.64871957743947,-1.55105368394269,-1.46948425841535,-1.60906403114959,-2.01403845839028,-2.38329171812809,-2.2175723230859,-1.71464045520912,-1.25188323448415,-0.90778348787401,-0.641469885325254,-0.397630612309692,-0.194833680017885,-0.106294043246278,-0.151502473668364,-0.30277527314089,-0.554673233688302,-0.90367650023201,-1.22830334191763,-1.43752380202671,"POL LIN1-Ref-POL LIN2-Ref",1491,"DG_s08",17.813,18.485,19.547,19.547,28,4,10,10,1.062,"Left",28,4,24,24,0,0,-24,0,-24,24,"Advent",18,-6,28,10,4,10
"66",7,0.233486108733191,0.23121304060927,-0.0195411863266139,-0.445157963015848,-0.804081641410433,-0.65128094491341,-0.318392236201927,0.316298739176472,1.03851359765796,1.55568997070595,1.79904514791552,1.79610663568821,1.67228669308966,1.71725287718636,1.90823152329368,2.0462933856138,2.15248725292844,2.22408680488601,2.15108331289176,1.83774227444049,1.33588532065726,1.02894491719764,1.29799388235672,1.81114544758197,2.21921822617863,2.42399289202419,2.4530415342163,2.33012866538983,2.05932304368511,1.72535008741898,1.56211932967902,1.56803580652825,1.48526272173186,1.22267885010395,0.883721609539851,0.740804259069969,0.889040026554672,1.0881740869446,1.31772539101324,1.61497402806594,1.85977993383987,1.99369313477189,2.02241342113732,"POL LAM8-Ref-POL LAM9-Ref",1491,"DG_s08",17.813,18.485,19.547,19.547,28,4,10,10,1.062,"Left",28,4,24,24,0,0,-24,0,-24,24,"Advent",18,-6,28,10,4,10
"67",7,0.634239695785352,-0.0256355857193036,-0.602721626598855,-0.00588248346719489,0.967259568172009,1.58164032217159,1.80563457536612,1.71660593892294,1.39523118561737,0.92211096509703,0.444507588678094,0.35733503633505,0.828395710226308,1.2423173643275,1.32236007200104,1.14701233490135,0.959772465405015,0.981666711135301,1.13922045700324,1.15153441597806,0.930306574061985,0.611659325768198,0.464325241372242,0.543022358757479,0.606030975150842,0.428400616223346,-0.108240842804717,-0.709419367876276,-0.549380302113224,0.186354817866581,0.840630646803804,1.23896399363022,1.49108769937387,1.73086325327099,1.99971814441276,2.22530744546817,2.32883927807799,2.25996803678328,1.98810761806606,1.51904659492719,0.883639120166597,0.286244368994362,0.145171860961167,"POL RIN9-Ref-POL RIN10-Ref",1491,"DG_s08",17.813,18.485,19.547,19.547,28,4,10,10,1.062,"Left",28,4,24,24,0,0,-24,0,-24,24,"Advent",18,-6,28,10,4,10
"68",7,-0.0664313818092968,0.054346742442922,0.0797751946160865,-0.0676905552497136,-0.381117077854347,-0.752661780769234,-1.04042196296525,-1.17107847757482,-1.18067874211948,-1.05379009473172,-0.907450535455204,-0.89810255251273,-1.00975603831756,-1.13901827357274,-1.33229618433284,-1.69200379155634,-2.28241153259964,-3.0947175595771,-3.59953513205765,-3.29432352763969,-2.76278245664441,-2.53174708453982,-2.71990224065775,-3.35505665690527,-4.26724471102813,-4.65754405287549,-3.85086879018328,-2.84957920468295,-2.10069119027699,-1.56980118966519,-1.22772387491893,-1.06824920268453,-1.07114480232688,-1.22289975755344,-1.52139002872183,-1.88826155210545,-2.09548764853295,-2.27166886524041,-2.67592170072404,-3.42716783218012,-4.42896733435659,-4.42664069483737,-3.64335382739671,"POL RIN11-Ref-POL RIN12-Ref",1491,"DG_s08",17.813,18.485,19.547,19.547,28,4,10,10,1.062,"Left",28,4,24,24,0,0,-24,0,-24,24,"Advent",18,-6,28,10,4,10
"69",7,-1.02905320849672,-0.282970155571473,0.46290907682938,0.849114287238807,0.987641697844346,0.927614723488041,0.661621046488595,0.225914421390375,-0.215973114302452,-0.330195996901937,-0.304207772862146,-0.472494686142182,-0.409452459681772,0.132258382157895,0.613719864139416,0.754538224838138,0.471944894083498,-0.101663651425552,-0.46385295491207,-0.426221018104993,-0.502162094157761,-0.709635648809165,-0.532806829249708,-0.364500844539055,-0.441458721936689,-0.442441543996827,-0.157145762745422,0.283756766523107,0.613868540916377,0.662400276507126,0.393749475379742,0.095369656809817,0.0156192456685105,-0.161558789926962,-0.536909856001589,-0.638768069696134,-0.623562479399835,-0.612479139833839,-0.199206618810678,0.178701826941742,0.3146080134616,0.243185069852135,0.0722712584836334,"POL LIN12-Ref-POL LIN13-Ref",1491,"DG_s08",17.813,18.485,19.547,19.547,28,4,10,10,1.062,"Left",28,4,24,24,0,0,-24,0,-24,24,"Advent",18,-6,28,10,4,10
"70",7,-0.87652539755385,-0.265071543351098,0.38430746717839,0.757289473726557,0.928274270450318,0.85918485522898,0.536126949546615,0.13568617185396,-0.173698390778808,0.104274513165361,0.814198093406731,1.34689441342203,1.54314806580435,1.389864827308,0.934649618328484,0.326713591044307,-0.0867778279380857,0.101299140426489,0.584724870311488,0.94115137423104,1.11555527116734,1.12140189908214,0.984308445012109,0.945312251401642,1.18246998948539,1.44798533888225,1.52517440346273,1.36207069417104,0.967950655590766,0.400393604930015,-0.0935942135927341,-0.0688247353544824,0.220393410607928,0.387628350263562,0.361598333178598,0.125558282051955,-0.271940579944495,-0.721850893124611,-1.07407930714349,-1.28676259108607,-1.63992165081683,-2.00773387150448,-1.83697551641515,"POL LIN2-Ref-POL LIN3-Ref",1491,"DG_s08",17.813,18.485,19.547,19.547,28,4,10,10,1.062,"Left",28,4,24,24,0,0,-24,0,-24,24,"Advent",18,-6,28,10,4,10
"71",7,-0.170548106312844,0.0209755199281112,0.131079725636143,0.0184928607485926,-0.215936537769041,-0.281597109787883,-0.245996778142667,-0.402251417175389,-0.778180642689402,-1.04328607640283,-0.732038110190214,-0.206113962702624,0.204584656614498,0.35561243443575,0.196369205914385,-0.139178167229526,-0.0406268259124207,0.431503635330875,0.699207468620177,0.66802072270626,0.396815118007778,0.0258933956606953,-0.238141397445372,-0.143432762770773,0.128306089088133,0.315858847199362,0.219190141349651,-0.331416227941682,-1.18494394648813,-0.852558101472729,-0.0486635012587673,0.376701939480673,0.504740501996718,0.493273772387512,0.413482667165244,0.155268728481541,-0.355948058404456,-1.10772313135392,-1.76041201988898,-1.38173049156557,-0.812091141669931,-0.52422454725532,-0.446697105931149,"POL LAM9-Ref-POL LAM10-Ref",1491,"DG_s08",17.813,18.485,19.547,19.547,28,4,10,10,1.062,"Left",28,4,24,24,0,0,-24,0,-24,24,"Advent",18,-6,28,10,4,10
"72",7,-0.197290937100995,0.0955785818633892,0.117838164975662,-0.0161258097380568,-0.213122087052851,-0.175076267465861,0.330425371902083,0.833585056645987,0.985767669304659,0.72365938194949,0.0732645118427424,-0.73556629982639,-0.8749820775953,-0.28088130058798,0.285294715663323,0.507230382641147,0.522149304747595,0.801970698236799,1.37780386839452,1.83438232209336,2.02844690629096,2.05085148877643,2.06742388183764,2.11161599905045,2.05752587340757,1.8115084617816,1.40145703960297,1.11405848573853,1.10594452569722,1.20127080609807,1.37113233542055,1.63129964335722,1.91783853191771,2.14554699843437,2.24697151174887,2.19019428886298,2.03202472763884,1.85255623982729,1.75491581352873,1.76312769141696,1.83539207013053,1.92864637318501,1.98662167785836,"POL RIN5-Ref-POL RIN6-Ref",1491,"DG_s08",17.813,18.485,19.547,19.547,28,4,10,10,1.062,"Left",28,4,24,24,0,0,-24,0,-24,24,"Advent",18,-6,28,10,4,10
"73",7,-1.06845518179389,-0.172027252646634,0.461487324301908,0.778995110138617,0.903687185347444,0.884784130268038,0.657291008401348,0.190481525450771,-0.435123849625802,-0.908056305825546,-0.892333481729834,-0.621674115038193,-0.33988027210596,-0.106901140912607,0.00904526072389622,-0.0911964785095716,-0.419423570736472,-0.890830174170713,-1.28336232319108,-1.53880390280295,-1.86584866152231,-2.0808914202476,-1.57861856301695,-0.888683210259932,-0.351200263041047,0.00362723611583071,0.19513424238521,0.230618251721289,0.0735015532305869,-0.201283138726637,-0.288473756473985,-0.112934182073532,0.0129375022669258,-0.0588474046988878,-0.287904514499157,-0.63089812722265,-1.10874136982635,-1.66017188553716,-1.94443469726722,-1.9932281754438,-1.86821037225245,-1.61716552668303,-1.3724212300422,"POL RAM8-Ref-POL RAM9-Ref",1491,"DG_s08",17.813,18.485,19.547,19.547,28,4,10,10,1.062,"Left",28,4,24,24,0,0,-24,0,-24,24,"Advent",18,-6,28,10,4,10
"74",7,-0.34184539237447,-0.0998030968582695,0.195499683239574,0.246148805993165,0.0884641863067728,-0.238439463136261,-0.657136322207067,-0.973369255781997,-0.836713504521152,-0.485612230323708,-0.238933700784765,-0.0893969732928941,0.115784361393156,0.324098242526916,0.289598596129192,0.096047925759688,0.0808224939703228,0.292376375693094,0.518039700637545,0.545128102101421,0.206499142861327,-0.552458808368671,-1.53356480989464,-2.05319053987464,-1.47960766195274,-0.673571747878611,-0.125158506036779,0.149260290589545,0.132507420489768,-0.16311058406511,-0.68977025834457,-1.04018661148056,-1.03631349478087,-1.14173774680295,-1.02281299866943,-0.398224679733914,0.192949683679222,0.616870034065858,0.856219584093121,0.850037184184803,0.568249347059784,0.103893614871635,-0.317632802639973,"POL LIN9-Ref-POL LIN10-Ref",1491,"DG_s08",17.813,18.485,19.547,19.547,28,4,10,10,1.062,"Left",28,4,24,24,0,0,-24,0,-24,24,"Advent",18,-6,28,10,4,10
"75",7,-0.16343949262119,0.140822870972103,0.148062376776307,-0.12544575512722,-0.607873401602758,-0.805355589126743,-0.398315677543511,-0.0344642124248775,0.0157884641544452,-0.227998750106469,-0.627798120678957,-0.899592664850219,-0.884286654593536,-0.616358177969316,-0.326965241113905,-0.183308996181532,-0.0411163497437848,0.368011766123116,0.917653718097579,1.34489127302289,1.56090883508492,1.57659003674121,1.44407848564247,1.19699192385111,0.848020026338778,0.516242634021774,0.531158164778221,0.807916570741828,1.00475301876951,1.10256577929295,1.1670220782387,1.17487114423248,1.09368335715692,0.903039401929977,0.576644695653307,0.107283882955036,-0.379029991663149,-0.568671346442249,-0.33042053221198,0.0647715497585111,0.461727966672051,0.844052891637396,1.15745196836358,"POL RIN3-Ref-POL RIN4-Ref",1491,"DG_s08",17.813,18.485,19.547,19.547,28,4,10,10,1.062,"Left",28,4,24,24,0,0,-24,0,-24,24,"Advent",18,-6,28,10,4,10
"76",7,0.0827158332810694,0.0440179113138122,-0.0454735400306863,-0.081260204564197,-0.0324700403947649,0.0252177475140822,-0.0206999733596334,-0.201146701923143,-0.511501978834229,-0.994915631609318,-1.6348403923157,-2.34945520222147,-2.77807586117881,-2.83805561384872,-2.94950944161974,-3.11135246707015,-2.89793399280927,-2.41986550838939,-1.94796398523558,-1.49255566995007,-1.10188036192554,-0.819669768290728,-0.665752848019457,-0.57663376720798,-0.529699739292584,-0.625273176077034,-0.900039754644981,-1.21620886345907,-1.45526139892915,-1.72635365269017,-1.9971372337698,-1.78926221680645,-1.34955958133239,-1.18103031727854,-1.34915665524998,-1.77230087594664,-2.32933786209814,-2.52089005913083,-2.08411722749371,-1.57303671153415,-1.3202405614069,-1.41903995233877,-1.69959212558104,"POL LIN3-Ref-POL LIN4-Ref",1491,"DG_s08",17.813,18.485,19.547,19.547,28,4,10,10,1.062,"Left",28,4,24,24,0,0,-24,0,-24,24,"Advent",18,-6,28,10,4,10
"77",7,-0.45755374822936,-0.00543546980197362,0.199900317582395,0.263088900448935,0.370171379570117,0.540666655576342,0.59035773589866,0.408594628555475,-0.0393832218486718,-0.720847676596451,-1.27462403404781,-1.33296755712756,-1.35373538698182,-1.39338553765709,-1.15823634397156,-0.934521053170538,-0.893483726721184,-0.86055005793642,-0.576710976763808,-0.104524552094858,0.298847999917742,0.440014794162753,0.233714895203963,-0.347521383218167,-1.32134688508543,-2.38525658785431,-2.14376870334795,-1.39121735085661,-0.88797757134456,-0.600242701976107,-0.477620074119576,-0.528588959690193,-0.707358742261411,-0.866044577254062,-0.88811837675172,-0.843369721603315,-0.876498478403642,-1.01288731451682,-1.19611859342949,-1.41190044110155,-1.54496832327988,-1.33662137348344,-0.896461185322375,"POL LIN10-Ref-POL LIN11-Ref",1491,"DG_s08",17.813,18.485,19.547,19.547,28,4,10,10,1.062,"Left",28,4,24,24,0,0,-24,0,-24,24,"Advent",18,-6,28,10,4,10
"78",7,-0.674129034254062,-0.419546056506809,0.203916309603519,0.889758781157353,1.12220016788745,0.898589198642306,0.474297711829157,0.228549335132211,0.392512250877699,0.69678857232469,0.852572398273196,0.874779162215539,0.797387114860628,0.676245713407971,0.566113437463168,0.325492359831776,0.00198599922680565,0.058930547296816,0.300761437511742,0.225764649096032,0.10241641034284,0.567671180467395,1.15131424743507,1.47062876134519,1.55930222033139,1.49120883170247,1.32669804763308,1.11379401375973,0.927242731751281,0.809404138996074,0.752771759798325,0.746579059166773,0.803273937007811,0.842141986254738,0.688170521109226,0.208770145837255,-0.62665536000895,-1.59171873816239,-1.95357481334007,-1.68455497272383,-1.48692245277454,-1.37608337646748,-0.71026447550757,"POL RIN4-Ref-POL RIN5-Ref",1491,"DG_s08",17.813,18.485,19.547,19.547,28,4,10,10,1.062,"Left",28,4,24,24,0,0,-24,0,-24,24,"Advent",18,-6,28,10,4,10
"79",7,0.563236708817714,0.245389665768577,-0.178493929218329,-0.630132445367961,-1.07392650638895,-1.41969373201773,-1.62166976208128,-1.91205646053174,-2.57246425654126,-3.69791423677696,-3.22852143021729,-1.89226259264097,-0.977191626971299,-0.473171344655475,-0.199561330751159,0.0830707360183052,0.441086417057234,0.737980923544862,0.939827280093279,1.01201897320552,0.877667391891627,0.48434183134961,-0.183835012107668,-1.11229870834512,-2.05543225133273,-2.25806700657741,-2.03527079261019,-2.00544383818086,-2.31239735112245,-2.64647246314395,-2.53062246226276,-1.92804239141041,-1.2938308565524,-0.846893963077605,-0.543205439200195,-0.308742540350977,-0.190801369688584,-0.28901188989885,-0.579071618416643,-0.891714982591587,-1.09160020640621,-1.12164488496737,-0.943955852659119,"POL RIN10-Ref-POL RIN11-Ref",1491,"DG_s08",17.813,18.485,19.547,19.547,28,4,10,10,1.062,"Left",28,4,24,24,0,0,-24,0,-24,24,"Advent",18,-6,28,10,4,10
"80",7,-0.0989399718616326,0.147768069800742,0.128942924816473,-0.177771022755584,-0.869239149117263,-1.88657403210034,-2.36982918403312,-2.05116225345362,-1.85117922536314,-1.84769455764684,-1.62481357689998,-1.09023860142517,-0.695208514073546,-0.493818162357476,-0.324919625895662,-0.214287869630509,-0.223260696133984,-0.353349027213355,-0.638393364821393,-0.920333794705499,-1.04932798453952,-1.12333825395715,-1.2472192707375,-1.2540834595388,-0.851631768854277,-0.243323278851214,0.227817641292688,0.510607608746678,0.623377444028272,0.603437273999344,0.510110868593651,0.356912057397631,0.0875449021458632,-0.362700697863684,-0.934611906569787,-1.52702366287314,-2.08245693520566,-2.3244735161454,-2.11914433931334,-1.64599215037609,-1.15546667585805,-0.809922959467551,-0.611743157242136,"POL RAM7-Ref-POL RAM8-Ref",1491,"DG_s08",17.813,18.485,19.547,19.547,28,4,10,10,1.062,"Left",28,4,24,24,0,0,-24,0,-24,24,"Advent",18,-6,28,10,4,10
"81",7,-1.38813713397733,-0.166733268717493,0.5748080147099,0.980062387984924,1.14841907512058,1.07943638076663,0.745550862870729,0.174366300066852,-0.517888141170248,-0.775876953070961,-0.39484313034562,-0.172856008462428,-0.383000305232997,-0.78892677436434,-0.722953377688128,-0.548736390131401,-0.694375007205801,-1.10790185238304,-1.31259630197407,-1.48968408992148,-1.88656715760964,-1.85081007978447,-1.44913315644743,-1.15248141733034,-0.991129542859309,-1.05235957708097,-1.40416845035984,-1.69894969583382,-1.372595093676,-1.09842417791804,-1.19946438704959,-1.32322547535865,-1.04156526615813,-0.968411038965863,-1.33701489184667,-1.67912539200212,-1.04135310958578,-0.12710094123082,0.531927699217489,0.891163914032267,1.05822272383412,1.10869575414425,1.09473700496092,"POL LIN11-Ref-POL LIN12-Ref",1491,"DG_s08",17.813,18.485,19.547,19.547,28,4,10,10,1.062,"Left",28,4,24,24,0,0,-24,0,-24,24,"Advent",18,-6,28,10,4,10
"82",7,-0.0957557567605214,0.148257755132807,0.119050146604827,-0.171552144977115,-0.651899792338071,-1.02419819679915,-0.82574725807531,-0.406561981885542,-0.238520503602153,-0.412887225769367,-0.860309151067172,-1.32549536590937,-1.64478328565482,-2.09679561754291,-2.90963865209377,-3.53639528905574,-3.04429067454846,-2.07126533362969,-1.20084686585993,-0.596690076497312,-0.239174128911385,-0.050892412920323,0.00485935849745722,-0.0619405296544837,-0.186592667742824,-0.233492560048994,-0.134112555746723,-0.0256790672165401,-0.087454947523268,-0.382860725126083,-0.828050496234475,-1.16381270272529,-1.23687066156686,-1.20099348984299,-1.14769575376335,-1.05088692288521,-0.799888034969795,-0.424376723374348,-0.138748241910818,-0.0407306626608239,-0.0560900507804618,0.0406544693496844,0.323452786474038,"POL RIN1-Ref-POL RIN2-Ref",1491,"DG_s08",17.813,18.485,19.547,19.547,28,4,10,10,1.062,"Left",28,4,24,24,0,0,-24,0,-24,24,"Advent",18,-6,28,10,4,10
"83",7,0.266002944079274,0.0352299682553294,-0.159785821748452,-0.14144709058615,0.437478605272659,1.03456599333284,1.30570628542844,1.25006202972462,0.981925099860938,0.709648660759765,0.637993087347006,0.661919520068722,0.607055425213327,0.451130694440986,0.41713172909809,0.690192079886693,1.01332588087247,1.10417164748496,0.896588828334343,0.43814657609763,-0.129074612229397,-0.647029718937013,-0.901244538258762,-0.791104086288598,-0.674510266615043,-0.79116931147859,-1.16548925604676,-1.62342637387937,-1.79935163902714,-1.4326449507556,-0.933771039847135,-0.68123704319234,-0.799520569303274,-1.21706211989915,-1.33235798749297,-0.682260210715642,0.0112086496002615,0.447640618738781,0.65817548513162,0.721215333486933,0.663672101764696,0.476420253438707,0.135736074194792,"POL RIN12-Ref-POL RIN13-Ref",1491,"DG_s08",17.813,18.485,19.547,19.547,28,4,10,10,1.062,"Left",28,4,24,24,0,0,-24,0,-24,24,"Advent",18,-6,28,10,4,10
"84",7,0.27389809715411,0.139766821537949,-0.0718941549373957,-0.341770763754662,-0.356398035763832,0.308991790010436,1.10625951512388,1.55464841007304,1.61024203141766,1.37454991674977,1.15353312567326,1.20726063371234,1.29431260198162,1.15110299081996,0.732847111147099,0.183647013729316,-0.214179944713225,-0.5142565081367,-1.06457330188746,-1.87955295829418,-2.14387550603295,-1.3952680493498,-0.545307265835752,0.176314327889912,0.675801252305735,0.871659394817223,0.759919272195358,0.369014315418522,-0.207987836048425,-0.721409327968033,-0.792748308747682,-0.744615371959711,-0.965707708840617,-1.18857198282766,-0.855611236542431,-0.379832521711662,-0.0251575651946379,0.166248664134264,0.374256791383373,0.734845634643242,1.08535578187789,1.22318064671772,1.06958025136591,"POL LIN4-Ref-POL LIN5-Ref",1491,"DG_s08",17.813,18.485,19.547,19.547,28,4,10,10,1.062,"Left",28,4,24,24,0,0,-24,0,-24,24,"Advent",18,-6,28,10,4,10
"85",9,0.659784951568056,0.218857000897133,-0.337870465878495,-0.540771486586695,-0.0620148120833779,0.482385371663177,0.985096677441121,1.45635620467485,1.73088286153144,1.72218218705427,1.47353748293458,1.12995456969292,0.889759749446561,0.71952583855562,0.43503435318382,0.131046067862146,-0.0567984802511319,-0.330452674098778,-0.848592206132437,-1.34015623934595,-1.48606971770503,-1.00446605335518,-0.0839353178210001,0.725115661905553,1.2591977353576,1.55803674663469,1.68004080367777,1.6194564609378,1.3788722563935,0.995008652865483,0.574221276604709,0.282869475263965,0.249365821154164,0.623071053885068,1.17656888491768,1.63151299978573,1.80867484890069,1.64700083064825,1.2362881196193,0.996103943226899,1.12403218343493,1.18747643132671,1.06976872807459,"POL RIN11-Ref-POL RIN12-Ref",1493,"DG_s08",24.219,24.891,26.235,26.235,13,7,10,10,1.344,"Left",13,7,6,6,0,0,-6,0,-6,6,"Advent",3,-3,13,10,7,10
"86",9,-0.13407618303494,-0.391344228795235,0.00535813312093403,0.52006227870924,0.911021209469316,1.05429068043955,0.866996002888911,0.309522266947232,-0.394827014617269,-0.471101330594774,0.0956259071036385,0.65526533699666,1.03053354386061,1.15135080698701,0.991749854933692,0.713865092774798,0.580032512774698,0.587512117338614,0.512058678848719,0.387702749692513,0.423075662485266,0.648450559706378,0.871161229320395,1.01655478963404,1.14736443926376,1.24053661415464,1.19121961743392,0.973406402008779,0.615989601696951,0.235020813493048,-0.162745856570606,-0.685946517387915,-1.21120804393407,-1.43080057337334,-1.35207948935739,-1.27542423361208,-1.26816049364047,-1.04429934166962,-0.722502889163929,-0.598168420388765,-0.692443366029396,-0.866881835822564,-1.02898839513581,"POL LIN11-Ref-POL LIN12-Ref",1493,"DG_s08",24.219,24.891,26.235,26.235,13,7,10,10,1.344,"Left",13,7,6,6,0,0,-6,0,-6,6,"Advent",3,-3,13,10,7,10
"87",9,0.00120489942830204,-0.155602239496869,0.0164104635543669,0.137986876514201,0.0423945485208073,-0.160293100935364,-0.278395064995026,-0.129266827372264,0.172642907171381,0.434869257724518,0.593643459658704,0.583138962574917,0.309735538001627,-0.252831016573294,-0.818387598574548,-0.712721892160474,-0.211617987405942,0.125812098653535,0.124909910786911,-0.0608624974510708,-0.229607581327222,-0.289204757394366,-0.311925944770282,-0.289329950162939,-0.230111643326795,-0.299614964089162,-0.578990630753486,-0.897033887159861,-0.906124572566426,-0.445337598425615,0.11576707631043,0.483065518062633,0.633144742460715,0.538888258263013,0.25717122303749,-0.0295667592384508,-0.217056140647399,-0.308752722684705,-0.29604498710113,-0.274215800168726,-0.36062705171515,-0.677525089392994,-1.16679250165894,"POL LIN10-Ref-POL LIN11-Ref",1493,"DG_s08",24.219,24.891,26.235,26.235,13,7,10,10,1.344,"Left",13,7,6,6,0,0,-6,0,-6,6,"Advent",3,-3,13,10,7,10
"88",9,-0.179474148746342,-0.00887016827045528,0.085919433374146,0.102424883642652,-0.0187691449952236,-0.402700912043126,-0.762578830697116,-0.27115305310049,0.428502649662251,0.842268956773255,1.03354399333153,1.10097882077245,1.07302727305551,0.903213488623006,0.521100860506388,-0.102223460638543,-0.843461684476231,-1.52023113998854,-1.77825182648037,-1.37279769526037,-0.594924036628541,0.0872968440602406,0.498818700642708,0.596806315697211,0.421519787421737,0.0930917516225183,-0.171616929946053,-0.0803436835881541,0.340278064379495,0.7423462819332,0.945643460207629,0.949686875766806,0.809695166652306,0.561456262327821,0.204924095078658,-0.323843125903106,-1.0094818433607,-1.35193022541185,-0.93125509013502,-0.258430189054897,0.264225485456686,0.460108633386515,0.303857638618826,"POL LIN4-Ref-POL LIN5-Ref",1493,"DG_s08",24.219,24.891,26.235,26.235,13,7,10,10,1.344,"Left",13,7,6,6,0,0,-6,0,-6,6,"Advent",3,-3,13,10,7,10
"89",9,-0.543285758901417,-0.022186849834533,0.243216349593737,0.322256259142213,0.303466632101491,0.252901353016661,0.18864915769379,0.121178824316164,0.0448550206194991,-0.0250421223229367,-0.0515944564207818,-0.00377779951688062,0.0983837723727774,0.168497438581783,0.0853727464576721,-0.244898140477147,-0.894281911234849,-1.9135199388644,-2.61860374534405,-1.62059649907697,-0.725930062668484,-0.250960983973563,-0.0756362423119867,-0.0138550198445522,0.0441772842330028,0.0242758002190566,-0.163611816278777,-0.577593136285278,-1.24025748823362,-2.08905498453521,-2.78129789744415,-2.82245658997484,-2.36050532259724,-1.83569123662823,-1.50495123954723,-1.36855423929736,-1.34292658980126,-1.3309170467997,-1.29406138529761,-1.08939667553952,-0.701754907357657,-0.383590457126591,-0.293481002652088,"POL RAM8-Ref-POL RAM9-Ref",1493,"DG_s08",24.219,24.891,26.235,26.235,13,7,10,10,1.344,"Left",13,7,6,6,0,0,-6,0,-6,6,"Advent",3,-3,13,10,7,10
"90",9,0.909199554777942,0.497268938430887,-0.344024268757508,-1.06244422445132,-0.70479790258697,-0.0667193428978692,0.517145802405716,0.961411009120981,1.2938817348859,1.51884974234415,1.53201362834836,1.28930597836938,0.820967960226,0.324080505573978,0.30889936783632,0.655273864892537,0.891844646739782,0.913331912315712,0.753716287150439,0.444106280868121,-0.04892582500662,-0.702544759671193,-0.918676154840573,-0.444301220775015,0.212441523732348,0.727694181787239,1.01816955214463,1.17654024524305,1.31065180077574,1.35033635915414,1.14801345348549,0.609587667243774,-0.247463539123533,-1.22620584344654,-1.75299758688129,-1.12230202825,-0.44258688308185,-0.0670134400604034,0.311797228315001,0.812009620305959,1.24806847713271,1.44358768507727,1.35037387767891,"POL RIN10-Ref-POL RIN11-Ref",1493,"DG_s08",24.219,24.891,26.235,26.235,13,7,10,10,1.344,"Left",13,7,6,6,0,0,-6,0,-6,6,"Advent",3,-3,13,10,7,10
"91",9,0.135078224700969,0.0770215922673874,-0.0198840818539878,-0.192215735114369,-0.514018712511149,-0.987369685672981,-1.5052314550473,-1.82738038357718,-1.64138522274703,-1.20642088877089,-0.82476392088722,-0.583900650472501,-0.48027544559007,-0.508803342358553,-0.630067767347317,-0.788050733199315,-0.933647848951196,-1.09251580688709,-1.22528800030782,-1.19474188903962,-1.03182057108199,-0.862110059531096,-0.801260123964312,-0.966742521942692,-1.35909921496735,-1.55573407121671,-1.3421992803309,-1.27243072671369,-1.6251139268969,-2.3740500726614,-3.17230040174353,-3.59412348491218,-3.51244724904335,-3.26151323633085,-2.97385460971333,-2.49019352652598,-1.91182273958184,-1.50946727101259,-1.33354145480445,-1.19838141397244,-0.954156650914076,-0.664400009822765,-0.486161758008182,"POL RIN12-Ref-POL RIN13-Ref",1493,"DG_s08",24.219,24.891,26.235,26.235,13,7,10,10,1.344,"Left",13,7,6,6,0,0,-6,0,-6,6,"Advent",3,-3,13,10,7,10
"92",9,0.436849327362182,0.146126946800592,-0.168860124794172,-0.414116149368606,-0.652095629532001,-1.05886618929419,-1.60987094170667,-1.87602311497631,-1.43313309167154,-0.93836136234059,-0.695882867308733,-0.581973816018436,-0.418008442210148,-0.161713348520035,0.167345276352236,0.580174208815594,0.98610891073375,1.27472950976779,1.40888805090933,1.38165540370906,1.19859176940142,0.891643444480991,0.498822518917818,0.185156915094623,0.193073952988877,0.381929460383216,0.605313513316244,0.905648797231342,1.25598073597852,1.5355411190641,1.62494366521096,1.44939991982623,0.989795378090912,0.289764135048276,-0.294712265019447,-0.388993231518002,-0.482193572833935,-0.47504391475441,0.173049669187147,1.07471005102715,1.75578233090986,2.1692272671885,2.29831696793753,"POL RIN3-Ref-POL RIN4-Ref",1493,"DG_s08",24.219,24.891,26.235,26.235,13,7,10,10,1.344,"Left",13,7,6,6,0,0,-6,0,-6,6,"Advent",3,-3,13,10,7,10
"93",9,0.68487131500798,0.441278385336251,-0.123062805195042,-1.00308689514919,-1.93810750584061,-2.12222355431957,-1.68244858331358,-1.43293438390604,-1.53527347580487,-1.85111172829876,-1.86005549237218,-1.23059818131906,-0.688895596049704,-0.523999960713395,-0.723541864284076,-1.11539381146661,-1.3094004021837,-1.1428080120329,-1.00922967215361,-1.00644027006603,-1.00112914919393,-0.829746513776938,-0.599010846381091,-0.448956853971163,-0.386708074036555,-0.36374159995291,-0.237962812776205,0.00791257527976796,0.215009590333167,0.235898952005158,-0.0146825030910289,-0.546709610968097,-1.29457031000942,-2.00320221093267,-2.47450749274992,-2.82325289532566,-3.07580657041847,-3.02655922949284,-2.49840469645155,-1.79451592383681,-1.23267108248,-0.753179696628722,-0.328357655542003,"POL LIN3-Ref-POL LIN4-Ref",1493,"DG_s08",24.219,24.891,26.235,26.235,13,7,10,10,1.344,"Left",13,7,6,6,0,0,-6,0,-6,6,"Advent",3,-3,13,10,7,10
"94",9,0.778931707494097,0.304678735942749,-0.31525524618827,-0.768355197248574,-0.889815010266974,-0.814184513882553,-0.578700255390907,-0.399619669420886,-0.341533764377973,-0.446781311215074,-0.539947504641823,-0.458927640891155,-0.366369371431524,-0.226041097454086,0.0534332862202422,0.436362290292887,0.779605041923299,0.95673192566659,0.928313174222259,0.717917121358989,0.358011309604803,-0.0962179164122663,-0.509683216958697,-0.351336355763863,0.408057536393926,1.12268440554755,1.63665007180436,1.98049752209113,2.21271168361338,2.35357506709819,2.38427844553897,2.29434563258175,2.09179860005917,1.80080261546508,1.52050284423397,1.36341073136631,1.25633519731897,1.10638654128461,0.938877434219021,1.07828608211956,1.53096231742785,1.96946776811002,2.22009578726415,"POL RIN5-Ref-POL RIN6-Ref",1493,"DG_s08",24.219,24.891,26.235,26.235,13,7,10,10,1.344,"Left",13,7,6,6,0,0,-6,0,-6,6,"Advent",3,-3,13,10,7,10
"95",9,-0.138719283113044,0.0764061133115295,0.099702828604304,-0.0373896588027876,-0.287081658276898,-0.592561842690552,-0.933863175825648,-1.30607780775902,-1.54576444079161,-1.47457604219614,-1.30850597568617,-1.22453812341579,-1.15899675232333,-0.956505265927669,-0.689461100353549,-0.554170971187665,-0.621751662823542,-0.902500764945382,-1.37482398792642,-1.89831176915557,-2.30932646962551,-2.52346668053455,-2.53892935850976,-2.43437604719412,-2.271972954521,-2.16001188185325,-2.27591941170523,-2.60258910436484,-2.67988341791663,-2.29519688132092,-1.95549753987896,-1.79053983412467,-1.79514342587581,-1.90920010208007,-2.05137347145157,-2.21029720775663,-2.34800459025526,-2.36049846399314,-2.31221670305668,-2.39267322336612,-2.75585786504318,-3.2252665264466,-3.1474803071318,"POL LIN12-Ref-POL LIN13-Ref",1493,"DG_s08",24.219,24.891,26.235,26.235,13,7,10,10,1.344,"Left",13,7,6,6,0,0,-6,0,-6,6,"Advent",3,-3,13,10,7,10
"96",9,-0.0316571179779874,-0.0939266103711258,-0.0614483546377258,0.187032082986841,0.598530541081642,0.945798394811298,1.11135593893876,1.06982142941355,0.849083194005587,0.499025597831888,0.132522468901747,-0.0352747648899072,0.0730365086921339,0.339267664877999,0.627588510906277,0.801131224716617,0.761167795104285,0.504619638217527,0.0649989570496921,-0.479174722734092,-0.811391523068695,-0.844944276268034,-0.63246147996141,-0.179641662367493,0.281123988528812,0.703511337677694,1.12708584337327,1.532008294776,1.82542181737071,1.88911157438527,1.71784864816767,1.46176702605628,1.36295900253423,1.33067179665772,1.10919837703247,0.602958156914196,-0.17678993921745,-0.97347935588191,-0.93804335796669,-0.121328595556635,0.580069090723736,1.05061875137043,1.30290525605155,"POL LIN1-Ref-POL LIN2-Ref",1493,"DG_s08",24.219,24.891,26.235,26.235,13,7,10,10,1.344,"Left",13,7,6,6,0,0,-6,0,-6,6,"Advent",3,-3,13,10,7,10
"97",9,-0.953636108553171,-0.365257095229854,0.344993246330267,0.973899957452758,1.30203510207876,1.25925712167066,0.877834915869848,0.295953114196566,-0.211032856242609,-0.413384502757916,-0.277362854846192,0.141362993227961,0.543227760724887,0.722511627059985,0.783335261806963,0.965044344526854,1.20202411269577,1.27710351714931,1.09796572585434,0.678435744558922,0.0977382536799976,-0.413024353291997,-0.448064233766308,-0.122903433419165,0.124940122685578,0.256692526956783,0.219827291144741,-0.0986832135890179,-0.780164167036199,-1.55949372221071,-1.2745883211352,-0.55491756552521,0.0347290186639935,0.403307520492518,0.454199811271135,0.151856646785307,-0.421613141284967,-1.03516122418607,-0.986714506384478,-0.134794018812933,0.527079251325468,0.839912212361957,0.911227955320784,"POL LIN2-Ref-POL LIN3-Ref",1493,"DG_s08",24.219,24.891,26.235,26.235,13,7,10,10,1.344,"Left",13,7,6,6,0,0,-6,0,-6,6,"Advent",3,-3,13,10,7,10
"98",9,0.453281189355645,0.239674025933377,-0.131421476347267,-0.561533738941751,-0.79742909282198,-0.63465457561855,-0.284181288565023,0.0267475000329149,0.239011639575233,0.359611622102028,0.376733648755042,0.277875054072455,0.0763778244569089,-0.0729086244130119,-0.00657332865607785,0.248775037586013,0.474631670830219,0.519179266268605,0.355140021659066,-0.00234699904409652,-0.61655053772142,-1.28276896701419,-1.01091892621862,-0.518072860320402,-0.251663589224487,-0.135571910001751,-0.19824116647702,-0.471750012566712,-0.876434563601363,-1.28655654722699,-1.65328414076019,-1.83560569755414,-1.73471605912253,-1.67188896650308,-1.71754505119871,-1.50923254351148,-0.985245168933576,-0.45588076243083,-0.0470752521512647,0.328009827623198,0.677887359768379,0.890876092226785,0.892993903807072,"POL RAM7-Ref-POL RAM8-Ref",1493,"DG_s08",24.219,24.891,26.235,26.235,13,7,10,10,1.344,"Left",13,7,6,6,0,0,-6,0,-6,6,"Advent",3,-3,13,10,7,10
"99",9,0.447069402840635,0.187722732023378,-0.0982871658141349,-0.53650496904988,-0.926288839036373,-0.541284541395504,0.119863433838352,0.569016423115835,0.76091909425236,0.648353395984424,0.25212800591925,-0.260898140501482,-0.64893304062969,-0.760388682411122,-0.65581004370924,-0.41343795338614,0.106944244751555,0.787692259685237,1.24597669332186,1.41230181220616,1.46576793020266,1.62125771730709,1.80951625863383,1.88736464036369,1.80097865736782,1.67192843100638,1.64714548825922,1.6513496015406,1.48625921218533,1.10838705442446,0.606592442130925,0.302135237090022,0.519747848159358,0.962021590468144,1.32332436919157,1.6451527633604,1.99790016416608,2.39121899773498,2.74424428649928,2.98426419425092,3.06304359847101,2.94408988143017,2.63912759412915,"POL RIN4-Ref-POL RIN5-Ref",1493,"DG_s08",24.219,24.891,26.235,26.235,13,7,10,10,1.344,"Left",13,7,6,6,0,0,-6,0,-6,6,"Advent",3,-3,13,10,7,10
"100",9,0.770454736844972,-0.128257575609482,-0.590080202542688,-0.0521169586928023,0.662835216597079,1.07471099074819,1.22216493730475,1.29589941284766,1.46305013687694,1.708834517379,1.97563222529124,2.24046571391359,2.4388790720741,2.55113410175621,2.58817537343656,2.6090573456882,2.6360487589122,2.60951214217462,2.45674623440585,2.1440942797086,1.68812562973919,1.20946992719691,0.862218556320869,0.692602521139089,0.439475497034868,-0.0936135365671262,-0.141941329461641,0.551826372050623,1.13500931357254,1.6077264948771,1.95283374668279,2.07666382547148,2.12083839123177,2.32638824829789,2.5879762826173,2.66761558225346,2.45500413966494,1.97192779045784,1.43852820004546,1.54130651008137,2.25427447970361,2.79399656344317,3.05243927058306,"POL RIN1-Ref-POL RIN2-Ref",1493,"DG_s08",24.219,24.891,26.235,26.235,13,7,10,10,1.344,"Left",13,7,6,6,0,0,-6,0,-6,6,"Advent",3,-3,13,10,7,10
"101",9,0.295080012732141,-0.0411675222259129,-0.126929746061332,-0.126982744444895,-0.0211824272735264,0.391277543735747,0.821571093022236,1.02314953422871,0.942094886038068,0.649772151918822,0.570149137333956,0.825190944668106,0.961794039651259,0.812912435297611,0.428444873483889,-0.0542069634625078,-0.16964375490288,0.12062071038893,0.543400038934944,0.94427604412788,1.22450134552721,1.3520987171787,1.39573283897392,1.57421932466159,1.96295489443865,2.36123385260157,2.64994254390131,2.84471919451424,2.97031336163622,2.95381863999312,2.70216109172814,2.18369613943476,1.45305393936861,0.727963192563445,0.318424881740495,0.244461403037381,0.303638509227492,0.413224656893997,0.484113081598102,0.483729462143891,0.523503425657066,0.743026862936849,1.04434509265317,"POL LIN9-Ref-POL LIN10-Ref",1493,"DG_s08",24.219,24.891,26.235,26.235,13,7,10,10,1.344,"Left",13,7,6,6,0,0,-6,0,-6,6,"Advent",3,-3,13,10,7,10
"102",9,0.173427116396215,-0.262798605281898,-0.151231111234233,0.240602600119917,0.558490640373416,0.667480155262369,0.540563181279522,0.198110601239198,-0.288005919035276,-0.5614538080057,-0.164143481946017,0.353604915800008,0.669710319140657,0.864888815622846,1.00155739844993,1.0693615311867,1.02573193475361,0.774837913970257,0.290576984692713,-0.291508086687913,-0.648835732029477,-0.620383647233889,-0.615246492554965,-0.747531652129402,-0.453166857995889,0.120094236710893,0.484067047723508,0.652501090878909,0.766002680594118,0.91108029514824,1.04105824233737,1.02626374593773,0.830590055605452,0.426288114025846,-0.157290162056857,-0.713677099928902,-0.772178050723113,-0.30644667726248,0.2193837293667,0.647751101309334,0.997917655764976,1.2514397535049,1.38233594916081,"POL LAM8-Ref-POL LAM9-Ref",1493,"DG_s08",24.219,24.891,26.235,26.235,13,7,10,10,1.344,"Left",13,7,6,6,0,0,-6,0,-6,6,"Advent",3,-3,13,10,7,10
"103",9,-0.0852101031944326,0.156038125072843,0.00392148690825245,-0.074749508786665,0.344015127943397,0.793705721367141,1.13174057555779,1.34666412593942,1.34680642405421,1.06002510307964,0.47352652450585,-0.258336513279875,-0.643501160905684,-0.684848248142904,-0.910504448906459,-1.24945476533183,-1.21540053898649,-1.00469334285232,-0.880464517447361,-0.725376380979478,-0.561090452125615,-0.544284532390831,-0.731525886720789,-1.04852384295034,-1.23887064697272,-1.0524343750728,-0.662209010763151,-0.476419043444142,-0.672821028762211,-1.01664343057217,-0.843576217238132,-0.167877680013133,0.482515730220213,1.02172326820176,1.3972687671505,1.53033077645573,1.37004734002339,0.896527300156249,0.163313513061787,-0.413116087734869,0.0494117148226056,0.835553845183174,1.32170020146548,"POL RIN9-Ref-POL RIN10-Ref",1493,"DG_s08",24.219,24.891,26.235,26.235,13,7,10,10,1.344,"Left",13,7,6,6,0,0,-6,0,-6,6,"Advent",3,-3,13,10,7,10
"104",9,0.122421009441639,-0.138931363895276,-0.0286336517180459,0.045144006171685,0.179591202191449,0.577821552055031,0.969681008107417,1.16266438145139,1.18833004703668,1.17976802126073,1.16129612295575,1.09852161883638,1.00564695931968,1.09766248650713,1.43552437911969,1.73888390785048,1.83797183118749,1.68838535326902,1.33712265361606,0.869705152795852,0.367686341407056,-0.0570846281483064,-0.0906231772199408,0.495967559528672,1.18245268535963,1.70163902975354,2.0076771939714,2.07818686984828,1.93164258815239,1.71221423821733,1.71283029794056,1.93277052198418,2.08692120181144,2.02134155616545,1.8123826398432,1.70530355561247,1.8582622455939,2.10043142908372,2.32987612477625,2.56661461433207,2.88513526193885,3.25600520781219,3.54421820674312,"POL LAM9-Ref-POL LAM10-Ref",1493,"DG_s08",24.219,24.891,26.235,26.235,13,7,10,10,1.344,"Left",13,7,6,6,0,0,-6,0,-6,6,"Advent",3,-3,13,10,7,10
"105",9,0.0254240704230657,0.0572024454102991,0.0228884113782541,-0.105514927211622,-0.138343240533478,-0.0600517512652248,-0.0956049685471658,-0.385182437185517,-0.731371450416151,-0.769817886784816,-0.475479430836609,-0.0576066359704059,0.392732371108774,0.844683610904349,1.17673312104316,1.37043798542666,1.5002718288844,1.6524338187268,1.8612544451053,2.0743313421613,2.21817168602055,2.22979829444894,2.06453317009693,1.71477318944563,1.28615951544095,0.941360196855378,0.692953075655323,0.401616079906413,0.303228458955475,0.776156045015489,1.32297889374994,1.59389488970256,1.60341345699085,1.44157837751838,1.18015076619688,0.962677461360713,1.02576728459928,1.36647136589636,1.72071726289096,1.89666603004313,1.79639276998205,1.4830300224499,1.28992093846791,"POL RIN2-Ref-POL RIN3-Ref",1493,"DG_s08",24.219,24.891,26.235,26.235,13,7,10,10,1.344,"Left",13,7,6,6,0,0,-6,0,-6,6,"Advent",3,-3,13,10,7,10
"106",10,0.136433744462595,0.0598762534163821,-0.058445367179667,-0.137864630699312,-0.132856082949703,-0.128324524271777,-0.169239147072453,-0.110548933940748,0.177752926415407,0.568057687698124,0.870400606465466,0.991475129263412,0.899614138760299,0.59986330499969,0.12471321302079,-0.376978154195154,-0.609550986510786,-0.544128871220574,-0.391578374612809,-0.266663268277201,-0.194559974375856,-0.211899454137273,-0.349952702735537,-0.641954775622146,-1.03817434267002,-1.25948289168692,-1.16577376868814,-1.05764197694833,-1.18660595290945,-1.51932456315992,-1.81880095545866,-1.89523425027983,-1.88833388227792,-1.90342684309889,-2.02495482085331,-2.37201744650176,-2.91402776580502,-3.34132112824577,-3.15260559825293,-2.50734180539042,-1.99337324880301,-1.71640294421804,-1.75294818086383,"POL RIN3-Ref-POL RIN4-Ref",1494,"DG_s08",27.235,27.907,29.391,29.391,10,10,10,26,1.484,"Left",10,26,16,0,16,16,0,0,0,-16,"10-10",0,-16,10,10,10,26
"107",10,0.220964563427859,-0.184846112772998,-0.201989709916988,0.165871259262127,0.463291151335524,0.533965060843011,0.58641627838511,0.854915950367078,1.38969884348276,1.89855919662189,2.16648682172245,2.17207902832982,1.97513081967693,1.77572631634718,1.79733456238456,1.96879002468658,2.08682612879933,2.06278260655076,1.91719582974439,1.70246813901115,1.40635512086062,0.941569412859533,0.368273388729349,-0.258441471784625,-0.183735782890986,0.821814050713913,1.89110839046603,2.68454472058934,3.14981269107011,3.3102330310293,3.17844998313601,2.79070536985546,2.19923909874383,1.41984049153938,0.48959286435,-0.271561281229657,-0.670946608969144,-0.792167628650603,-0.368650029755385,-0.129769803784265,-0.440316699626738,-0.826744437793842,-0.136204085778862,"POL LIN12-Ref-POL LIN13-Ref",1494,"DG_s08",27.235,27.907,29.391,29.391,10,10,10,26,1.484,"Left",10,26,16,0,16,16,0,0,0,-16,"10-10",0,-16,10,10,10,26
